timestamp,gyr_x,gyr_y,gyr_z,acc_x,acc_y,acc_z,pkt_time_ns
259744,198,-89,20,1218,1223,-8016,1745144477168214171
259936,293,-184,32,892,30,-8033,1745144477168214171
260128,144,-64,8,1067,161,-8305,1745144477168214171
260320,65,-39,0,894,233,-8063,1745144477168214171
260512,40,-36,-1,819,386,-8195,1745144477168214171
260704,15,-21,6,881,385,-8146,1745144477168214171
260896,-19,-2,6,893,463,-8116,1745144477168214171
261088,-32,-9,6,883,624,-8024,1745144477168214171
261280,-45,11,8,908,600,-8002,1745144477168214171
261472,-62,16,7,946,526,-7981,1745144477168214171
261664,-70,14,7,939,562,-7959,1745144477168214171
261856,-80,27,9,943,630,-7961,1745144477168214171
262048,-82,27,12,954,640,-8023,1745144477224229545
262240,-88,33,9,958,593,-8084,1745144477224229545
262432,-99,41,6,938,629,-8117,1745144477224229545
262624,-100,43,7,948,715,-8160,1745144477224229545
262816,-98,48,9,1016,812,-8258,1745144477224229545
263008,-93,49,10,1097,859,-8337,1745144477224229545
263200,-84,43,11,1206,992,-8428,1745144477224229545
263392,-64,32,11,1332,1193,-8444,1745144477224229545
263584,-33,9,9,1436,1323,-8401,1745144477224229545
263776,9,-20,6,1533,1443,-8363,1745144477224229545
263968,57,-58,1,1623,1491,-8300,1745144477224229545
264160,104,-101,-5,1660,1378,-8208,1745144477224229545
264352,143,-141,-12,1601,1202,-8170,1745144477284785138
264544,173,-168,-15,1390,1032,-8117,1745144477284785138
264736,89,-159,-32,625,-54,-8460,1745144477284785138
264928,198,-148,-19,1003,1339,-7578,1745144477284785138
265120,186,-140,13,329,1106,-7775,1745144477284785138
265312,250,-42,17,278,933,-8332,1745144477284785138
265504,244,-30,-6,493,613,-7994,1745144477284785138
265696,220,24,-28,513,415,-8156,1745144477284785138
265888,170,39,-30,542,140,-7970,1745144477284785138
266080,112,80,-25,688,-204,-7958,1745144477284785138
266272,37,165,3,1016,-176,-8408,1745144477284785138
266464,-236,332,-32,256,-1496,-7135,1745144477284785138
266656,-209,302,-37,445,-667,-7062,1745144477341744201
266848,-220,158,12,877,-68,-7014,1745144477341744201
267040,-196,34,10,1171,596,-7480,1745144477341744201
267232,-157,-26,-14,1304,1134,-7717,1745144477341744201
267424,-108,-36,-28,1420,1615,-8112,1745144477341744201
267616,-72,-3,-11,1410,1518,-7917,1745144477341744201
267808,-18,-12,-22,1364,1419,-7860,1745144477341744201
268000,29,-48,-26,1313,1183,-7964,1745144477341744201
268192,55,-67,-22,1204,892,-8018,1745144477341744201
268384,60,-84,-10,1092,651,-8034,1745144477341744201
268576,48,-88,4,987,467,-8013,1745144477341744201
268768,25,-83,19,939,384,-8047,1745144477341744201
268960,-3,-63,29,888,371,-8017,1745144477401665372
269152,-31,-47,32,884,415,-7946,1745144477401665372
269344,-52,-47,30,898,503,-7886,1745144477401665372
269536,-63,-58,25,958,590,-7881,1745144477401665372
269728,-67,-71,23,1035,672,-7907,1745144477401665372
269920,-67,-79,18,1090,739,-7916,1745144477401665372
270112,-68,-82,16,1108,751,-7922,1745144477401665372
270304,-67,-85,14,1080,757,-7899,1745144477401665372
270496,-63,-94,11,1024,725,-7879,1745144477401665372
270688,-56,-107,6,960,679,-7904,1745144477401665372
270880,-49,-117,3,887,639,-7965,1745144477401665372
271072,-48,-119,2,853,608,-8003,1745144477401665372
271264,-50,-111,2,819,592,-7987,1745144477458657716
271456,-56,-102,2,806,605,-7934,1745144477458657716
271648,-62,-96,2,809,625,-7924,1745144477458657716
271840,-65,-93,1,815,656,-7923,1745144477458657716
272032,-66,-94,0,845,689,-7972,1745144477458657716
272224,-61,-93,-1,860,719,-8028,1745144477458657716
272416,-56,-89,-2,898,729,-8063,1745144477458657716
272608,-50,-84,-3,900,727,-8091,1745144477458657716
272800,-47,-79,-5,905,738,-8124,1745144477458657716
272992,-45,-75,-5,900,727,-8146,1745144477458657716
273184,-44,-74,-6,903,724,-8164,1745144477458657716
273376,-44,-77,-9,894,724,-8166,1745144477458657716
273568,-46,-79,-12,885,728,-8158,1745144477518148266
273760,-50,-75,-15,892,740,-8128,1745144477518148266
273952,-57,-72,-16,900,742,-8101,1745144477518148266
274144,-65,-70,-17,910,747,-8077,1745144477518148266
274336,-68,-71,-20,912,724,-8060,1745144477518148266
274528,-68,-75,-25,893,728,-8064,1745144477518148266
274720,-66,-77,-29,884,718,-8061,1745144477518148266
274912,-65,-78,-32,884,723,-8047,1745144477518148266
275104,-67,-77,-33,852,720,-8034,1745144477518148266
275296,-68,-80,-32,796,711,-7897,1745144477518148266
275488,-67,-93,-32,787,744,-7949,1745144477518148266
275680,-68,-95,-32,756,758,-7931,1745144477518148266
275872,-67,-93,-34,758,762,-7918,1745144477575224880
276064,-60,-91,-36,766,747,-7919,1745144477575224880
276256,-52,-87,-40,761,750,-7941,1745144477575224880
276448,-46,-85,-42,771,758,-7968,1745144477575224880
276640,-43,-83,-44,786,745,-8008,1745144477575224880
276832,-43,-85,-44,795,728,-8002,1745144477575224880
277024,-42,-87,-45,784,743,-8015,1745144477575224880
277216,-41,-88,-46,781,772,-8020,1745144477575224880
277408,-44,-87,-46,769,776,-8035,1745144477575224880
277600,-48,-85,-45,772,770,-8046,1745144477575224880
277792,-49,-87,-45,773,776,-8053,1745144477575224880
277984,-50,-88,-47,778,776,-8056,1745144477575224880
278176,-53,-86,-49,762,792,-8037,1745144477634452725
278368,-56,-83,-51,756,817,-8034,1745144477634452725
278560,-62,-80,-51,739,865,-8045,1745144477634452725
278752,-68,-78,-51,759,872,-8109,1745144477634452725
278944,-70,-79,-52,773,898,-8139,1745144477634452725
279136,-68,-82,-55,791,884,-8153,1745144477634452725
279328,-65,-85,-57,785,853,-8106,1745144477634452725
279520,-64,-90,-57,765,809,-8060,1745144477634452725
279712,-62,-91,-57,747,759,-7996,1745144477634452725
279904,-60,-92,-56,725,739,-7950,1745144477634452725
280096,-59,-91,-56,690,730,-7942,1745144477634452725
280288,-57,-90,-57,663,731,-7937,1745144477634452725
280480,-54,-86,-58,655,727,-7896,1745144477693847443
280672,-50,-81,-61,659,724,-7874,1745144477693847443
280864,-47,-76,-63,672,727,-7882,1745144477693847443
281056,-46,-71,-64,677,769,-7938,1745144477693847443
281248,-52,-69,-64,658,848,-8037,1745144477693847443
281440,-62,-68,-65,652,914,-8123,1745144477693847443
281632,-67,-71,-66,602,964,-8169,1745144477693847443
281824,-64,-72,-67,578,998,-8162,1745144477693847443
282016,-56,-70,-69,565,1005,-8165,1745144477693847443
282208,-41,-66,-66,592,990,-8190,1745144477693847443
282400,-28,-61,-61,645,952,-8218,1745144477693847443
282592,-24,-58,-56,703,930,-8225,1745144477693847443
282784,-30,-58,-52,739,887,-8212,1745144477752358783
282976,-40,-57,-51,771,850,-8161,1745144477752358783
283168,-49,-58,-52,807,841,-8099,1745144477752358783
283360,-54,-56,-51,791,851,-8081,1745144477752358783
283552,-57,-51,-50,783,861,-8144,1745144477752358783
283744,-58,-48,-50,774,874,-8197,1745144477752358783
283936,-55,-49,-51,755,896,-8237,1745144477752358783
284128,-52,-50,-55,695,930,-8246,1745144477752358783
284320,-47,-47,-58,629,941,-8233,1745144477752358783
284512,-43,-41,-58,603,939,-8187,1745144477752358783
284704,-39,-33,-58,607,932,-8156,1745144477752358783
284896,-37,-26,-58,601,915,-8113,1745144477752358783
285088,-33,-23,-57,625,904,-8067,1745144477809491386
285280,-33,-21,-57,620,930,-8016,1745144477809491386
285472,-35,-18,-58,608,944,-7992,1745144477809491386
285664,-35,-16,-58,573,975,-7983,1745144477809491386
285856,-34,-13,-60,561,995,-7999,1745144477809491386
286048,-29,-9,-64,560,1014,-8034,1745144477809491386
286240,-22,-9,-66,552,989,-8059,1745144477809491386
286432,-12,-12,-68,559,950,-8073,1745144477809491386
286624,0,-13,-69,556,877,-8070,1745144477809491386
286816,11,-10,-68,545,824,-8081,1745144477809491386
287008,20,-5,-62,553,807,-8113,1745144477809491386
287200,23,5,-54,564,816,-8179,1745144477809491386
287392,19,11,-47,600,836,-8225,1745144477869436203
287584,14,16,-41,605,860,-8230,1745144477869436203
287776,11,21,-38,638,875,-8237,1745144477869436203
287968,9,26,-34,673,894,-8229,1745144477869436203
288160,6,30,-29,708,938,-8235,1745144477869436203
288352,0,34,-24,717,974,-8225,1745144477869436203
288544,-7,35,-19,709,1020,-8214,1745144477869436203
288736,-16,34,-17,670,1055,-8200,1745144477869436203
288928,-21,36,-20,659,1065,-8182,1745144477869436203
289120,-20,39,-23,633,1059,-8120,1745144477869436203
289312,-12,42,-25,645,1032,-8083,1745144477869436203
289504,-4,45,-26,665,978,-8073,1745144477869436203
289696,-2,47,-23,683,958,-8072,1745144477923555917
289888,-4,47,-21,682,918,-8084,1745144477923555917
290080,-8,47,-21,647,923,-8067,1745144477923555917
290272,-9,51,-21,634,918,-8047,1745144477923555917
290464,-8,56,-21,629,918,-8046,1745144477923555917
290656,-7,57,-22,636,906,-8063,1745144477923555917
290848,-4,57,-21,647,907,-8096,1745144477923555917
291040,2,56,-19,654,891,-8115,1745144477923555917
291232,6,56,-16,647,877,-8120,1745144477923555917
291424,9,56,-13,653,817,-8089,1745144477923555917
291616,8,57,-11,669,790,-8039,1745144477923555917
291808,1,55,-10,679,786,-8006,1745144477923555917
292000,-8,57,-9,680,800,-7999,1745144477986001909
292192,-16,58,-8,687,830,-8003,1745144477986001909
292384,-20,61,-4,685,847,-8014,1745144477986001909
292576,-21,62,-4,690,876,-8029,1745144477986001909
292768,-20,62,-7,669,904,-8034,1745144477986001909
292960,-16,60,-9,657,937,-8065,1745144477986001909
293152,-11,58,-8,645,972,-8086,1745144477986001909
293344,-9,58,-6,636,977,-8086,1745144477986001909
293536,-7,59,-5,660,980,-8093,1745144477986001909
293728,-3,59,-3,680,978,-8078,1745144477986001909
293920,1,61,0,704,969,-8072,1745144477986001909
294112,3,61,4,738,945,-8084,1745144477986001909
294304,3,63,7,763,948,-8077,1745144478040897866
294496,1,62,10,781,947,-8082,1745144478040897866
294688,-2,60,12,782,959,-8098,1745144478040897866
294880,-5,57,12,760,959,-8117,1745144478040897866
295072,-6,58,13,756,950,-8131,1745144478040897866
295264,-5,59,14,764,899,-8140,1745144478040897866
295456,-5,59,14,780,871,-8159,1745144478040897866
295648,-8,59,12,761,848,-8134,1745144478040897866
295840,-13,58,12,743,820,-8119,1745144478040897866
296032,-18,63,14,711,819,-8089,1745144478040897866
296224,-24,68,18,695,816,-8055,1745144478040897866
296416,-31,73,21,721,836,-8022,1745144478040897866
296608,-37,74,22,755,873,-8012,1745144478102571313
296800,-41,75,22,755,899,-8022,1745144478102571313
296992,-46,77,22,774,933,-8041,1745144478102571313
297184,-48,77,21,767,946,-8056,1745144478102571313
297376,-50,76,18,732,962,-8065,1745144478102571313
297568,-50,78,18,708,981,-8085,1745144478102571313
297760,-49,82,18,703,990,-8117,1745144478102571313
297952,-46,85,19,706,1009,-8135,1745144478102571313
298144,-44,88,22,726,994,-8120,1745144478102571313
298336,-42,93,24,765,946,-8127,1745144478102571313
298528,-40,96,24,809,931,-8111,1745144478102571313
298720,-40,100,21,816,882,-8084,1745144478102571313
298912,-43,102,16,823,854,-8065,1745144478160059225
299104,-50,106,9,792,852,-8064,1745144478160059225
299296,-59,111,4,783,820,-8082,1745144478160059225
299488,-69,120,-3,783,811,-8077,1745144478160059225
299680,-79,130,-11,791,786,-8122,1745144478160059225
299872,-90,141,-18,786,753,-8151,1745144478160059225
300064,-103,148,-26,760,730,-8176,1745144478160059225
300256,-114,155,-36,720,705,-8185,1745144478160059225
300448,-123,165,-47,685,715,-8161,1745144478160059225
300640,-135,181,-57,684,725,-8114,1745144478160059225
300832,-146,195,-67,701,736,-8074,1745144478160059225
301024,-157,207,-81,744,722,-8057,1745144478160059225
301216,-169,219,-93,767,725,-8036,1745144478219855346
301408,-179,228,-104,791,723,-8045,1745144478219855346
301600,-186,233,-120,769,738,-8052,1745144478219855346
301792,-192,244,-138,732,750,-8066,1745144478219855346
301984,-198,261,-154,738,723,-8104,1745144478219855346
302176,-206,280,-169,751,699,-8150,1745144478219855346
302368,-215,294,-182,790,666,-8202,1745144478219855346
302560,-223,310,-195,823,666,-8278,1745144478219855346
302752,-227,333,-205,847,668,-8363,1745144478219855346
302944,-228,356,-213,873,713,-8417,1745144478219855346
303136,-222,381,-217,887,790,-8469,1745144478219855346
303328,-211,410,-219,957,853,-8530,1745144478219855346
303520,-195,438,-222,1040,915,-8570,1745144478276273112
303712,-173,462,-225,1115,967,-8627,1745144478276273112
303904,-145,484,-229,1136,1027,-8668,1745144478276273112
304096,-112,507,-234,1172,1067,-8727,1745144478276273112
304288,-74,535,-241,1164,1088,-8819,1745144478276273112
304480,-28,569,-247,1200,1079,-8922,1745144478276273112
304672,26,610,-250,1288,1040,-9059,1745144478276273112
304864,86,647,-256,1365,971,-9200,1745144478276273112
305056,153,682,-264,1440,866,-9369,1745144478276273112
305248,228,723,-268,1533,705,-9542,1745144478276273112
305440,307,760,-273,1699,448,-9734,1745144478276273112
305632,384,789,-272,1972,9,-9925,1745144478276273112
305824,452,805,-268,2416,-675,-10192,1745144478336507562
306016,530,810,-236,2970,-1625,-9979,1745144478336507562
306208,694,818,-149,3203,-2249,-9875,1745144478336507562
306400,830,842,8,3628,-3084,-10304,1745144478336507562
306592,890,866,75,3861,-3675,-10614,1745144478336507562
306784,891,897,40,4105,-4308,-10882,1745144478336507562
306976,874,915,-100,4195,-4329,-11027,1745144478336507562
307168,848,917,-161,4422,-4640,-11120,1745144478336507562
307360,832,907,-153,4858,-5343,-11742,1745144478336507562
307552,813,831,-53,5260,-6552,-10633,1745144478336507562
307744,888,756,148,5765,-8090,-10800,1745144478336507562
307936,1004,626,374,6016,-9111,-11301,1745144478336507562
308128,1053,482,546,6019,-9456,-11034,1745144478394097192
308320,1042,409,643,6215,-9345,-11366,1745144478394097192
308512,986,361,695,6463,-8857,-11530,1745144478394097192
308704,890,318,698,6756,-8283,-11249,1745144478394097192
308896,753,262,659,6874,-7679,-10224,1745144478394097192
309088,607,201,630,7150,-7436,-9720,1745144478394097192
309280,412,139,665,7273,-7297,-9193,1745144478394097192
309472,181,127,796,7242,-6959,-8745,1745144478394097192
309664,-64,134,1045,7296,-6268,-8280,1745144478394097192
309856,-263,128,1349,7251,-5365,-8161,1745144478394097192
310048,-465,90,1707,7242,-4478,-8462,1745144478394097192
310240,-818,115,2191,7531,-4634,-9141,1745144478394097192
310432,-1138,143,2886,8352,-5919,-9972,1745144478453614148
310624,-1169,12,3669,9304,-7259,-10221,1745144478453614148
310816,-941,-189,4307,9940,-8242,-10485,1745144478453614148
311008,-626,-363,4665,10089,-8872,-10799,1745144478453614148
311200,-442,-492,4771,9773,-9514,-10892,1745144478453614148
311392,-361,-558,4754,9101,-9962,-10730,1745144478453614148
311584,-377,-561,4729,8463,-10114,-10538,1745144478453614148
311776,-472,-523,4743,8192,-9869,-10407,1745144478453614148
311968,-634,-457,4793,8392,-9158,-10290,1745144478453614148
312160,-822,-383,4859,9002,-8014,-10082,1745144478453614148
312352,-977,-329,4930,9885,-6686,-9822,1745144478453614148
312544,-1077,-323,4991,10819,-5319,-9482,1745144478453614148
312736,-1140,-375,5033,11571,-4013,-9136,1745144478511077634
312928,-1181,-470,5062,12070,-2855,-8805,1745144478511077634
313120,-1211,-583,5104,12279,-1829,-8511,1745144478511077634
313312,-1236,-695,5185,12260,-983,-8358,1745144478511077634
313504,-1254,-794,5309,12074,-262,-8107,1745144478511077634
313696,-1272,-874,5454,11786,340,-7861,1745144478511077634
313888,-1293,-934,5597,11513,819,-7701,1745144478511077634
314080,-1318,-974,5728,11221,1197,-7587,1745144478511077634
314272,-1343,-991,5842,11002,1471,-7453,1745144478511077634
314464,-1358,-986,5937,10865,1594,-7311,1745144478511077634
314656,-1371,-961,6013,10777,1693,-7038,1745144478511077634
314848,-1386,-906,6070,10765,1751,-6804,1745144478511077634
315040,-1414,-832,6112,10835,1814,-6636,1745144478570378133
315232,-1458,-746,6139,10982,1911,-6389,1745144478570378133
315424,-1508,-661,6151,11229,1974,-6079,1745144478570378133
315616,-1548,-597,6145,11530,2123,-5598,1745144478570378133
315808,-1559,-555,6115,11877,2363,-5213,1745144478570378133
316000,-1535,-534,6049,12202,2664,-4967,1745144478570378133
316192,-1472,-521,5930,12394,3295,-4658,1745144478570378133
316384,-1377,-521,5816,12538,4090,-4481,1745144478570378133
316576,-1278,-537,5748,12705,4624,-4382,1745144478570378133
316768,-1146,-560,5665,12850,5138,-4321,1745144478570378133
316960,-1006,-592,5550,12722,5715,-4311,1745144478570378133
317152,-852,-614,5492,12326,6548,-4295,1745144478570378133
317344,-731,-631,5551,11915,7090,-4247,1745144478632965218
317536,-626,-639,5638,11551,7058,-4138,1745144478632965218
317728,-515,-642,5661,11114,7163,-4096,1745144478632965218
317920,-419,-636,5675,10592,7164,-4105,1745144478632965218
318112,-351,-615,5690,10005,7066,-4056,1745144478632965218
318304,-300,-573,5696,9459,6837,-4097,1745144478632965218
318496,-262,-511,5675,8964,6581,-4158,1745144478632965218
318688,-230,-439,5631,8541,6331,-4119,1745144478632965218
318880,-202,-355,5567,8175,6079,-4100,1745144478632965218
319072,-174,-267,5479,7885,5855,-4040,1745144478632965218
319264,-145,-179,5369,7709,5657,-4006,1745144478632965218
319456,-107,-106,5232,7619,5516,-4061,1745144478632965218
319648,-53,-43,5101,7462,5652,-4135,1745144478685473176
319840,18,8,5008,7399,5554,-4087,1745144478685473176
320032,110,27,4873,7267,5693,-3971,1745144478685473176
320224,204,23,4724,7079,5877,-3902,1745144478685473176
320416,283,-2,4558,6838,6120,-3913,1745144478685473176
320608,339,-40,4376,6460,6340,-3933,1745144478685473176
320800,370,-92,4181,5987,6573,-3977,1745144478685473176
320992,385,-129,3993,5322,6811,-4073,1745144478685473176
321184,375,-151,3815,4609,6984,-4318,1745144478685473176
321376,343,-169,3642,3961,7036,-4572,1745144478685473176
321568,288,-186,3468,3384,6957,-4720,1745144478685473176
321760,213,-206,3284,2867,6806,-4799,1745144478685473176
321952,119,-223,3092,2388,6607,-4981,1745144478745842312
322144,7,-232,2891,1937,6437,-5189,1745144478745842312
322336,-113,-230,2686,1493,6312,-5328,1745144478745842312
322528,-231,-232,2483,1041,6217,-5357,1745144478745842312
322720,-337,-246,2287,883,6214,-5981,1745144478745842312
322912,-440,-193,2101,508,6232,-5900,1745144478745842312
323104,-516,-181,1915,275,6288,-5953,1745144478745842312
323296,-562,-180,1735,89,6367,-6045,1745144478745842312
323488,-572,-178,1557,-6,6365,-6017,1745144478745842312
323680,-537,-174,1386,-12,6269,-5960,1745144478745842312
323872,-465,-165,1221,36,6068,-5909,1745144478745842312
324064,-352,-141,1073,94,5794,-5893,1745144478745842312
324256,-214,-107,950,216,5492,-5960,1745144478803323349
324448,-77,-75,838,354,5225,-6048,1745144478803323349
324640,49,-56,737,531,4965,-6137,1745144478803323349
324832,155,-52,641,715,4658,-6170,1745144478803323349
325024,245,-62,551,909,4290,-6149,1745144478803323349
325216,325,-86,479,1071,3876,-6138,1745144478803323349
325408,405,-113,425,1140,3478,-6334,1745144478803323349
325600,480,-138,397,1190,3081,-6441,1745144478803323349
325792,535,-161,389,1232,2727,-6518,1745144478803323349
325984,552,-174,404,1203,2374,-6659,1745144478803323349
326176,540,-175,441,978,2039,-6886,1745144478803323349
326368,503,-117,492,628,1695,-6869,1745144478803323349
326560,462,-89,536,671,1338,-7000,1745144478862806295
326752,408,-59,547,797,1136,-7343,1745144478862806295
326944,304,-9,533,724,1041,-7405,1745144478862806295
327136,205,18,524,684,1021,-7391,1745144478862806295
327328,123,33,539,563,1123,-7450,1745144478862806295
327520,61,50,585,387,1264,-7491,1745144478862806295
327712,32,56,651,311,1371,-7450,1745144478862806295
327904,12,83,702,312,1457,-7429,1745144478862806295
328096,1,111,716,376,1531,-7444,1745144478862806295
328288,-1,123,697,435,1629,-7480,1745144478862806295
328480,-2,128,661,461,1727,-7481,1745144478862806295
328672,7,120,623,440,1856,-7465,1745144478862806295
328864,27,113,590,409,1963,-7415,1745144478920094574
329056,56,112,558,372,2037,-7441,1745144478920094574
329248,90,112,521,327,2071,-7505,1745144478920094574
329440,125,110,477,327,2053,-7563,1745144478920094574
329632,154,107,424,317,1981,-7593,1745144478920094574
329824,174,106,365,356,1856,-7610,1745144478920094574
330016,182,109,306,404,1654,-7597,1745144478920094574
330208,179,117,254,443,1412,-7609,1745144478920094574
330400,167,121,212,475,1187,-7665,1745144478920094574
330592,153,117,178,480,1022,-7732,1745144478920094574
330784,127,111,149,466,912,-7798,1745144478920094574
330976,90,103,120,434,827,-7807,1745144478920094574
331168,52,96,92,408,772,-7847,1745144478979487834
331360,22,99,69,362,690,-7891,1745144478979487834
331552,10,108,49,337,663,-7931,1745144478979487834
331744,15,124,34,301,664,-7924,1745144478979487834
331936,32,140,24,321,703,-7921,1745144478979487834
332128,51,155,20,368,705,-7956,1745144478979487834
332320,73,165,17,452,691,-7939,1745144478979487834
332512,101,169,13,523,609,-7927,1745144478979487834
332704,136,169,9,609,519,-7895,1745144478979487834
332896,174,164,6,686,423,-7889,1745144478979487834
333088,203,165,2,752,291,-7870,1745144478979487834
333280,225,158,-5,794,137,-7839,1745144478979487834
333472,240,149,-13,847,-33,-7874,1745144479036916215
333664,245,139,-22,859,-176,-7909,1745144479036916215
333856,242,129,-29,842,-293,-7923,1745144479036916215
334048,228,126,-35,818,-373,-7937,1745144479036916215
334240,204,126,-39,790,-429,-7972,1745144479036916215
334432,178,129,-42,761,-466,-7988,1745144479036916215
334624,156,134,-41,748,-508,-7993,1745144479036916215
334816,142,140,-35,746,-540,-8011,1745144479036916215
335008,132,144,-25,764,-550,-8041,1745144479036916215
335200,122,145,-14,777,-548,-8108,1745144479036916215
335392,113,148,-3,787,-525,-8152,1745144479036916215
335584,103,151,2,806,-514,-8173,1745144479036916215
335776,96,155,4,826,-493,-8183,1745144479096250048
335968,92,159,7,840,-499,-8158,1745144479096250048
336160,89,165,8,867,-548,-8162,1745144479096250048
336352,92,172,10,880,-596,-8174,1745144479096250048
336544,96,178,16,905,-628,-8177,1745144479096250048
336736,99,186,25,934,-641,-8197,1745144479096250048
336928,102,190,32,979,-645,-8256,1745144479096250048
337120,105,196,31,1009,-621,-8278,1745144479096250048
337312,111,202,24,1012,-582,-8230,1745144479096250048
337504,123,205,17,1040,-561,-8178,1745144479096250048
337696,136,204,11,1103,-553,-8179,1745144479096250048
337888,150,199,3,1161,-574,-8166,1745144479096250048
338080,164,190,-2,1223,-577,-8194,1745144479153600045
338272,173,178,-6,1272,-625,-8212,1745144479153600045
338464,178,160,-16,1306,-669,-8253,1745144479153600045
338656,177,141,-31,1318,-703,-8339,1745144479153600045
338848,169,125,-47,1257,-718,-8391,1745144479153600045
339040,157,112,-60,1201,-711,-8424,1745144479153600045
339232,140,102,-67,1144,-745,-8444,1745144479153600045
339424,123,93,-69,1103,-791,-8402,1745144479153600045
339616,108,89,-67,1105,-866,-8389,1745144479153600045
339808,92,88,-64,1114,-912,-8381,1745144479153600045
340000,71,90,-60,1135,-940,-8387,1745144479153600045
340192,47,90,-59,1175,-935,-8417,1745144479153600045
340384,24,87,-60,1218,-921,-8406,1745144479213439499
340576,8,81,-61,1220,-890,-8388,1745144479213439499
340768,-3,74,-63,1231,-844,-8361,1745144479213439499
340960,-9,66,-67,1235,-824,-8299,1745144479213439499
341152,-10,56,-72,1232,-773,-8292,1745144479213439499
341344,-10,46,-78,1211,-771,-8306,1745144479213439499
341536,-8,35,-84,1216,-795,-8283,1745144479213439499
341728,-6,26,-89,1244,-854,-8244,1745144479213439499
341920,0,16,-92,1280,-932,-8214,1745144479213439499
342112,3,9,-93,1296,-976,-8239,1745144479213439499
342304,4,6,-95,1279,-989,-8306,1745144479213439499
342496,1,-1,-96,1277,-973,-8318,1745144479213439499
342688,-5,-7,-96,1248,-943,-8313,1745144479270589497
342880,-8,-13,-93,1200,-906,-8289,1745144479270589497
343072,-7,-14,-89,1151,-886,-8279,1745144479270589497
343264,-3,-11,-84,1118,-864,-8293,1745144479270589497
343456,4,-7,-82,1142,-875,-8294,1745144479270589497
343648,12,-3,-78,1172,-908,-8285,1745144479270589497
343840,21,2,-73,1226,-937,-8309,1745144479270589497
344032,26,8,-67,1282,-946,-8330,1745144479270589497
344224,30,13,-62,1312,-957,-8360,1745144479270589497
344416,33,12,-61,1324,-929,-8319,1745144479270589497
344608,36,4,-65,1309,-946,-8260,1745144479270589497
344800,39,-6,-73,1276,-967,-8229,1745144479270589497
344992,43,-16,-81,1235,-997,-8183,1745144479330517283
345184,46,-20,-89,1205,-1047,-8139,1745144479330517283
345376,44,-22,-95,1202,-1098,-8098,1745144479330517283
345568,38,-21,-97,1197,-1132,-8043,1745144479330517283
345760,30,-21,-97,1236,-1185,-8008,1745144479330517283
345952,20,-23,-95,1263,-1236,-8046,1745144479330517283
346144,11,-25,-92,1278,-1250,-8057,1745144479330517283
346336,5,-27,-88,1260,-1218,-8086,1745144479330517283
346528,2,-30,-85,1229,-1170,-8129,1745144479330517283
346720,-1,-30,-79,1206,-1127,-8125,1745144479330517283
346912,-2,-28,-71,1200,-1091,-8129,1745144479330517283
347104,2,-28,-64,1183,-1087,-8112,1745144479330517283
347296,8,-29,-59,1200,-1104,-8083,1745144479387761135
347488,14,-30,-54,1222,-1146,-8056,1745144479387761135
347680,17,-32,-51,1224,-1190,-8071,1745144479387761135
347872,16,-34,-49,1227,-1203,-8069,1745144479387761135
348064,15,-39,-46,1215,-1210,-8047,1745144479387761135
348256,12,-42,-45,1197,-1210,-8057,1745144479387761135
348448,7,-45,-44,1178,-1205,-8056,1745144479387761135
348640,3,-44,-45,1158,-1208,-8051,1745144479387761135
348832,1,-42,-44,1147,-1190,-8063,1745144479387761135
349024,-2,-40,-44,1144,-1194,-8041,1745144479387761135
349216,-7,-40,-42,1156,-1222,-7993,1745144479387761135
349408,-14,-44,-41,1154,-1263,-7983,1745144479387761135
349600,-24,-46,-41,1135,-1294,-7978,1745144479447385487
349792,-33,-46,-40,1112,-1291,-7989,1745144479447385487
349984,-41,-43,-39,1097,-1253,-7977,1745144479447385487
350176,-52,-40,-39,1066,-1184,-7976,1745144479447385487
350368,-60,-35,-38,1086,-1145,-8001,1745144479447385487
350560,-60,-30,-36,1109,-1103,-7981,1745144479447385487
350752,-51,-27,-33,1119,-1064,-8016,1745144479447385487
350944,-40,-25,-33,1142,-1022,-8014,1745144479447385487
351136,-26,-26,-35,1161,-977,-7986,1745144479447385487
351328,-12,-29,-37,1150,-938,-7997,1745144479447385487
351520,2,-31,-41,1145,-944,-8037,1745144479447385487
351712,17,-32,-45,1117,-990,-8043,1745144479447385487
351904,36,-35,-47,1116,-1049,-8039,1745144479504524652
352096,52,-38,-48,1118,-1086,-8035,1745144479504524652
352288,58,-39,-48,1077,-1103,-8009,1745144479504524652
352480,51,-37,-47,1065,-1111,-7962,1745144479504524652
352672,40,-33,-45,1054,-1140,-7914,1745144479504524652
352864,31,-33,-41,1087,-1241,-7848,1745144479504524652
353056,22,-34,-39,1112,-1327,-7833,1745144479504524652
353248,11,-37,-37,1135,-1393,-7840,1745144479504524652
353440,-5,-36,-35,1127,-1405,-7882,1745144479504524652
353632,-24,-34,-33,1097,-1370,-7948,1745144479504524652
353824,-43,-29,-31,1070,-1304,-7967,1745144479504524652
354016,-57,-24,-27,1027,-1220,-7984,1745144479504524652
354208,-60,-17,-19,1018,-1137,-7968,1745144479564058431
354400,-51,-11,-10,1021,-1078,-7949,1745144479564058431
354592,-37,-7,-3,1058,-1018,-7947,1745144479564058431
354784,-23,-3,1,1075,-965,-7984,1745144479564058431
354976,-10,0,4,1099,-930,-7998,1745144479564058431
355168,5,0,6,1110,-924,-7988,1745144479564058431
355360,18,-4,7,1129,-927,-7969,1745144479564058431
355552,29,-9,5,1122,-933,-7945,1745144479564058431
355744,36,-13,2,1114,-959,-7934,1745144479564058431
355936,39,-14,-2,1105,-1008,-7957,1745144479564058431
356128,35,-12,-7,1099,-1045,-7956,1745144479564058431
356320,27,-12,-13,1078,-1057,-7961,1745144479564058431
356512,17,-13,-16,1065,-1062,-7953,1745144479621165410
356704,8,-16,-18,1046,-1086,-7924,1745144479621165410
356896,4,-19,-20,1014,-1098,-7914,1745144479621165410
357088,0,-19,-21,992,-1082,-7959,1745144479621165410
357280,-7,-16,-21,1001,-1050,-7986,1745144479621165410
357472,-13,-13,-20,1000,-997,-7976,1745144479621165410
357664,-15,-11,-16,1021,-966,-7971,1745144479621165410
357856,-14,-10,-12,1066,-947,-7960,1745144479621165410
358048,-8,-12,-6,1096,-927,-7942,1745144479621165410
358240,-1,-12,-1,1124,-935,-7949,1745144479621165410
358432,6,-12,1,1145,-929,-7930,1745144479621165410
358624,12,-15,-2,1130,-950,-7926,1745144479621165410
358816,15,-18,-7,1125,-951,-7921,1745144479680966269
359008,13,-22,-13,1082,-968,-7878,1745144479680966269
359200,8,-25,-18,1082,-999,-7856,1745144479680966269
359392,6,-25,-21,1026,-1051,-7835,1745144479680966269
359584,6,-26,-23,1009,-1049,-7816,1745144479680966269
359776,2,-22,-22,979,-1032,-7815,1745144479680966269
359968,-4,-16,-22,982,-1003,-7824,1745144479680966269
360160,-7,-9,-19,997,-995,-7823,1745144479680966269
360352,-2,-3,-14,1038,-1009,-7846,1745144479680966269
360544,8,-1,-10,1063,-1011,-7858,1745144479680966269
360736,18,0,-6,1098,-1010,-7873,1745144479680966269
360928,25,-1,-3,1103,-979,-7871,1745144479680966269
361120,30,-2,-1,1100,-969,-7844,1745144479742589925
361312,35,-3,1,1073,-960,-7853,1745144479742589925
361504,41,-3,3,1020,-969,-7844,1745144479742589925
361696,48,-1,4,1008,-967,-7832,1745144479742589925
361888,49,3,4,993,-958,-7823,1745144479742589925
362080,46,9,4,984,-957,-7850,1745144479742589925
362272,44,14,6,989,-964,-7841,1745144479742589925
362464,43,16,3,995,-960,-7840,1745144479742589925
362656,39,19,0,988,-943,-7857,1745144479742589925
362848,34,22,-6,1031,-941,-7837,1745144479742589925
363040,33,23,-13,1041,-958,-7840,1745144479742589925
363232,32,22,-21,1055,-946,-7825,1745144479742589925
363424,29,17,-29,1081,-975,-7798,1745144479796115322
363616,23,12,-36,1054,-1020,-7812,1745144479796115322
363808,19,10,-41,1041,-1036,-7835,1745144479796115322
364000,19,11,-42,1003,-1026,-7867,1745144479796115322
364192,19,16,-41,985,-968,-7924,1745144479796115322
364384,18,20,-39,957,-910,-7956,1745144479796115322
364576,20,24,-35,947,-858,-7934,1745144479796115322
364768,30,28,-29,957,-856,-7933,1745144479796115322
364960,45,33,-22,998,-890,-7930,1745144479796115322
365152,63,40,-17,1036,-932,-7944,1745144479796115322
365344,76,45,-13,1082,-961,-7982,1745144479796115322
365536,84,48,-13,1107,-970,-8000,1745144479796115322
365728,87,47,-12,1117,-998,-7995,1745144479856595446
365920,88,46,-14,1116,-1013,-8009,1745144479856595446
366112,90,46,-16,1074,-1028,-8005,1745144479856595446
366304,94,47,-20,1043,-1037,-8038,1745144479856595446
366496,99,47,-26,1014,-1020,-8058,1745144479856595446
366688,102,48,-31,983,-987,-8059,1745144479856595446
366880,105,49,-35,980,-977,-8060,1745144479856595446
367072,108,50,-33,984,-994,-8035,1745144479856595446
367264,114,51,-30,1008,-1039,-8006,1745144479856595446
367456,122,51,-26,1053,-1090,-7986,1745144479856595446
367648,128,52,-24,1102,-1122,-7993,1745144479856595446
367840,128,50,-23,1138,-1129,-7993,1745144479856595446
368032,126,47,-23,1128,-1136,-8031,1745144479913679769
368224,122,44,-25,1108,-1113,-8065,1745144479913679769
368416,122,41,-27,1081,-1109,-8075,1745144479913679769
368608,124,40,-27,1090,-1118,-8116,1745144479913679769
368800,127,40,-28,1097,-1108,-8145,1745144479913679769
368992,131,43,-27,1113,-1117,-8176,1745144479913679769
369184,133,43,-27,1140,-1125,-8150,1745144479913679769
369376,134,42,-28,1166,-1162,-8128,1745144479913679769
369568,135,38,-29,1175,-1208,-8123,1745144479913679769
369760,134,34,-32,1146,-1227,-8107,1745144479913679769
369952,129,31,-37,1155,-1263,-8094,1745144479913679769
370144,120,23,-41,1140,-1270,-8058,1745144479913679769
370336,106,19,-45,1110,-1308,-8033,1745144479973607607
370528,98,14,-45,1095,-1331,-8041,1745144479973607607
370720,91,11,-41,1094,-1351,-8039,1745144479973607607
370912,83,11,-37,1086,-1336,-8045,1745144479973607607
371104,69,11,-33,1081,-1309,-8051,1745144479973607607
371296,55,12,-31,1068,-1294,-8056,1745144479973607607
371488,41,12,-27,1091,-1306,-8035,1745144479973607607
371680,33,12,-24,1113,-1353,-8040,1745144479973607607
371872,30,11,-20,1148,-1365,-8058,1745144479973607607
372064,25,11,-17,1169,-1391,-8049,1745144479973607607
372256,16,11,-17,1197,-1376,-8074,1745144479973607607
372448,8,10,-17,1200,-1377,-8063,1745144479973607607
372640,4,8,-19,1182,-1360,-8036,1745144480037208588
372832,3,6,-20,1153,-1318,-8041,1745144480037208588
373024,5,4,-22,1117,-1273,-8034,1745144480037208588
373216,11,3,-22,1100,-1238,-8001,1745144480037208588
373408,18,3,-21,1090,-1242,-7975,1745144480037208588
373600,23,4,-17,1097,-1264,-7982,1745144480037208588
373792,27,5,-12,1104,-1296,-7946,1745144480037208588
373984,32,6,-8,1120,-1325,-7953,1745144480037208588
374176,34,8,-4,1114,-1333,-8004,1745144480037208588
374368,33,10,-3,1109,-1337,-8023,1745144480037208588
374560,32,11,-1,1098,-1327,-8029,1745144480037208588
374752,32,12,0,1078,-1294,-8036,1745144480037208588
374944,31,15,0,1091,-1279,-8019,1745144480088540828
375136,32,19,2,1117,-1247,-8027,1745144480088540828
375328,36,21,2,1149,-1241,-8014,1745144480088540828
375520,39,21,-1,1170,-1235,-8000,1745144480088540828
375712,42,17,-2,1203,-1259,-7997,1745144480088540828
375904,41,10,-5,1213,-1284,-7981,1745144480088540828
376096,36,1,-8,1214,-1310,-7968,1745144480088540828
376288,29,-5,-10,1163,-1323,-7964,1745144480088540828
376480,21,-11,-11,1121,-1327,-7981,1745144480088540828
376672,11,-11,-11,1085,-1338,-7965,1745144480088540828
376864,2,-9,-9,1073,-1319,-7967,1745144480088540828
377056,-4,-5,-5,1058,-1316,-7971,1745144480088540828
377248,-7,-3,-2,1076,-1302,-7977,1745144480148938140
377440,-9,-1,0,1102,-1314,-7974,1745144480148938140
377632,-9,-1,0,1119,-1301,-7981,1745144480148938140
377824,-7,-2,1,1131,-1287,-7989,1745144480148938140
378016,-3,-1,3,1154,-1245,-7982,1745144480148938140
378208,0,1,5,1173,-1190,-7980,1745144480148938140
378400,3,2,4,1169,-1160,-7979,1745144480148938140
378592,9,1,5,1175,-1113,-7951,1745144480148938140
378784,18,-1,3,1168,-1102,-7932,1745144480148938140
378976,26,-5,1,1169,-1122,-7901,1745144480148938140
379168,32,-8,-4,1176,-1145,-7903,1745144480148938140
379360,37,-11,-8,1154,-1194,-7903,1745144480148938140
379552,37,-13,-12,1137,-1260,-7926,1745144480212141209
379744,33,-15,-16,1099,-1294,-7936,1745144480212141209
379936,26,-16,-18,1071,-1301,-7930,1745144480212141209
380128,18,-12,-18,1041,-1286,-7929,1745144480212141209
380320,12,-5,-16,1048,-1274,-7945,1745144480212141209
380512,10,3,-12,1052,-1249,-7933,1745144480212141209
380704,12,6,-9,1086,-1226,-7919,1745144480212141209
380896,16,7,-4,1133,-1234,-7909,1745144480212141209
381088,21,7,0,1157,-1227,-7925,1745144480212141209
381280,25,6,3,1164,-1204,-7947,1745144480212141209
381472,31,6,6,1179,-1200,-7959,1745144480212141209
381664,37,5,7,1167,-1176,-7963,1745144480212141209
381856,43,4,7,1164,-1174,-7947,1745144480269454644
382048,46,5,5,1170,-1174,-7915,1745144480269454644
382240,49,3,2,1174,-1203,-7883,1745144480269454644
382432,49,2,-1,1174,-1267,-7873,1745144480269454644
382624,45,-1,-4,1178,-1295,-7868,1745144480269454644
382816,38,-1,-8,1161,-1313,-7878,1745144480269454644
383008,25,0,-12,1137,-1300,-7911,1745144480269454644
383200,14,-1,-13,1116,-1276,-7891,1745144480269454644
383392,10,-3,-15,1094,-1249,-7917,1745144480269454644
383584,10,-4,-16,1066,-1214,-7910,1745144480269454644
383776,12,-1,-18,1066,-1190,-7918,1745144480269454644
383968,14,1,-18,1072,-1179,-7891,1745144480269454644
384160,21,1,-19,1092,-1201,-7899,1745144480329149098
384352,28,2,-17,1119,-1231,-7894,1745144480329149098
384544,34,1,-16,1141,-1270,-7882,1745144480329149098
384736,36,-1,-17,1140,-1312,-7874,1745144480329149098
384928,35,-2,-18,1133,-1305,-7859,1745144480329149098
385120,30,0,-19,1131,-1314,-7878,1745144480329149098
385312,24,2,-20,1121,-1307,-7881,1745144480329149098
385504,18,4,-22,1114,-1309,-7859,1745144480329149098
385696,12,3,-23,1120,-1319,-7851,1745144480329149098
385888,8,1,-25,1109,-1334,-7855,1745144480329149098
386080,3,-2,-28,1101,-1331,-7841,1745144480329149098
386272,-4,-2,-30,1087,-1351,-7804,1745144480329149098
386464,-11,-1,-29,1066,-1364,-7814,1745144480386527012
386656,-16,-1,-28,1082,-1377,-7837,1745144480386527012
386848,-18,1,-25,1072,-1377,-7860,1745144480386527012
387040,-16,6,-22,1068,-1355,-7890,1745144480386527012
387232,-16,12,-16,1108,-1315,-7927,1745144480386527012
387424,-17,14,-12,1136,-1310,-7919,1745144480386527012
387616,-15,14,-8,1148,-1317,-7917,1745144480386527012
387808,-9,14,-4,1147,-1305,-7935,1745144480386527012
388000,-4,14,-1,1142,-1307,-7962,1745144480386527012
388192,0,15,-2,1111,-1298,-7959,1745144480386527012
388384,0,17,-1,1089,-1284,-7957,1745144480386527012
388576,-1,19,0,1072,-1273,-7950,1745144480386527012
388768,0,22,2,1057,-1276,-7928,1745144480446118967
388960,5,25,4,1045,-1273,-7928,1745144480446118967
389152,11,29,4,1056,-1237,-7947,1745144480446118967
389344,15,32,2,1072,-1230,-7942,1745144480446118967
389536,18,34,-1,1144,-1230,-7941,1745144480446118967
389728,21,32,-5,1171,-1232,-7907,1745144480446118967
389920,24,29,-7,1185,-1239,-7885,1745144480446118967
390112,26,24,-11,1197,-1277,-7899,1745144480446118967
390304,26,18,-16,1166,-1312,-7894,1745144480446118967
390496,26,13,-21,1147,-1358,-7904,1745144480446118967
390688,21,12,-26,1120,-1389,-7921,1745144480446118967
390880,10,14,-28,1105,-1421,-7940,1745144480446118967
391072,1,14,-27,1070,-1446,-7955,1745144480503125217
391264,-5,15,-24,1052,-1440,-7977,1745144480503125217
391456,-8,21,-19,1031,-1392,-8017,1745144480503125217
391648,-9,28,-15,1046,-1339,-8042,1745144480503125217
391840,-7,34,-9,1050,-1299,-8028,1745144480503125217
392032,1,37,-2,1104,-1262,-8012,1745144480503125217
392224,14,37,3,1155,-1245,-7978,1745144480503125217
392416,25,35,6,1213,-1256,-7964,1745144480503125217
392608,35,32,8,1243,-1277,-7964,1745144480503125217
392800,42,28,5,1267,-1325,-7985,1745144480503125217
392992,46,22,2,1234,-1350,-8001,1745144480503125217
393184,47,17,-2,1197,-1367,-8014,1745144480503125217
393376,45,13,-5,1160,-1348,-8002,1745144480563040139
393568,42,13,-7,1118,-1331,-7989,1745144480563040139
393760,37,14,-6,1090,-1332,-7956,1745144480563040139
393952,32,16,-6,1090,-1349,-7936,1745144480563040139
394144,30,17,-6,1105,-1384,-7938,1745144480563040139
394336,29,18,-6,1150,-1412,-7954,1745144480563040139
394528,28,16,-5,1160,-1406,-7977,1745144480563040139
394720,24,13,-6,1176,-1382,-8001,1745144480563040139
394912,14,12,-6,1177,-1357,-7963,1745144480563040139
395104,5,10,-8,1165,-1374,-7939,1745144480563040139
395296,-1,7,-10,1169,-1389,-7934,1745144480563040139
395488,1,4,-10,1156,-1404,-7950,1745144480563040139
395680,3,5,-11,1118,-1394,-7961,1745144480620266856
395872,0,9,-10,1103,-1361,-8004,1745144480620266856
396064,-6,13,-8,1099,-1312,-8034,1745144480620266856
396256,-8,18,-4,1096,-1292,-8042,1745144480620266856
396448,-2,20,0,1122,-1271,-8040,1745144480620266856
396640,11,21,2,1127,-1283,-8038,1745144480620266856
396832,25,22,3,1137,-1273,-8025,1745144480620266856
397024,37,23,2,1149,-1260,-8025,1745144480620266856
397216,43,22,0,1183,-1264,-8020,1745144480620266856
397408,48,20,-3,1195,-1275,-7999,1745144480620266856
397600,52,16,-5,1194,-1288,-7965,1745144480620266856
397792,56,11,-7,1197,-1318,-7927,1745144480620266856
397984,56,6,-12,1157,-1343,-7949,1745144480679999695
398176,53,0,-17,1152,-1365,-7943,1745144480679999695
398368,47,-6,-22,1114,-1396,-7929,1745144480679999695
398560,39,-7,-26,1090,-1410,-7954,1745144480679999695
398752,29,-3,-27,1095,-1412,-7967,1745144480679999695
398944,18,0,-25,1112,-1413,-7980,1745144480679999695
399136,10,2,-22,1123,-1414,-7978,1745144480679999695
399328,5,2,-20,1154,-1419,-7983,1745144480679999695
399520,3,2,-19,1175,-1411,-7993,1745144480679999695
399712,3,0,-21,1186,-1388,-7991,1745144480679999695
399904,3,-3,-25,1179,-1384,-7970,1745144480679999695
400096,2,-9,-28,1173,-1390,-7944,1745144480679999695
400288,3,-12,-29,1150,-1416,-7908,1745144480737349640
400480,6,-13,-27,1115,-1398,-7883,1745144480737349640
400672,6,-11,-25,1098,-1400,-7888,1745144480737349640
400864,2,-9,-24,1087,-1382,-7899,1745144480737349640
401056,-2,-6,-24,1106,-1404,-7889,1745144480737349640
401248,-2,-4,-21,1131,-1418,-7890,1745144480737349640
401440,0,-2,-16,1147,-1461,-7897,1745144480737349640
401632,-1,0,-13,1177,-1467,-7885,1745144480737349640
401824,-5,2,-11,1187,-1485,-7893,1745144480737349640
402016,-11,3,-8,1199,-1480,-7877,1745144480737349640
402208,-13,4,-6,1184,-1461,-7865,1745144480737349640
402400,-12,4,-4,1160,-1463,-7852,1745144480737349640
402592,-13,0,-5,1153,-1478,-7826,1745144480795073123
402784,-16,-3,-6,1127,-1503,-7828,1745144480795073123
402976,-22,-1,-6,1101,-1512,-7813,1745144480795073123
403168,-29,3,-5,1073,-1518,-7848,1745144480795073123
403360,-36,10,-2,1061,-1482,-7884,1745144480795073123
403552,-40,15,0,1059,-1428,-7890,1745144480795073123
403744,-39,18,3,1068,-1375,-7906,1745144480795073123
403936,-35,23,6,1093,-1325,-7905,1745144480795073123
404128,-27,27,8,1144,-1287,-7920,1745144480795073123
404320,-14,29,10,1176,-1279,-7913,1745144480795073123
404512,3,25,8,1194,-1283,-7903,1745144480795073123
404704,19,21,6,1200,-1284,-7911,1745144480795073123
404896,31,16,3,1201,-1302,-7906,1745144480855352729
405088,37,13,0,1180,-1332,-7875,1745144480855352729
405280,39,9,-2,1182,-1387,-7852,1745144480855352729
405472,38,6,-4,1162,-1425,-7859,1745144480855352729
405664,33,3,-7,1138,-1465,-7865,1745144480855352729
405856,23,2,-9,1106,-1475,-7912,1745144480855352729
406048,10,3,-11,1070,-1479,-7901,1745144480855352729
406240,-3,6,-9,1058,-1458,-7866,1745144480855352729
406432,-14,13,-4,1077,-1443,-7880,1745144480855352729
406624,-20,19,3,1107,-1460,-7890,1745144480855352729
406816,-19,24,9,1155,-1436,-7921,1745144480855352729
407008,-17,24,12,1176,-1412,-7921,1745144480855352729
407200,-17,23,14,1194,-1387,-7926,1745144480912399708
407392,-15,24,16,1184,-1364,-7918,1745144480912399708
407584,-9,27,19,1181,-1342,-7941,1745144480912399708
407776,0,28,21,1170,-1311,-7934,1745144480912399708
407968,9,28,21,1160,-1295,-7925,1745144480912399708
408160,17,27,21,1150,-1320,-7930,1745144480912399708
408352,19,30,21,1165,-1336,-7907,1745144480912399708
408544,20,33,20,1174,-1349,-7914,1745144480912399708
408736,19,35,17,1186,-1346,-7930,1745144480912399708
408928,17,32,15,1162,-1353,-7949,1745144480912399708
409120,17,30,11,1143,-1330,-7960,1745144480912399708
409312,17,30,7,1121,-1301,-7994,1745144480912399708
409504,17,32,4,1135,-1294,-7997,1745144480972710719
409696,20,33,3,1128,-1276,-7990,1745144480972710719
409888,24,32,3,1196,-1288,-8006,1745144480972710719
410080,31,31,5,1232,-1327,-8000,1745144480972710719
410272,37,27,7,1262,-1339,-7983,1745144480972710719
410464,38,23,6,1285,-1359,-7988,1745144480972710719
410656,34,16,4,1251,-1374,-7971,1745144480972710719
410848,29,10,2,1233,-1405,-7968,1745144480972710719
411040,22,5,0,1193,-1422,-7943,1745144480972710719
411232,15,4,0,1162,-1455,-7946,1745144480972710719
411424,5,6,-1,1150,-1478,-7949,1745144480972710719
411616,-4,9,-2,1138,-1479,-7969,1745144480972710719
411808,-13,12,0,1152,-1465,-7972,1745144481029905718
412000,-20,14,1,1161,-1423,-7981,1745144481029905718
412192,-22,18,4,1165,-1364,-7990,1745144481029905718
412384,-18,21,7,1198,-1326,-7977,1745144481029905718
412576,-10,22,8,1225,-1309,-7987,1745144481029905718
412768,2,20,9,1253,-1318,-7983,1745144481029905718
412960,17,16,8,1254,-1327,-7992,1745144481029905718
413152,29,12,5,1226,-1339,-8035,1745144481029905718
413344,37,10,2,1207,-1351,-8037,1745144481029905718
413536,41,10,-1,1183,-1355,-8005,1745144481029905718
413728,43,11,0,1187,-1402,-7995,1745144481029905718
413920,46,12,3,1190,-1427,-7981,1745144481029905718
414112,47,11,4,1182,-1441,-7995,1745144481089346529
414304,44,10,4,1181,-1439,-8000,1745144481089346529
414496,41,9,3,1179,-1416,-8007,1745144481089346529
414688,36,10,3,1169,-1406,-8013,1745144481089346529
414880,32,11,3,1175,-1402,-8006,1745144481089346529
415072,28,10,3,1199,-1420,-7990,1745144481089346529
415264,26,7,3,1225,-1464,-7973,1745144481089346529
415456,26,3,1,1232,-1497,-7974,1745144481089346529
415648,20,0,0,1230,-1494,-7995,1745144481089346529
415840,11,0,-1,1210,-1480,-7988,1745144481089346529
416032,0,0,-1,1162,-1432,-7990,1745144481089346529
416224,-6,2,0,1162,-1394,-8006,1745144481089346529
416416,-5,4,3,1167,-1363,-7985,1745144481146683349
416608,-1,5,5,1200,-1347,-7971,1745144481146683349
416800,2,5,6,1226,-1351,-7965,1745144481146683349
416992,5,3,4,1274,-1354,-7942,1745144481146683349
417184,6,-1,1,1282,-1417,-7929,1745144481146683349
417376,8,-7,-1,1271,-1445,-7931,1745144481146683349
417568,9,-11,-3,1233,-1449,-7933,1745144481146683349
417760,7,-11,-3,1182,-1436,-7939,1745144481146683349
417952,4,-11,-4,1138,-1400,-7945,1745144481146683349
418144,3,-9,-4,1107,-1382,-7923,1745144481146683349
418336,6,-6,-2,1100,-1383,-7936,1745144481146683349
418528,10,-3,0,1117,-1400,-7926,1745144481146683349
418720,15,1,3,1152,-1433,-7928,1745144481206354418
418912,15,3,6,1192,-1437,-7921,1745144481206354418
419104,12,3,7,1210,-1441,-7924,1745144481206354418
419296,9,1,7,1221,-1433,-7914,1745144481206354418
419488,7,-1,5,1201,-1429,-7911,1745144481206354418
419680,5,-2,4,1178,-1405,-7916,1745144481206354418
419872,4,-4,1,1161,-1366,-7910,1745144481206354418
420064,5,-4,-2,1145,-1326,-7890,1745144481206354418
420256,5,-5,-3,1148,-1327,-7887,1745144481206354418
420448,4,-4,-5,1145,-1327,-7895,1745144481206354418
420640,5,-3,-7,1165,-1334,-7909,1745144481206354418
420832,6,-4,-9,1185,-1362,-7906,1745144481206354418
421024,7,-6,-11,1195,-1371,-7902,1745144481263696082
421216,7,-7,-13,1206,-1399,-7912,1745144481263696082
421408,7,-8,-16,1214,-1418,-7922,1745144481263696082
421600,7,-11,-19,1196,-1420,-7921,1745144481263696082
421792,6,-13,-22,1164,-1418,-7925,1745144481263696082
421984,4,-13,-25,1135,-1409,-7911,1745144481263696082
422176,3,-11,-25,1156,-1429,-7899,1745144481263696082
422368,4,-8,-22,1151,-1450,-7896,1745144481263696082
422560,5,-7,-18,1166,-1478,-7880,1745144481263696082
422752,4,-4,-14,1189,-1487,-7884,1745144481263696082
422944,0,-3,-10,1190,-1492,-7859,1745144481263696082
423136,-6,-3,-7,1197,-1485,-7853,1745144481263696082
423328,-10,-3,-7,1174,-1488,-7865,1745144481323160695
423520,-10,-4,-7,1162,-1503,-7871,1745144481323160695
423712,-7,-6,-8,1145,-1495,-7886,1745144481323160695
423904,-4,-5,-8,1130,-1470,-7911,1745144481323160695
424096,-3,1,-7,1108,-1452,-7938,1745144481323160695
424288,-1,8,-3,1121,-1391,-7948,1745144481323160695
424480,5,11,1,1146,-1364,-7942,1745144481323160695
424672,17,12,4,1175,-1364,-7914,1745144481323160695
424864,30,10,5,1200,-1371,-7898,1745144481323160695
425056,39,9,4,1242,-1404,-7878,1745144481323160695
425248,46,5,2,1263,-1456,-7867,1745144481323160695
425440,50,0,-2,1257,-1488,-7867,1745144481323160695
425632,49,-5,-5,1206,-1505,-7855,1745144481380281475
425824,44,-8,-8,1167,-1514,-7873,1745144481380281475
426016,35,-9,-10,1120,-1507,-7887,1745144481380281475
426208,26,-7,-10,1085,-1508,-7883,1745144481380281475
426400,18,-3,-8,1086,-1516,-7884,1745144481380281475
426592,11,1,-7,1095,-1527,-7874,1745144481380281475
426784,4,2,-5,1121,-1517,-7870,1745144481380281475
426976,-1,4,-3,1133,-1533,-7872,1745144481380281475
427168,-5,7,-3,1139,-1522,-7872,1745144481380281475
427360,-7,10,-3,1137,-1480,-7897,1745144481380281475
427552,-6,13,-5,1148,-1454,-7916,1745144481380281475
427744,-4,15,-6,1145,-1439,-7927,1745144481380281475
427936,1,16,-6,1169,-1419,-7914,1745144481440248948
428128,7,16,-5,1173,-1410,-7919,1745144481440248948
428320,13,16,-6,1192,-1410,-7906,1745144481440248948
428512,18,14,-9,1239,-1439,-7893,1745144481440248948
428704,23,10,-11,1229,-1483,-7885,1745144481440248948
428896,26,6,-14,1217,-1530,-7886,1745144481440248948
429088,26,3,-16,1216,-1554,-7893,1745144481440248948
429280,20,0,-17,1181,-1549,-7908,1745144481440248948
429472,13,0,-15,1142,-1534,-7916,1745144481440248948
429664,6,0,-12,1124,-1541,-7893,1745144481440248948
429856,0,1,-10,1130,-1541,-7918,1745144481440248948
430048,-3,3,-8,1123,-1546,-7935,1745144481440248948
430240,-3,5,-6,1141,-1560,-7958,1745144481497324156
430432,-1,7,-3,1148,-1540,-7993,1745144481497324156
430624,3,8,0,1173,-1530,-7988,1745144481497324156
430816,7,10,5,1198,-1504,-7990,1745144481497324156
431008,14,11,9,1213,-1477,-7973,1745144481497324156
431200,22,11,11,1204,-1480,-7948,1745144481497324156
431392,30,9,10,1224,-1475,-7937,1745144481497324156
431584,35,5,8,1209,-1508,-7916,1745144481497324156
431776,37,0,5,1199,-1534,-7907,1745144481497324156
431968,34,-3,2,1168,-1584,-7938,1745144481497324156
432160,28,-3,1,1153,-1601,-7945,1745144481497324156
432352,17,0,0,1136,-1600,-7944,1745144481497324156
432544,3,2,0,1136,-1590,-7920,1745144481557031788
432736,-11,2,2,1140,-1561,-7901,1745144481557031788
432928,-22,2,2,1161,-1558,-7878,1745144481557031788
433120,-29,1,2,1167,-1543,-7845,1745144481557031788
433312,-31,-3,2,1183,-1531,-7840,1745144481557031788
433504,-33,-5,1,1175,-1518,-7855,1745144481557031788
433696,-36,-5,1,1161,-1467,-7870,1745144481557031788
433888,-35,-5,0,1148,-1431,-7884,1745144481557031788
434080,-31,-2,1,1132,-1398,-7901,1745144481557031788
434272,-23,0,2,1136,-1390,-7911,1745144481557031788
434464,-13,3,3,1167,-1389,-7903,1745144481557031788
434656,-4,4,2,1178,-1421,-7904,1745144481557031788
434848,4,3,0,1191,-1466,-7901,1745144481613700437
435040,9,2,-2,1183,-1490,-7907,1745144481613700437
435232,11,3,-3,1154,-1482,-7939,1745144481613700437
435424,10,3,-3,1131,-1459,-7935,1745144481613700437
435616,6,4,-3,1115,-1476,-7921,1745144481613700437
435808,5,5,-2,1123,-1484,-7905,1745144481613700437
436000,4,5,0,1155,-1517,-7896,1745144481613700437
436192,2,7,1,1171,-1541,-7890,1745144481613700437
436384,-4,7,3,1202,-1537,-7896,1745144481613700437
436576,-12,6,3,1194,-1526,-7914,1745144481613700437
436768,-19,3,3,1179,-1503,-7902,1745144481613700437
436960,-24,1,3,1170,-1475,-7885,1745144481613700437
437152,-24,-1,3,1142,-1449,-7904,1745144481673852908
437344,-19,-1,3,1112,-1432,-7925,1745144481673852908
437536,-11,0,3,1093,-1382,-7954,1745144481673852908
437728,-3,1,3,1087,-1363,-7956,1745144481673852908
437920,5,5,5,1094,-1337,-7935,1745144481673852908
438112,15,7,7,1121,-1342,-7921,1745144481673852908
438304,27,7,9,1164,-1384,-7900,1745144481673852908
438496,37,7,10,1199,-1446,-7910,1745144481673852908
438688,41,6,7,1220,-1459,-7914,1745144481673852908
438880,38,3,2,1211,-1484,-7915,1745144481673852908
439072,30,2,-2,1175,-1506,-7912,1745144481673852908
439264,24,1,-5,1130,-1507,-7882,1745144481673852908
439456,18,1,-5,1111,-1488,-7900,1745144481730720566
439648,13,3,-5,1103,-1450,-7913,1745144481730720566
439840,9,6,-6,1095,-1419,-7927,1745144481730720566
440032,8,8,-6,1112,-1403,-7905,1745144481730720566
440224,9,9,-8,1156,-1391,-7926,1745144481730720566
440416,14,6,-8,1175,-1404,-7921,1745144481730720566
440608,20,2,-8,1194,-1394,-7928,1745144481730720566
440800,26,-1,-10,1202,-1411,-7939,1745144481730720566
440992,31,-3,-13,1189,-1406,-7960,1745144481730720566
441184,34,-5,-18,1192,-1398,-7959,1745144481730720566
441376,31,-9,-22,1211,-1433,-7910,1745144481730720566
441568,27,-14,-25,1206,-1494,-7870,1745144481730720566
441760,23,-18,-25,1193,-1539,-7858,1745144481790668091
441952,16,-20,-25,1164,-1532,-7869,1745144481790668091
442144,5,-19,-24,1141,-1522,-7901,1745144481790668091
442336,-6,-17,-24,1093,-1490,-7915,1745144481790668091
442528,-13,-16,-23,1072,-1442,-7906,1745144481790668091
442720,-13,-12,-21,1055,-1418,-7876,1745144481790668091
442912,-11,-9,-18,1059,-1406,-7865,1745144481790668091
443104,-10,-7,-16,1094,-1414,-7854,1745144481790668091
443296,-6,-6,-15,1118,-1431,-7853,1745144481790668091
443488,0,-3,-15,1129,-1424,-7864,1745144481790668091
443680,4,0,-17,1139,-1407,-7872,1745144481790668091
443872,6,2,-18,1149,-1386,-7846,1745144481790668091
444064,6,0,-20,1134,-1330,-7820,1745144481847871579
444256,6,-2,-23,1122,-1309,-7774,1745144481847871579
444448,4,-4,-27,1104,-1295,-7757,1745144481847871579
444640,1,-5,-33,1090,-1304,-7758,1745144481847871579
444832,-6,-6,-40,1084,-1312,-7748,1745144481847871579
445024,-16,-6,-47,1090,-1314,-7722,1745144481847871579
445216,-30,-8,-52,1083,-1290,-7688,1745144481847871579
445408,-46,-7,-57,1054,-1256,-7673,1745144481847871579
445600,-63,-4,-64,1037,-1190,-7702,1745144481847871579
445792,-78,1,-70,1014,-1112,-7710,1745144481847871579
445984,-86,8,-74,1015,-986,-7728,1745144481847871579
446176,-91,18,-73,1016,-829,-7773,1745144481847871579
446368,-89,29,-70,1002,-605,-7827,1745144481907688845
446560,-82,41,-65,1013,-342,-7937,1745144481907688845
446752,-71,54,-62,1039,-10,-8073,1745144481907688845
446944,-56,67,-63,1067,397,-8168,1745144481907688845
447136,-46,80,-67,1146,848,-8229,1745144481907688845
447328,-45,86,-80,1255,1270,-8281,1745144481907688845
447520,-51,75,-107,1368,1672,-8380,1745144481907688845
447712,-61,46,-152,1444,2106,-8584,1745144481907688845
447904,-79,4,-219,1410,2577,-8751,1745144481907688845
448096,-111,-54,-301,1378,3124,-8744,1745144481907688845
448288,-168,-128,-400,1306,3641,-8496,1745144481907688845
448480,-248,-216,-526,1224,4143,-8492,1745144481907688845
448672,-356,-309,-682,1084,4591,-8705,1745144481964774365
448864,-478,-397,-862,937,5018,-8913,1745144481964774365
449056,-592,-482,-1065,838,5416,-8934,1745144481964774365
449248,-685,-565,-1289,795,5826,-8880,1745144481964774365
449440,-764,-638,-1527,831,6269,-8807,1745144481964774365
449632,-836,-700,-1765,918,6728,-8634,1745144481964774365
449824,-906,-751,-1996,1030,7258,-8432,1745144481964774365
450016,-977,-785,-2227,1223,7780,-8499,1745144481964774365
450208,-1044,-787,-2460,1423,8322,-8537,1745144481964774365
450400,-1085,-798,-2677,1750,8682,-8375,1745144481964774365
450592,-1080,-823,-2887,2236,8832,-8306,1745144481964774365
450784,-1025,-849,-3096,2711,8903,-8200,1745144481964774365
450976,-930,-883,-3302,3158,8950,-8048,1745144482024620954
451168,-815,-921,-3489,3391,9032,-7689,1745144482024620954
451360,-692,-951,-3666,3688,9091,-7588,1745144482024620954
451552,-572,-941,-3846,3855,9074,-7312,1745144482024620954
451744,-453,-921,-4020,4069,8968,-7084,1745144482024620954
451936,-339,-899,-4186,4329,8704,-6827,1745144482024620954
452128,-231,-880,-4347,4622,8317,-6587,1745144482024620954
452320,-129,-865,-4499,4896,7917,-6398,1745144482024620954
452512,-31,-845,-4638,5097,7565,-6290,1745144482024620954
452704,55,-819,-4767,5255,7254,-6141,1745144482024620954
452896,123,-791,-4883,5361,6966,-5954,1745144482024620954
453088,172,-756,-4980,5415,6736,-5821,1745144482024620954
453280,206,-718,-5061,5422,6544,-5614,1745144482081658714
453472,224,-676,-5125,5434,6376,-5464,1745144482081658714
453664,237,-632,-5183,5474,6229,-5375,1745144482081658714
453856,235,-574,-5218,5626,6105,-5290,1745144482081658714
454048,227,-504,-5239,5846,5950,-5338,1745144482081658714
454240,214,-432,-5256,6133,5774,-5304,1745144482081658714
454432,209,-368,-5272,6358,5591,-5263,1745144482081658714
454624,232,-313,-5287,6518,5481,-5232,1745144482081658714
454816,286,-265,-5299,6576,5480,-5134,1745144482081658714
455008,361,-219,-5308,6599,5518,-5014,1745144482081658714
455200,442,-174,-5320,6635,5555,-4932,1745144482081658714
455392,519,-135,-5332,6737,5467,-4851,1745144482081658714
455584,587,-108,-5348,6896,5242,-4674,1745144482139753548
455776,650,-96,-5370,7048,4928,-4550,1745144482139753548
455968,711,-90,-5387,7151,4553,-4441,1745144482139753548
456160,767,-77,-5396,7203,4220,-4412,1745144482139753548
456352,807,-38,-5398,7265,3951,-4567,1745144482139753548
456544,825,30,-5395,7372,3727,-4724,1745144482139753548
456736,826,115,-5388,7544,3547,-4884,1745144482139753548
456928,828,212,-5372,7772,3453,-5162,1745144482139753548
457120,847,307,-5345,8040,3450,-5400,1745144482139753548
457312,893,404,-5314,8258,3520,-5734,1745144482139753548
457504,971,497,-5278,8491,3516,-5882,1745144482139753548
457696,1081,557,-5239,8807,3329,-5882,1745144482139753548
457888,1223,572,-5210,9110,2906,-5884,1745144482200179038
458080,1386,546,-5191,9292,2431,-5814,1745144482200179038
458272,1554,493,-5183,9341,1907,-5633,1745144482200179038
458464,1707,424,-5177,9320,1342,-5427,1745144482200179038
458656,1831,348,-5173,9231,777,-5272,1745144482200179038
458848,1914,263,-5170,9063,275,-4967,1745144482200179038
459040,1957,207,-5166,8984,-117,-4877,1745144482200179038
459232,1958,183,-5148,8952,-459,-5250,1745144482200179038
459424,1931,189,-5100,9040,-663,-5710,1745144482200179038
459616,1885,222,-5009,9315,-880,-6116,1745144482200179038
459808,1830,240,-4887,9748,-1158,-6408,1745144482200179038
460000,1771,234,-4764,10244,-1485,-6627,1745144482200179038
460192,1726,189,-4647,10645,-1867,-6799,1745144482258202206
460384,1707,114,-4535,10856,-2328,-6779,1745144482258202206
460576,1727,9,-4429,10879,-2874,-6739,1745144482258202206
460768,1771,-106,-4331,10728,-3382,-6854,1745144482258202206
460960,1804,-212,-4231,10447,-3921,-7016,1745144482258202206
461152,1798,-296,-4123,10072,-4303,-7039,1745144482258202206
461344,1727,-381,-3961,9686,-4774,-6593,1745144482258202206
461536,1612,-499,-3782,9612,-5692,-6601,1745144482258202206
461728,1493,-602,-3671,9305,-6390,-6356,1745144482258202206
461920,1371,-723,-3584,9114,-6875,-6483,1745144482258202206
462112,1210,-812,-3452,8932,-7234,-6810,1745144482258202206
462304,1058,-869,-3353,9122,-8217,-7426,1745144482258202206
462496,844,-898,-3302,8865,-8315,-7806,1745144482317006356
462688,661,-921,-3162,8809,-8674,-8098,1745144482317006356
462880,470,-944,-3036,8643,-8928,-8304,1745144482317006356
463072,297,-948,-2925,8440,-9112,-8464,1745144482317006356
463264,132,-954,-2818,8170,-9262,-8546,1745144482317006356
463456,-9,-951,-2712,7841,-9397,-8610,1745144482317006356
463648,-137,-953,-2595,7495,-9509,-8592,1745144482317006356
463840,-262,-960,-2468,7162,-9626,-8537,1745144482317006356
464032,-390,-969,-2341,6784,-9730,-8471,1745144482317006356
464224,-525,-974,-2223,6341,-9839,-8289,1745144482317006356
464416,-653,-970,-2121,5875,-9851,-8057,1745144482317006356
464608,-773,-966,-2038,5370,-9662,-7783,1745144482317006356
464800,-889,-956,-1963,4824,-9444,-7554,1745144482374902025
464992,-996,-932,-1890,4321,-9181,-7421,1745144482374902025
465184,-1080,-883,-1794,3927,-8946,-7491,1745144482374902025
465376,-1141,-802,-1657,3684,-8722,-7827,1745144482374902025
465568,-1184,-703,-1499,3606,-8570,-8303,1745144482374902025
465760,-1215,-617,-1345,3737,-8321,-8663,1745144482374902025
465952,-1211,-540,-1189,3864,-7893,-8864,1745144482374902025
466144,-1177,-467,-1034,4033,-7480,-8833,1745144482374902025
466336,-1121,-407,-901,4168,-7191,-8773,1745144482374902025
466528,-1057,-356,-799,4189,-6887,-8710,1745144482374902025
466720,-987,-313,-720,4079,-6574,-8640,1745144482374902025
466912,-925,-277,-657,3857,-6255,-8485,1745144482374902025
467104,-884,-247,-596,3577,-5935,-8288,1745144482434410440
467296,-865,-237,-535,3332,-5631,-8097,1745144482434410440
467488,-856,-244,-483,2881,-5393,-7575,1745144482434410440
467680,-830,-347,-441,2527,-5184,-7043,1745144482434410440
467872,-818,-432,-408,2809,-4581,-8606,1745144482434410440
468064,-884,-227,-308,1971,-4105,-7911,1745144482434410440
468256,-912,-114,-196,1658,-3879,-7604,1745144482434410440
468448,-915,-84,-130,1491,-3635,-7716,1745144482434410440
468640,-883,-57,-62,1458,-3185,-8103,1745144482434410440
468832,-846,-5,58,1475,-2935,-8170,1745144482434410440
469024,-797,74,196,1547,-2784,-8171,1745144482434410440
469216,-758,145,307,1691,-2674,-8215,1745144482434410440
469408,-688,202,393,1887,-2500,-8377,1745144482492620168
469600,-610,253,459,2129,-2300,-8463,1745144482492620168
469792,-527,293,505,2331,-2056,-8535,1745144482492620168
469984,-439,327,530,2463,-1788,-8611,1745144482492620168
470176,-345,357,539,2515,-1536,-8695,1745144482492620168
470368,-254,387,540,2523,-1288,-8706,1745144482492620168
470560,-177,413,537,2508,-1095,-8656,1745144482492620168
470752,-122,434,533,2478,-944,-8598,1745144482492620168
470944,-87,454,536,2400,-785,-8533,1745144482492620168
471136,-75,474,541,2331,-659,-8460,1745144482492620168
471328,-86,491,544,2251,-552,-8318,1745144482492620168
471520,-108,497,538,2146,-495,-8106,1745144482492620168
471712,-133,498,529,2059,-451,-7866,1745144482550342297
471904,-148,505,520,1956,-381,-7637,1745144482550342297
472096,-156,520,519,1824,-356,-7459,1745144482550342297
472288,-154,534,524,1697,-320,-7356,1745144482550342297
472480,-142,536,535,1588,-324,-7226,1745144482550342297
472672,-115,540,536,1521,-278,-7133,1745144482550342297
472864,-111,551,512,1446,-351,-6794,1745144482550342297
473056,-90,535,443,1364,-355,-6512,1745144482550342297
473248,-47,509,352,1334,-342,-6101,1745144482550342297
473440,-85,468,277,1460,-703,-6553,1745144482550342297
473632,-285,389,245,2009,-1673,-7687,1745144482550342297
473824,-562,194,216,2580,-2267,-8499,1745144482550342297
474016,-806,-55,179,2771,-1021,-9631,1745144482609042334
474208,-982,-223,111,2242,1338,-10316,1745144482609042334
474400,-886,-322,-4,1601,3504,-10487,1745144482609042334
474592,-604,-400,-112,1201,4641,-10526,1745144482609042334
474784,-277,-520,-161,968,4814,-10765,1745144482609042334
474976,-4,-662,-127,787,4311,-11335,1745144482609042334
475168,134,-747,-50,478,3504,-11557,1745144482609042334
475360,159,-752,33,54,2672,-11465,1745144482609042334
475552,149,-700,93,-373,1916,-11074,1745144482609042334
475744,163,-638,111,-595,1291,-10540,1745144482609042334
475936,190,-589,88,-552,815,-10129,1745144482609042334
476128,183,-537,42,-290,333,-9755,1745144482609042334
476320,140,-490,-3,156,-98,-9357,1745144482667112064
476512,61,-445,-21,568,-456,-8944,1745144482667112064
476704,-31,-401,-6,867,-707,-8541,1745144482667112064
476896,-101,-377,27,1084,-813,-8251,1745144482667112064
477088,-130,-358,53,1279,-839,-8113,1745144482667112064
477280,-134,-347,56,1277,-725,-7932,1745144482667112064
477472,-123,-361,63,1320,-588,-7883,1745144482667112064
477664,-110,-385,56,1386,-607,-8056,1745144482667112064
477856,-105,-394,28,1388,-573,-8152,1745144482667112064
478048,-101,-400,14,1374,-553,-8241,1745144482667112064
478240,-102,-401,19,1342,-511,-8362,1745144482667112064
478432,-116,-395,42,1297,-437,-8468,1745144482667112064
478624,-140,-391,77,1291,-317,-8578,1745144482725969287
478816,-173,-390,110,1332,-162,-8634,1745144482725969287
479008,-212,-387,134,1316,31,-8595,1745144482725969287
479200,-250,-382,147,1276,286,-8536,1745144482725969287
479392,-281,-380,149,1236,511,-8455,1745144482725969287
479584,-298,-379,141,1186,690,-8363,1745144482725969287
479776,-290,-380,127,1081,820,-8279,1745144482725969287
479968,-261,-381,118,990,882,-8251,1745144482725969287
480160,-223,-380,118,928,840,-8237,1745144482725969287
480352,-184,-383,123,919,693,-8276,1745144482725969287
480544,-153,-394,128,948,501,-8354,1745144482725969287
480736,-141,-403,127,928,279,-8376,1745144482725969287
480928,-141,-409,126,841,79,-8393,1745144482783993236
481120,-150,-415,132,753,-97,-8387,1745144482783993236
481312,-171,-416,146,669,-230,-8377,1745144482783993236
481504,-198,-415,159,569,-309,-8317,1745144482783993236
481696,-233,-409,168,479,-319,-8276,1745144482783993236
481888,-274,-399,171,417,-312,-8259,1745144482783993236
482080,-316,-388,168,402,-256,-8264,1745144482783993236
482272,-357,-378,161,407,-220,-8245,1745144482783993236
482464,-392,-371,153,435,-153,-8239,1745144482783993236
482656,-421,-370,144,457,-40,-8206,1745144482783993236
482848,-443,-371,138,448,74,-8162,1745144482783993236
483040,-458,-371,135,459,196,-8178,1745144482783993236
483232,-471,-368,137,458,322,-8175,1745144482842452441
483424,-480,-366,142,459,476,-8121,1745144482842452441
483616,-491,-365,150,415,647,-8074,1745144482842452441
483808,-498,-369,158,392,801,-8082,1745144482842452441
484000,-500,-374,160,344,908,-8089,1745144482842452441
484192,-488,-377,155,305,962,-8090,1745144482842452441
484384,-464,-380,145,264,983,-8067,1745144482842452441
484576,-430,-380,136,243,958,-8067,1745144482842452441
484768,-396,-376,129,216,924,-8070,1745144482842452441
484960,-368,-375,125,235,866,-8094,1745144482842452441
485152,-352,-376,121,218,768,-8120,1745144482842452441
485344,-341,-374,114,189,668,-8118,1745144482842452441
485536,-330,-372,104,155,562,-8124,1745144482901469923
485728,-325,-364,94,111,507,-8132,1745144482901469923
485920,-325,-357,90,83,508,-8117,1745144482901469923
486112,-329,-348,89,61,499,-8081,1745144482901469923
486304,-333,-343,89,28,525,-8099,1745144482901469923
486496,-336,-331,87,32,573,-8116,1745144482901469923
486688,-334,-313,85,14,658,-8140,1745144482901469923
486880,-324,-295,77,-8,754,-8150,1745144482901469923
487072,-306,-277,66,7,849,-8185,1745144482901469923
487264,-285,-263,51,-3,891,-8165,1745144482901469923
487456,-259,-248,35,26,923,-8176,1745144482901469923
487648,-231,-235,21,41,906,-8165,1745144482901469923
487840,-202,-225,10,82,868,-8143,1745144482959506945
488032,-182,-218,3,98,844,-8128,1745144482959506945
488224,-171,-210,-1,77,815,-8124,1745144482959506945
488416,-166,-205,-3,43,806,-8142,1745144482959506945
488608,-166,-199,-5,13,809,-8151,1745144482959506945
488800,-165,-192,-7,-13,797,-8176,1745144482959506945
488992,-167,-183,-10,-39,793,-8165,1745144482959506945
489184,-170,-173,-12,-45,801,-8152,1745144482959506945
489376,-173,-163,-15,-43,832,-8131,1745144482959506945
489568,-179,-154,-16,-79,863,-8105,1745144482959506945
489760,-181,-146,-16,-95,881,-8099,1745144482959506945
489952,-181,-142,-19,-81,905,-8059,1745144482959506945
490144,-177,-134,-19,-103,959,-7991,1745144483015139301
490336,-172,-126,-19,-124,1036,-7981,1745144483015139301
490528,-170,-115,-19,-160,1102,-7993,1745144483015139301
490720,-162,-103,-22,-197,1162,-8031,1745144483015139301
490912,-139,-90,-28,-184,1203,-8075,1745144483015139301
491104,-107,-75,-40,-186,1187,-8119,1745144483015139301
491296,-75,-64,-53,-152,1087,-8150,1745144483015139301
491488,-50,-52,-63,-112,1010,-8178,1745144483015139301
491680,-36,-45,-65,-75,927,-8201,1745144483015139301
491872,-32,-43,-63,-69,844,-8206,1745144483015139301
492064,-35,-44,-61,-52,820,-8198,1745144483015139301
492256,-39,-47,-61,-75,801,-8183,1745144483015139301
492448,-47,-48,-61,-103,813,-8169,1745144483077815604
492640,-58,-48,-64,-142,827,-8149,1745144483077815604
492832,-68,-44,-66,-156,866,-8127,1745144483077815604
493024,-76,-37,-67,-191,909,-8089,1745144483077815604
493216,-80,-29,-65,-214,975,-8074,1745144483077815604
493408,-83,-18,-62,-234,1044,-8079,1745144483077815604
493600,-82,-8,-58,-213,1109,-8095,1745144483077815604
493792,-77,-1,-58,-197,1141,-8085,1745144483077815604
493984,-70,2,-62,-140,1131,-8061,1745144483077815604
494176,-60,6,-65,-108,1136,-8036,1745144483077815604
494368,-50,7,-64,-81,1129,-8015,1745144483077815604
494560,-44,4,-58,-51,1091,-8017,1745144483077815604
494752,-39,-3,-51,-28,1076,-8019,1745144483133715145
494944,-34,-9,-47,-32,1028,-8023,1745144483133715145
495136,-31,-13,-43,-58,982,-8031,1745144483133715145
495328,-31,-15,-42,-69,947,-8046,1745144483133715145
495520,-35,-15,-41,-75,938,-8054,1745144483133715145
495712,-41,-14,-37,-121,941,-8059,1745144483133715145
495904,-49,-13,-32,-148,966,-8051,1745144483133715145
496096,-60,-9,-26,-177,979,-8032,1745144483133715145
496288,-67,-5,-22,-183,1022,-8030,1745144483133715145
496480,-70,-2,-19,-186,1063,-8036,1745144483133715145
496672,-69,2,-20,-165,1081,-8037,1745144483133715145
496864,-66,4,-24,-145,1091,-8048,1745144483133715145
497056,-62,4,-26,-116,1065,-8053,1745144483193743503
497248,-59,2,-27,-95,1035,-8062,1745144483193743503
497440,-59,-3,-25,-73,998,-8085,1745144483193743503
497632,-62,-9,-20,-91,944,-8085,1745144483193743503
497824,-70,-14,-15,-70,916,-8090,1745144483193743503
498016,-80,-19,-12,-89,898,-8069,1745144483193743503
498208,-93,-19,-10,-92,872,-8068,1745144483193743503
498400,-113,-18,-10,-121,864,-8057,1745144483193743503
498592,-134,-16,-10,-146,883,-8040,1745144483193743503
498784,-154,-12,-9,-155,893,-8041,1745144483193743503
498976,-170,-7,-12,-162,933,-8046,1745144483193743503
499168,-179,-1,-13,-170,1006,-8062,1745144483193743503
499360,-180,6,-13,-161,1073,-8085,1745144483252340937
499552,-175,14,-16,-152,1143,-8099,1745144483252340937
499744,-165,20,-15,-146,1238,-8081,1745144483252340937
499936,-147,22,-13,-134,1316,-8054,1745144483252340937
500128,-124,22,-10,-117,1369,-8036,1745144483252340937
500320,-99,19,-6,-108,1403,-8021,1745144483252340937
500512,-74,14,-5,-90,1383,-8042,1745144483252340937
500704,-50,12,-3,-86,1366,-8042,1745144483252340937
500896,-29,10,1,-103,1349,-8039,1745144483252340937
501088,-13,8,3,-114,1306,-8040,1745144483252340937
501280,-3,6,7,-107,1231,-8056,1745144483252340937
501472,3,5,10,-121,1160,-8078,1745144483252340937
501664,5,2,11,-145,1083,-8077,1745144483310767434
501856,1,1,12,-153,1019,-8082,1745144483310767434
502048,-8,2,11,-163,984,-8076,1745144483310767434
502240,-18,4,13,-155,981,-8046,1745144483310767434
502432,-29,6,15,-171,998,-8055,1745144483310767434
502624,-43,10,17,-155,1053,-8048,1745144483310767434
502816,-53,13,18,-138,1087,-8035,1745144483310767434
503008,-57,15,15,-148,1120,-8042,1745144483310767434
503200,-57,16,14,-115,1136,-8037,1745144483310767434
503392,-51,15,14,-128,1166,-8032,1745144483310767434
503584,-44,14,13,-123,1209,-8045,1745144483310767434
503776,-38,14,13,-111,1230,-8059,1745144483310767434
503968,-32,12,12,-111,1238,-8059,1745144483369807416
504160,-25,9,10,-88,1233,-8038,1745144483369807416
504352,-19,7,9,-101,1208,-8022,1745144483369807416
504544,-17,6,6,-105,1149,-8005,1745144483369807416
504736,-16,4,3,-110,1148,-7987,1745144483369807416
504928,-17,3,4,-118,1138,-7996,1745144483369807416
505120,-18,1,4,-107,1147,-7999,1745144483369807416
505312,-19,-2,5,-107,1157,-7995,1745144483369807416
505504,-16,-5,6,-107,1151,-7993,1745144483369807416
505696,-10,-7,7,-129,1153,-7987,1745144483369807416
505888,-6,-8,9,-138,1155,-8016,1745144483369807416
506080,-6,-7,10,-122,1130,-8031,1745144483369807416
506272,-10,-6,10,-123,1121,-8036,1745144483427727928
506464,-13,-7,11,-114,1098,-8037,1745144483427727928
506656,-20,-9,12,-92,1087,-8031,1745144483427727928
506848,-29,-11,11,-91,1075,-8010,1745144483427727928
507040,-36,-13,10,-84,1082,-8001,1745144483427727928
507232,-43,-16,8,-96,1075,-7996,1745144483427727928
507424,-49,-21,8,-100,1081,-7979,1745144483427727928
507616,-53,-25,8,-103,1087,-7963,1745144483427727928
507808,-62,-26,8,-122,1079,-7957,1745144483427727928
508000,-70,-26,7,-110,1091,-7944,1745144483427727928
508192,-79,-29,4,-105,1072,-7928,1745144483427727928
508384,-86,-34,4,-111,1090,-7920,1745144483427727928
508576,-93,-38,5,-96,1086,-7888,1745144483484934020
508768,-97,-44,5,-114,1074,-7874,1745144483484934020
508960,-100,-47,3,-114,1083,-7844,1745144483484934020
509152,-106,-49,0,-114,1125,-7824,1745144483484934020
509344,-109,-48,0,-146,1159,-7858,1745144483484934020
509536,-106,-43,3,-168,1233,-7928,1745144483484934020
509728,-100,-36,9,-189,1313,-8014,1745144483484934020
509920,-89,-25,16,-207,1395,-8139,1745144483484934020
510112,-72,-12,22,-211,1483,-8270,1745144483484934020
510304,-56,-1,28,-181,1557,-8341,1745144483484934020
510496,-42,3,32,-123,1549,-8359,1745144483484934020
510688,-27,-1,36,-83,1500,-8357,1745144483484934020
510880,-14,-9,37,-51,1434,-8315,1745144483542245372
511072,-4,-20,37,-49,1332,-8273,1745144483542245372
511264,-1,-31,35,-75,1256,-8231,1745144483542245372
511456,-3,-38,34,-113,1162,-8162,1745144483542245372
511648,-9,-41,33,-183,1095,-8108,1745144483542245372
511840,-18,-41,30,-229,1055,-8043,1745144483542245372
512032,-27,-37,28,-268,1016,-8005,1745144483542245372
512224,-37,-28,27,-277,1067,-7943,1745144483542245372
512416,-45,-19,25,-299,1124,-7916,1745144483542245372
512608,-49,-8,24,-328,1185,-7916,1745144483542245372
512800,-47,4,22,-323,1243,-7931,1745144483542245372
512992,-40,15,19,-295,1290,-7956,1745144483542245372
513184,-30,28,16,-265,1311,-7997,1745144483602756173
513376,-15,40,14,-221,1332,-8033,1745144483602756173
513568,-2,47,12,-170,1335,-8076,1745144483602756173
513760,6,51,9,-140,1318,-8101,1745144483602756173
513952,14,50,7,-102,1287,-8102,1745144483602756173
514144,21,46,6,-82,1239,-8106,1745144483602756173
514336,23,42,4,-82,1221,-8095,1745144483602756173
514528,24,36,5,-121,1194,-8087,1745144483602756173
514720,23,36,4,-131,1200,-8103,1745144483602756173
514912,21,39,3,-179,1182,-8104,1745144483602756173
515104,19,45,2,-206,1194,-8122,1745144483602756173
515296,16,52,2,-222,1188,-8110,1745144483602756173
515488,13,60,1,-227,1198,-8111,1745144483661565219
515680,9,68,2,-218,1216,-8083,1745144483661565219
515872,6,78,1,-192,1237,-8067,1745144483661565219
516064,5,86,2,-168,1251,-8074,1745144483661565219
516256,7,92,1,-155,1264,-8075,1745144483661565219
516448,12,95,1,-128,1292,-8070,1745144483661565219
516640,18,95,-1,-104,1280,-8054,1745144483661565219
516832,24,94,-3,-100,1267,-8059,1745144483661565219
517024,28,93,-5,-77,1239,-8038,1745144483661565219
517216,31,92,-4,-95,1212,-8036,1745144483661565219
517408,31,92,-2,-123,1182,-8032,1745144483661565219
517600,30,93,2,-124,1143,-8039,1745144483661565219
517792,26,97,4,-130,1136,-8047,1745144483719992602
517984,21,101,5,-110,1144,-8038,1745144483719992602
518176,17,103,6,-97,1157,-8015,1745144483719992602
518368,12,104,6,-81,1182,-7992,1745144483719992602
518560,10,103,5,-67,1206,-7975,1745144483719992602
518752,9,102,6,-39,1222,-7973,1745144483719992602
518944,12,99,7,-21,1254,-7964,1745144483719992602
519136,14,95,7,-31,1264,-7961,1745144483719992602
519328,18,92,8,-18,1281,-7981,1745144483719992602
519520,23,86,7,-18,1282,-7994,1745144483719992602
519712,29,82,6,-27,1259,-8018,1745144483719992602
519904,35,79,5,-23,1258,-8033,1745144483719992602
520096,42,78,5,-11,1226,-8044,1745144483778044259
520288,42,78,5,-18,1201,-8040,1745144483778044259
520480,42,76,6,-3,1150,-8023,1745144483778044259
520672,42,71,6,-2,1128,-8022,1745144483778044259
520864,36,68,7,21,1106,-8015,1745144483778044259
521056,28,65,8,7,1096,-8010,1745144483778044259
521248,23,60,8,11,1111,-8018,1745144483778044259
521440,18,56,8,0,1114,-7986,1745144483778044259
521632,12,53,8,-5,1136,-7971,1745144483778044259
521824,15,49,8,3,1151,-7987,1745144483778044259
522016,15,47,6,6,1161,-7986,1745144483778044259
522208,10,47,4,-4,1164,-8004,1745144483778044259
522400,13,42,3,0,1179,-8017,1745144483836783254
522592,16,38,2,-1,1178,-8012,1745144483836783254
522784,15,36,1,-8,1173,-8015,1745144483836783254
522976,14,33,0,-3,1161,-8038,1745144483836783254
523168,21,29,0,2,1148,-8029,1745144483836783254
523360,21,26,1,12,1139,-8036,1745144483836783254
523552,15,24,1,-6,1114,-8046,1745144483836783254
523744,6,22,2,1,1107,-8055,1745144483836783254
523936,2,20,4,12,1118,-8069,1745144483836783254
524128,-1,20,6,-3,1143,-8065,1745144483836783254
524320,-7,20,6,-16,1162,-8044,1745144483836783254
524512,-11,21,5,-9,1170,-8026,1745144483836783254
524704,-6,19,4,13,1180,-8021,1745144483900041947
524896,0,18,2,27,1194,-8001,1745144483900041947
525088,-1,16,-2,31,1213,-7975,1745144483900041947
525280,-2,14,-4,25,1212,-7980,1745144483900041947
525472,6,9,-4,24,1218,-8005,1745144483900041947
525664,12,4,-6,-2,1211,-7995,1745144483900041947
525856,16,3,-7,-19,1191,-7988,1745144483900041947
526048,23,2,-8,-21,1187,-8007,1745144483900041947
526240,30,1,-9,-21,1155,-8022,1745144483900041947
526432,33,1,-12,-7,1122,-8035,1745144483900041947
526624,32,2,-14,-29,1071,-8055,1745144483900041947
526816,25,4,-17,-34,1046,-8083,1745144483900041947
527008,18,7,-17,-26,1038,-8092,1745144483951790068
527200,16,7,-17,-7,1040,-8097,1745144483951790068
527392,12,10,-17,-4,1038,-8095,1745144483951790068
527584,6,13,-19,3,1051,-8095,1745144483951790068
527776,-1,13,-22,19,1070,-8087,1745144483951790068
527968,-5,15,-24,19,1096,-8085,1745144483951790068
528160,-7,14,-26,14,1129,-8083,1745144483951790068
528352,-9,12,-28,21,1163,-8062,1745144483951790068
528544,-8,11,-31,24,1170,-8040,1745144483951790068
528736,-6,9,-34,-11,1190,-8017,1745144483951790068
528928,-2,9,-37,-25,1205,-8009,1745144483951790068
529120,4,9,-39,-34,1214,-8017,1745144483951790068
529312,10,11,-40,-35,1184,-8031,1745144484012151652
529504,15,12,-43,-32,1158,-8036,1745144484012151652
529696,19,14,-44,-20,1124,-8031,1745144484012151652
529888,21,16,-46,-1,1091,-8010,1745144484012151652
530080,21,16,-48,10,1105,-7996,1745144484012151652
530272,19,15,-49,1,1107,-7998,1745144484012151652
530464,18,15,-50,-2,1119,-8012,1745144484012151652
530656,18,15,-51,-19,1136,-8025,1745144484012151652
530848,19,14,-52,-1,1140,-8036,1745144484012151652
531040,21,14,-55,4,1143,-8048,1745144484012151652
531232,23,15,-58,13,1120,-8064,1745144484012151652
531424,22,17,-62,5,1105,-8078,1745144484012151652
531616,21,18,-63,16,1087,-8092,1745144484075790185
531808,20,17,-63,30,1091,-8099,1745144484075790185
532000,15,17,-63,26,1082,-8106,1745144484075790185
532192,11,15,-62,13,1073,-8089,1745144484075790185
532384,6,14,-62,26,1079,-8077,1745144484075790185
532576,2,12,-62,25,1103,-8067,1745144484075790185
532768,25,7,-59,-260,1260,-7347,1745144484075790185
532960,79,21,-31,-610,1615,-7350,1745144484075790185
533152,20,62,0,-444,642,-8133,1745144484075790185
533344,1,93,-48,-153,883,-8255,1745144484075790185
533536,53,84,-58,84,1467,-7827,1745144484075790185
533728,95,70,-39,198,1612,-7900,1745144484075790185
533920,90,98,-53,98,1414,-7885,1745144484127652316
534112,96,100,-73,66,1265,-7938,1745144484127652316
534304,116,85,-81,78,1277,-7961,1745144484127652316
534496,144,70,-71,86,1373,-7941,1745144484127652316
534688,168,63,-59,88,1251,-7960,1745144484127652316
534880,172,64,-55,50,1014,-7997,1745144484127652316
535072,161,65,-57,11,849,-8038,1745144484127652316
535264,151,70,-59,-39,870,-8068,1745144484127652316
535456,148,78,-54,-56,971,-8063,1745144484127652316
535648,145,84,-48,-19,1001,-8095,1745144484127652316
535840,136,88,-45,37,952,-8148,1745144484127652316
536032,123,85,-44,129,916,-8183,1745144484127652316
536224,117,76,-41,195,1028,-8189,1745144484187472915
536416,125,66,-32,223,1158,-8167,1745144484187472915
536608,142,54,-23,241,1259,-8163,1745144484187472915
536800,166,39,-19,285,1329,-8149,1745144484187472915
536992,192,21,-19,304,1298,-8172,1745144484187472915
537184,211,3,-22,295,1196,-8187,1745144484187472915
537376,223,-18,-26,342,1045,-8189,1745144484187472915
537568,225,-44,-25,383,920,-8179,1745144484187472915
537760,220,-66,-20,335,862,-8166,1745144484187472915
537952,215,-78,-11,216,864,-8161,1745144484187472915
538144,213,-85,-4,161,853,-8165,1745144484187472915
538336,212,-87,-1,149,863,-8175,1745144484187472915
538720,210,-102,1,112,897,-8129,1745144484256377129
538912,209,-105,2,77,841,-8108,1745144484256377129
539104,204,-104,0,38,759,-8108,1745144484256377129
539296,194,-99,-4,-20,684,-8119,1745144484256377129
539488,177,-92,-5,-58,613,-8120,1745144484256377129
539680,149,-85,-7,-51,502,-8127,1745144484256377129
539872,104,-75,-12,-61,393,-8152,1745144484256377129
540064,53,-64,-16,-81,379,-8179,1745144484256377129
540256,6,-52,-18,-83,395,-8187,1745144484256377129
540448,-40,-39,-17,-92,407,-8186,1745144484256377129
540640,-78,-28,-17,-107,436,-8197,1745144484256377129
540832,-109,-18,-13,-112,500,-8184,1745144484256377129
541024,-133,-9,-9,-107,612,-8146,1745144484314350610
541408,-165,12,-7,-136,805,-8081,1745144484314350610
541600,-173,20,-11,-107,891,-8083,1745144484314350610
541792,-171,27,-16,-75,970,-8064,1745144484314350610
541984,-160,30,-19,-23,1078,-8056,1745144484314350610
542176,-140,29,-19,39,1152,-8068,1745144484314350610
542368,-116,26,-17,74,1218,-8083,1745144484314350610
542560,-88,19,-13,104,1219,-8090,1745144484314350610
542752,-62,15,-12,92,1191,-8108,1745144484314350610
542944,-39,11,-11,75,1150,-8118,1745144484314350610
543136,-22,9,-9,20,1109,-8115,1745144484314350610
543328,-8,9,-6,-43,1043,-8106,1745144484314350610
543520,2,15,-4,-101,1010,-8086,1745144484377902165
543712,9,27,-4,-179,984,-8068,1745144484377902165
543904,17,41,-4,-169,966,-8052,1745144484377902165
544096,24,52,-7,-131,953,-8055,1745144484377902165
544288,25,62,-9,-120,883,-8037,1745144484377902165
544480,18,71,-11,-111,781,-8044,1745144484377902165
544672,7,78,-11,-84,754,-8038,1745144484377902165
544864,0,80,-6,-36,804,-8052,1745144484377902165
545056,-6,80,1,32,825,-8043,1745144484377902165
545248,-16,77,6,79,786,-8047,1745144484377902165
545440,-31,71,6,122,774,-8039,1745144484377902165
545632,-42,64,6,119,838,-8042,1745144484377902165
545824,-44,58,9,117,938,-8028,1745144484436407256
546016,-41,56,10,98,988,-8025,1745144484436407256
546208,-36,52,10,92,989,-8025,1745144484436407256
546400,-33,48,8,86,992,-8024,1745144484436407256
546592,-29,42,7,99,974,-8010,1745144484436407256
546784,-24,37,9,97,981,-8010,1745144484436407256
546976,-19,32,13,94,990,-7990,1745144484436407256
547168,-13,28,16,78,999,-7976,1745144484436407256
547360,-8,22,19,118,957,-7992,1745144484436407256
547552,-4,12,21,147,935,-8013,1745144484436407256
547744,-1,2,22,176,940,-8027,1745144484436407256
547936,3,-9,23,179,964,-8044,1745144484436407256
548128,8,-19,23,167,982,-8034,1745144484488231626
548320,15,-29,23,131,979,-8026,1745144484488231626
548512,19,-39,21,148,912,-8021,1745144484488231626
548704,18,-51,20,143,872,-8018,1745144484488231626
548896,14,-59,21,98,880,-7968,1745144484488231626
549088,16,-64,26,92,943,-7933,1745144484488231626
549280,18,-72,31,136,948,-7968,1745144484488231626
549472,13,-81,32,141,856,-8010,1745144484488231626
549664,2,-87,29,79,792,-8011,1745144484488231626
549856,-5,-87,26,-2,811,-7995,1745144484488231626
550048,-6,-85,28,-44,851,-8007,1745144484488231626
550240,-8,-81,32,-44,870,-8044,1745144484488231626
550432,-14,-79,33,-5,836,-8084,1745144484553262021
550624,-22,-75,32,-4,836,-8080,1745144484553262021
550816,-28,-72,32,-36,866,-8095,1745144484553262021
551008,-32,-68,32,-42,849,-8123,1745144484553262021
551200,-40,-61,30,-81,778,-8156,1745144484553262021
551392,-56,-53,26,-100,721,-8144,1745144484553262021
551584,-74,-43,23,-127,739,-8120,1745144484553262021
551776,-93,-35,23,-103,744,-8120,1745144484553262021
551968,-112,-27,24,-97,773,-8132,1745144484553262021
552160,-129,-19,22,-77,768,-8123,1745144484553262021
552352,-149,-14,17,-39,700,-8144,1745144484553262021
552544,-171,-10,10,-10,749,-8163,1745144484553262021
552928,-176,-5,8,-26,1135,-8045,1745144486505462782
627424,111,-69,0,329,1473,-7695,1745144486505462782
627616,39,-88,-13,313,732,-8300,1745144486505462782
627808,185,-95,-15,179,899,-8061,1745144486505462782
628000,191,-131,-6,103,656,-8004,1745144486505462782
628192,158,-108,3,34,449,-8190,1745144486505462782
628384,128,-112,8,-16,328,-8174,1745144486505462782
628768,48,-105,19,-30,571,-8097,1745144486505462782
628960,42,-103,29,0,708,-8096,1745144486505462782
629152,16,-101,31,109,543,-8153,1745144486505462782
629344,-22,-105,22,159,400,-8189,1745144486505462782
629536,-60,-118,15,101,351,-8255,1745144486505462782
629728,-100,-118,16,11,371,-8368,1745144486563568084
629920,-134,-109,19,-47,370,-8505,1745144486563568084
630112,-177,-99,18,-35,416,-8708,1745144486563568084
630304,-206,-84,14,-35,702,-8873,1745144486563568084
630496,-209,-71,13,-7,985,-8964,1745144486563568084
630688,-197,-54,14,23,1222,-9004,1745144486563568084
630880,-171,-37,18,83,1401,-9015,1745144486563568084
631072,-140,-30,21,152,1595,-8916,1745144486563568084
631264,-93,-20,23,111,1877,-8721,1745144486563568084
631456,-19,0,21,-28,2125,-8457,1745144486563568084
631648,70,32,12,-190,2150,-7998,1745144486563568084
631840,59,31,-6,-138,1717,-8615,1745144486563568084
632032,272,75,5,-223,2286,-7276,1745144486617822224
632224,357,84,8,-338,1791,-7529,1745144486617822224
632416,437,157,-24,-575,1151,-7745,1745144486617822224
632608,471,177,-67,-568,829,-7450,1745144486617822224
632800,499,223,-89,-614,508,-7332,1745144486617822224
632992,489,282,-57,-544,807,-8033,1745144486617822224
633184,219,443,137,-734,-3228,-7022,1745144486617822224
633376,-109,561,-69,-968,-2803,-7436,1745144486617822224
633568,-303,513,-109,-594,-2329,-7237,1745144486617822224
633760,-410,383,-97,-43,-1201,-7298,1745144486617822224
633952,-449,230,-73,298,155,-7490,1745144486617822224
634144,-436,152,-49,808,1771,-8610,1745144486617822224
634336,-462,267,19,809,2143,-8286,1745144486685500512
634528,-372,283,-48,1011,2586,-8061,1745144486685500512
634720,-224,214,-111,976,2827,-7984,1745144486685500512
634912,-80,130,-110,1107,2496,-8177,1745144486685500512
635104,27,49,-107,1066,2064,-8226,1745144486685500512
635296,85,-2,-90,898,1578,-8211,1745144486685500512
635488,108,-40,-65,660,1132,-8169,1745144486685500512
635680,109,-61,-43,374,804,-8109,1745144486685500512
635872,96,-62,-27,107,593,-8084,1745144486685500512
636064,72,-48,-15,-71,473,-8068,1745144486685500512
636256,42,-25,-12,-185,423,-8025,1745144486685500512
636448,11,-3,-17,-195,423,-7988,1745144486685500512
636640,-15,19,-25,-122,-1,-1,1745144486736971136
636832,-38,36,-33,-14,575,-7944,1745144486736971136
637024,-54,47,-34,98,695,-7927,1745144486736971136
637216,-63,49,-32,230,838,-7914,1745144486736971136
637408,-61,41,-29,312,977,-7917,1745144486736971136
637600,-52,26,-29,359,1073,-7932,1745144486736971136
637792,-36,9,-32,340,1139,-7923,1745144486736971136
637984,-17,-7,-36,303,1161,-7936,1745144486736971136
638176,0,-21,-41,249,1102,-7959,1745144486736971136
638368,12,-27,-44,196,1031,-7999,1745144486736971136
638560,19,-30,-45,123,936,-8051,1745144486736971136
638752,24,-31,-43,88,855,-8093,1745144486736971136
638944,23,-28,-39,57,777,-8113,1745144486797607769
639136,15,-23,-35,64,717,-8124,1745144486797607769
639328,2,-16,-32,69,713,-8125,1745144486797607769
639520,-12,-9,-28,93,726,-8133,1745144486797607769
639712,-25,-3,-24,109,786,-8136,1745144486797607769
639904,-36,0,-22,146,837,-8152,1745144486797607769
640096,-44,0,-23,166,877,-8129,1745144486797607769
640288,-49,0,-23,194,936,-8104,1745144486797607769
640480,-53,-3,-25,221,957,-8069,1745144486797607769
640672,-55,-8,-28,229,971,-8040,1745144486797607769
640864,-57,-11,-30,223,964,-8026,1745144486797607769
641056,-57,-16,-32,206,946,-8009,1745144486797607769
641248,-59,-19,-36,207,930,-7751,1745144486855481668
641440,-58,-21,-41,179,902,-7999,1745144486855481668
641632,-53,-21,-42,167,894,-8001,1745144486855481668
641824,-49,-19,-41,138,883,-8038,1745144486855481668
642016,-49,-17,-41,148,869,-8057,1745144486855481668
642208,-52,-15,-41,143,875,-8074,1745144486855481668
642400,-54,-12,-41,133,867,-8086,1745144486855481668
642592,-54,-10,-42,138,875,-8092,1745144486855481668
642784,-56,-8,-43,147,882,-8091,1745144486855481668
642976,-58,-6,-44,144,894,-8085,1745144486855481668
643168,-61,-5,-46,136,912,-8083,1745144486855481668
643360,-63,-2,-48,140,919,-8066,1745144486855481668
643552,-66,1,-51,136,937,-8054,1745144486913267702
643744,-68,4,-51,134,953,-8057,1745144486913267702
643936,-69,8,-53,127,968,-8051,1745144486913267702
644128,-70,11,-56,131,1005,-8074,1745144486913267702
644320,-68,11,-59,120,1033,-8087,1745144486913267702
644512,-64,12,-62,128,1048,-8112,1745144486913267702
644704,-59,11,-64,116,1042,-8110,1745144486913267702
644896,-51,11,-64,119,1031,-8073,1745144486913267702
645088,-42,12,-62,91,1001,-8025,1745144486913267702
645280,-34,14,-57,77,968,-8023,1745144486913267702
645472,-28,18,-53,91,933,-8048,1745144486913267702
645664,-26,21,-52,97,912,-8058,1745144486913267702
645856,-27,24,-52,120,887,-8059,1745144486972780700
646048,-33,28,-54,127,858,-8055,1745144486972780700
646240,-40,33,-55,154,865,-8050,1745144486972780700
646432,-47,37,-53,178,884,-8060,1745144486972780700
646624,-51,36,-52,187,930,-8073,1745144486972780700
646816,-54,33,-54,187,999,-8094,1745144486972780700
647008,-54,29,-58,178,1065,-8089,1745144486972780700
647200,-53,25,-61,155,1110,-8108,1745144486972780700
647392,-54,22,-63,145,1115,-8076,1745144486972780700
647584,-53,21,-65,134,1093,-8036,1745144486972780700
647776,-50,22,-62,112,1071,-7983,1745144486972780700
647968,-49,21,-58,118,1041,-7927,1745144486972780700
648160,-49,20,-53,122,1036,-7916,1745144487032182241
648352,-52,19,-49,146,1028,-7909,1745144487032182241
648544,-51,16,-47,175,1035,-7915,1745144487032182241
648736,-48,14,-46,196,1034,-7942,1745144487032182241
648928,-44,11,-46,222,1037,-7974,1745144487032182241
649120,-39,4,-46,259,1015,-8019,1745144487032182241
649312,-32,-3,-44,277,995,-8047,1745144487032182241
649504,-25,-10,-38,275,969,-8076,1745144487032182241
649696,-24,-15,-32,248,961,-8069,1745144487032182241
649888,-27,-21,-25,234,932,-8066,1745144487032182241
650080,-32,-25,-19,198,941,-8069,1745144487032182241
650272,-38,-27,-18,158,933,-8042,1745144487032182241
650464,-46,-31,-19,145,949,-8020,1745144487092886895
650656,-52,-30,-18,155,969,-8011,1745144487092886895
650848,-58,-30,-19,124,1017,-8000,1745144487092886895
651040,-63,-31,-19,147,1061,-8032,1745144487092886895
651232,-67,-34,-18,150,1117,-8070,1745144487092886895
651424,-73,-38,-18,152,1155,-8113,1745144487092886895
651616,-76,-40,-20,149,1189,-8136,1745144487092886895
651808,-74,-42,-20,139,1190,-8112,1745144487092886895
652000,-68,-42,-18,119,1194,-8077,1745144487092886895
652192,-61,-42,-13,116,1137,-8052,1745144487092886895
652384,-57,-44,-6,116,1096,-8012,1745144487092886895
652576,-55,-44,2,123,1069,-7996,1745144487092886895
652768,-56,-40,7,130,1043,-7963,1745144487146350261
652960,-56,-36,10,145,1039,-7940,1745144487146350261
653152,-55,-35,10,145,1009,-7942,1745144487146350261
653344,-52,-34,8,157,1003,-7970,1745144487146350261
653536,-48,-35,8,136,991,-8003,1745144487146350261
653728,-43,-35,9,140,982,-8058,1745144487146350261
653920,-38,-37,11,141,986,-8104,1745144487146350261
654112,-34,-41,14,131,995,-8161,1745144487146350261
654304,-35,-41,19,86,1017,-8174,1745144487146350261
654496,-39,-37,23,65,1046,-8178,1745144487146350261
654688,-47,-31,25,57,1069,-8142,1745144487146350261
654880,-56,-24,24,72,1076,-8092,1745144487146350261
655072,-64,-17,24,50,1122,-8057,1745144487207871209
655264,-69,-11,24,57,1139,-8022,1745144487207871209
655456,-69,-10,23,49,1169,-7994,1745144487207871209
655648,-65,-12,24,67,1166,-7999,1745144487207871209
655840,-57,-13,25,92,1180,-8010,1745144487207871209
656032,-48,-15,25,109,1199,-8014,1745144487207871209
656224,-37,-14,24,127,1194,-8037,1745144487207871209
656416,-27,-15,24,140,1169,-8067,1745144487207871209
656608,-19,-13,22,126,1136,-8057,1745144487207871209
656800,-15,-9,22,131,1077,-8051,1745144487207871209
656992,-6,-14,25,78,1028,-7952,1745144487207871209
657184,1,-28,28,98,994,-8052,1745144487207871209
657376,0,-23,32,95,995,-8081,1745144487264469650
657568,-5,-20,35,113,992,-8104,1745144487264469650
657760,-11,-16,36,143,997,-8111,1745144487264469650
657952,-16,-14,36,128,999,-8111,1745144487264469650
658144,-20,-15,34,139,1037,-8114,1745144487264469650
658336,-24,-15,33,120,1049,-8107,1745144487264469650
658528,-29,-14,33,90,1069,-8091,1745144487264469650
658720,-31,-14,34,66,1110,-8060,1745144487264469650
658912,-31,-12,36,56,1142,-8073,1745144487264469650
659104,-29,-9,35,53,1169,-8078,1745144487264469650
659296,-24,-5,35,46,1194,-8035,1745144487264469650
659488,-18,0,35,54,1212,-8030,1745144487264469650
659680,-13,2,35,64,1218,-8027,1745144487323910201
659872,-7,5,37,103,1203,-8050,1745144487323910201
660064,-2,8,40,130,1200,-8102,1745144487323910201
660256,5,10,41,129,1188,-8158,1745144487323910201
660448,11,11,44,122,1180,-8192,1745144487323910201
660640,15,11,46,132,1150,-8207,1745144487323910201
660832,18,9,49,120,1110,-8203,1745144487323910201
661024,21,7,53,95,1051,-8183,1745144487323910201
661216,20,9,56,91,1016,-8170,1745144487323910201
661408,14,14,59,96,990,-8139,1745144487323910201
661600,6,20,62,96,967,-8104,1745144487323910201
661792,-3,26,64,117,973,-8077,1745144487323910201
661984,-10,31,66,139,987,-8051,1745144487377749345
662176,-17,35,68,156,1010,-8042,1745144487377749345
662368,-21,38,70,183,1044,-8031,1745144487377749345
662560,-23,40,72,195,1102,-8027,1745144487377749345
662752,-25,40,71,198,1148,-8042,1745144487377749345
662944,-29,38,67,171,1178,-8032,1745144487377749345
663136,-27,36,64,132,1190,-8034,1745144487377749345
663328,-20,36,65,105,1204,-8044,1745144487377749345
663520,-11,36,67,95,1199,-8060,1745144487377749345
663712,-5,39,69,88,1207,-8104,1745144487377749345
663904,-1,41,71,106,1174,-8122,1745144487377749345
664096,3,45,71,113,1128,-8127,1745144487377749345
664288,4,48,70,136,1093,-8120,1745144487441571626
664480,4,49,70,170,1059,-8094,1745144487441571626
664672,-1,51,70,191,1033,-8084,1745144487441571626
664864,-7,48,70,198,977,-8074,1745144487441571626
665056,-13,45,68,173,962,-8046,1745144487441571626
665248,-19,44,67,156,945,-8028,1745144487441571626
665440,-21,44,63,100,940,-8011,1745144487441571626
665632,-23,43,58,91,937,-7986,1745144487441571626
665824,-30,46,53,50,955,-7984,1745144487441571626
666016,-35,47,46,54,968,-7962,1745144487441571626
666208,-39,48,40,37,1012,-7961,1745144487441571626
666400,-42,52,35,53,1042,-7970,1745144487441571626
666592,-43,58,31,73,1099,-7981,1745144487498679542
666784,-43,62,28,99,1146,-8001,1745144487498679542
666976,-39,64,25,135,1192,-8045,1745144487498679542
667168,-33,66,22,151,1234,-8066,1745144487498679542
667360,-23,65,22,140,1246,-8073,1745144487498679542
667552,-11,63,23,152,1240,-8072,1745144487498679542
667744,-1,60,24,160,1229,-8077,1745144487498679542
667936,6,57,21,162,1183,-8052,1745144487498679542
668128,13,56,16,191,1124,-8039,1745144487498679542
668320,18,54,8,188,1065,-8029,1745144487498679542
668512,21,53,-1,178,1009,-8025,1745144487498679542
668704,20,55,-7,197,953,-8011,1745144487498679542
668896,16,56,-10,215,927,-8022,1745144487558421809
669088,10,58,-11,208,917,-8032,1745144487558421809
669280,5,60,-12,228,945,-8051,1745144487558421809
669472,0,62,-13,213,1000,-8065,1745144487558421809
669664,-3,63,-14,207,1048,-8069,1745144487558421809
669856,-5,64,-17,216,1091,-8080,1745144487558421809
670048,-7,62,-20,223,1142,-8081,1745144487558421809
670240,-8,59,-21,210,1174,-8058,1745144487558421809
670432,-8,57,-24,210,1187,-8042,1745144487558421809
670624,-4,53,-26,203,1181,-8025,1745144487558421809
670816,-1,50,-27,216,1181,-8001,1745144487558421809
671008,2,48,-28,226,1155,-7972,1745144487558421809
671200,5,45,-28,253,1125,-7960,1745144487618061160
671392,7,42,-27,248,1103,-7964,1745144487618061160
671584,9,40,-26,243,1095,-7982,1745144487618061160
671776,10,37,-26,228,1096,-8008,1745144487618061160
671968,12,37,-25,231,1095,-8028,1745144487618061160
672160,12,37,-24,223,1096,-8063,1745144487618061160
672352,10,36,-23,238,1080,-8080,1745144487618061160
672544,7,35,-22,233,1060,-8103,1745144487618061160
672736,4,33,-21,251,1049,-8091,1745144487618061160
672928,3,32,-17,244,1044,-8090,1745144487618061160
673120,0,32,-12,249,1055,-8080,1745144487618061160
673312,-4,31,-8,250,1059,-8067,1745144487618061160
673504,-8,30,-6,258,1068,-8036,1745144487681420842
673888,-12,30,-4,260,1122,-8021,1745144487681420842
674080,-12,29,-2,258,1144,-8010,1745144487681420842
674272,-9,27,-3,236,1156,-8012,1745144487681420842
674464,-5,26,-3,232,1160,-8009,1745144487681420842
674656,-3,27,-4,235,1155,-8020,1745144487681420842
674848,-4,29,-6,224,1136,-8029,1745144487681420842
675040,-7,30,-6,200,1118,-8026,1745144487681420842
675232,-5,31,-4,213,1125,-8017,1745144487681420842
675424,-2,35,0,207,1111,-8030,1745144487681420842
675616,-4,38,1,221,1126,-8049,1745144487681420842
675808,-3,43,0,217,1118,-8084,1745144487681420842
675808,-3,43,0,217,1118,-8084,1745144487740469677
676192,5,57,-6,260,1093,-8175,1745144487740469677
676384,10,62,-9,258,1064,-8203,1745144487740469677
676576,13,66,-12,248,1037,-8224,1745144487740469677
676768,13,71,-16,258,1023,-8231,1745144487740469677
676960,8,77,-20,245,984,-8195,1745144487740469677
677152,3,84,-22,226,953,-8150,1745144487740469677
677344,-4,91,-25,227,945,-8108,1745144487740469677
677536,-11,99,-29,218,961,-8087,1745144487740469677
677728,-15,106,-34,214,985,-8054,1745144487740469677
677920,-18,114,-41,209,1018,-8048,1745144487740469677
678112,-17,120,-49,217,1042,-8039,1745144487740469677
678304,-14,127,-53,236,1075,-8053,1745144487798716697
678688,-7,137,-62,277,1124,-8079,1745144487798716697
678880,-3,140,-65,275,1133,-8084,1745144487798716697
679072,0,143,-67,297,1144,-8087,1745144487798716697
679264,3,148,-70,285,1142,-8090,1745144487798716697
679456,7,152,-72,299,1128,-8096,1745144487798716697
679648,12,157,-74,305,1124,-8091,1745144487798716697
679840,17,161,-77,324,1104,-8072,1745144487798716697
680032,20,164,-80,337,1089,-8070,1745144487798716697
680224,22,167,-83,355,1043,-8058,1745144487798716697
680416,23,170,-84,371,1016,-8049,1745144487798716697
680608,24,172,-85,382,1019,-8055,1745144487798716697
680800,25,176,-87,365,1013,-8066,1745144487864956717
680992,25,182,-89,384,1034,-8096,1745144487864956717
681184,26,186,-92,379,1033,-8118,1745144487864956717
681376,28,190,-96,387,1048,-8125,1745144487864956717
681568,30,194,-100,413,1037,-8124,1745144487864956717
681760,29,198,-102,400,1031,-8116,1745144487864956717
681952,25,203,-104,425,1030,-8113,1745144487864956717
682144,19,208,-104,440,1018,-8115,1745144487864956717
682336,12,213,-103,449,1020,-8106,1745144487864956717
682528,7,218,-102,445,1028,-8119,1745144487864956717
682720,4,224,-104,450,1049,-8132,1745144487864956717
682912,0,231,-106,470,1044,-8155,1745144487864956717
683104,-3,239,-108,497,1051,-8163,1745144487922473952
683296,-5,247,-111,530,1039,-8206,1745144487922473952
683488,-9,253,-115,567,989,-8243,1745144487922473952
683680,-14,260,-118,615,953,-8281,1745144487922473952
683872,-24,267,-120,642,917,-8318,1745144487922473952
684064,-39,272,-122,697,850,-8373,1745144487922473952
684256,-61,266,-122,836,774,-8429,1745144487922473952
684448,-86,251,-120,927,737,-8419,1745144487922473952
684640,-115,234,-110,1080,685,-8564,1745144487922473952
684832,-148,202,-92,1215,690,-8485,1745144487922473952
685024,-178,183,-69,1120,780,-8269,1745144487922473952
685216,-194,185,-45,1021,878,-8483,1745144487922473952
685408,-188,187,-27,904,1052,-8543,1745144487974810349
685600,-173,195,-25,706,1209,-8377,1745144487974810349
685792,-146,219,-38,478,1366,-8349,1745144487974810349
685984,-95,265,-63,312,1459,-8286,1745144487974810349
686176,-21,322,-99,239,1419,-8321,1745144487974810349
686368,63,370,-139,424,1178,-8178,1745144487974810349
686560,149,384,-178,904,663,-8427,1745144487974810349
686752,207,373,-206,1405,-23,-8968,1745144487974810349
686944,247,356,-211,1846,-815,-8929,1745144487974810349
687136,350,317,-185,2331,-1562,-8975,1745144487974810349
687328,425,275,-124,2650,-1957,-9878,1745144487974810349
687520,441,240,-20,3075,-2479,-10484,1745144487974810349
687712,444,211,0,3182,-2841,-10835,1745144488040319230
687904,432,185,-65,3076,-2870,-10933,1745144488040319230
688096,427,155,-125,3010,-2805,-11310,1745144488040319230
688288,408,99,-110,3350,-3224,-11996,1745144488040319230
688480,388,42,-122,3550,-3374,-12353,1745144488040319230
688672,370,2,-92,3604,-3528,-12714,1745144488040319230
688864,313,-3,-16,3576,-3645,-12267,1745144488040319230
689056,223,15,104,3767,-4549,-12093,1745144488040319230
689248,223,-16,298,3745,-5655,-11905,1745144488040319230
689440,273,-59,548,3414,-6410,-11564,1745144488040319230
689632,311,-26,798,3031,-6713,-11105,1745144488040319230
689824,250,63,1009,2838,-6779,-10384,1745144488040319230
690016,110,150,1196,3047,-7073,-9964,1745144488098373022
690400,-36,223,1713,3863,-8586,-10233,1745144488098373022
690592,53,180,2071,4213,-9140,-10731,1745144488098373022
690784,186,142,2421,4574,-9444,-11077,1745144488098373022
690976,316,105,2705,4924,-9522,-11251,1745144488098373022
691168,421,45,2900,5219,-9492,-11352,1745144488098373022
691360,485,-22,3025,5356,-9299,-11362,1745144488098373022
691552,514,-70,3118,5429,-8954,-11354,1745144488098373022
691744,531,-97,3211,5567,-8403,-11309,1745144488098373022
691936,545,-129,3314,5750,-7778,-11130,1745144488098373022
692128,547,-180,3420,5880,-7175,-10848,1745144488098373022
692320,534,-243,3525,5911,-6606,-10528,1745144488098373022
692512,505,-301,3637,5892,-6064,-10262,1745144488162165356
692704,466,-347,3758,5826,-5579,-10019,1745144488162165356
692896,429,-372,3886,5774,-5150,-9829,1745144488162165356
693088,405,-393,4015,5739,-4778,-9658,1745144488162165356
693280,398,-399,4133,5699,-4413,-9523,1745144488162165356
693472,405,-390,4238,5676,-4027,-9413,1745144488162165356
693664,415,-368,4329,5628,-3634,-9278,1745144488162165356
693856,423,-319,4411,5652,-3292,-9235,1745144488162165356
694048,429,-250,4482,5682,-2944,-9165,1745144488162165356
694240,441,-177,4554,5815,-2671,-8981,1745144488162165356
694432,459,-111,4619,6032,-2456,-8794,1745144488162165356
694624,474,-57,4672,6271,-2228,-8543,1745144488162165356
694816,485,-5,4714,6440,-1972,-8275,1745144488217060271
695008,493,48,4750,6658,-1706,-8078,1745144488217060271
695200,500,97,4779,6820,-1422,-7914,1745144488217060271
695392,517,146,4798,6942,-1099,-7857,1745144488217060271
695584,543,190,4817,7063,-763,-7699,1745144488217060271
695776,569,222,4829,7243,-488,-7607,1745144488217060271
695968,592,240,4837,7439,-315,-7538,1745144488217060271
696160,620,248,4843,7605,-143,-7538,1745144488217060271
696352,656,259,4849,7732,57,-7609,1745144488217060271
696544,702,276,4857,7823,285,-7712,1745144488217060271
696736,744,303,4864,7879,578,-7852,1745144488217060271
696928,785,345,4877,7924,852,-7960,1745144488217060271
697120,824,393,4896,7967,1115,-7991,1745144488278363930
697312,864,447,4923,8033,1338,-7927,1745144488278363930
697504,889,506,4952,8101,1456,-7811,1745144488278363930
697696,893,565,4982,8151,1472,-7747,1745144488278363930
697888,878,636,5021,8192,1418,-7634,1745144488278363930
698080,829,709,5063,8248,1258,-7530,1745144488278363930
698272,760,784,5100,8305,1097,-7375,1745144488278363930
698464,675,867,5133,8389,968,-7199,1745144488278363930
698656,570,948,5158,8563,851,-6948,1745144488278363930
698848,446,1014,5168,8760,723,-6600,1745144488278363930
699040,301,1063,5165,8951,645,-6349,1745144488278363930
699232,158,1098,5156,9099,683,-6056,1745144488278363930
699424,19,1121,5144,9209,857,-5815,1745144488337086102
699424,19,1121,5144,9209,857,-5815,1745144488337086102
699808,-232,1145,5094,9318,1409,-5587,1745144488337086102
700000,-323,1140,5055,9347,1717,-5567,1745144488337086102
700192,-387,1126,5006,9314,2016,-5557,1745144488337086102
700384,-429,1106,4952,9268,2279,-5570,1745144488337086102
700576,-450,1082,4900,9212,2565,-5679,1745144488337086102
700768,-459,1056,4849,9089,2782,-5792,1745144488337086102
700960,-456,1032,4793,8920,2917,-5902,1745144488337086102
701152,-439,1008,4731,8722,2999,-5986,1745144488337086102
701344,-415,984,4666,8408,3018,-6037,1745144488337086102
701536,-396,956,4591,8046,3014,-6135,1745144488337086102
701728,-383,936,4507,7633,3005,-6216,1745144488393614492
701920,-376,927,4414,7241,2930,-6296,1745144488393614492
702112,-378,927,4317,6943,2803,-6329,1745144488393614492
702304,-386,925,4216,6672,2696,-6347,1745144488393614492
702496,-401,910,4113,6348,2632,-6354,1745144488393614492
702688,-417,899,4002,5958,2658,-6308,1745144488393614492
702880,-438,884,3880,5603,2747,-6254,1745144488393614492
703072,-460,873,3763,5320,2731,-6106,1745144488393614492
703264,-482,847,3654,5118,2680,-5989,1745144488393614492
703456,-509,802,3542,4861,2654,-5982,1745144488393614492
703648,-538,749,3424,4559,2668,-6007,1745144488393614492
703840,-559,700,3303,4162,2756,-6031,1745144488393614492
704032,-576,651,3175,3802,2846,-6098,1745144488454113835
704224,-588,603,3037,3483,2974,-6183,1745144488454113835
704416,-604,548,2888,3220,3050,-6328,1745144488454113835
704608,-622,490,2721,2976,3113,-6486,1745144488454113835
704800,-641,433,2556,2743,3168,-6588,1745144488454113835
704992,-654,385,2394,2602,3031,-6625,1745144488454113835
705184,-662,344,2213,2320,3116,-6679,1745144488454113835
705376,-677,302,2068,2113,3137,-6788,1745144488454113835
705568,-696,265,1949,1882,3110,-6852,1745144488454113835
705760,-712,236,1842,1708,3076,-6860,1745144488454113835
705952,-717,207,1727,1493,3080,-6899,1745144488454113835
706144,-707,188,1601,1279,3095,-6964,1745144488454113835
706336,-685,177,1473,1069,3171,-7064,1745144488512219138
706528,-643,173,1357,917,3186,-7104,1745144488512219138
706720,-581,167,1258,806,3197,-7130,1745144488512219138
706912,-507,158,1170,738,3131,-7081,1745144488512219138
707104,-429,147,1096,748,3057,-7020,1745144488512219138
707296,-351,136,1029,797,2888,-6935,1745144488512219138
707488,-271,130,953,884,2704,-6910,1745144488512219138
707680,-192,129,882,971,2522,-6899,1745144488512219138
707872,-114,127,837,1077,2295,-6778,1745144488512219138
708064,-36,119,804,1133,2112,-6670,1745144488512219138
708256,27,111,770,1139,1979,-6598,1745144488512219138
708448,70,109,735,1114,1870,-6635,1745144488512219138
708640,99,105,703,1076,1720,-6657,1745144488571126100
708832,125,95,677,1011,1537,-6659,1745144488571126100
709024,143,84,656,988,1326,-6707,1745144488571126100
709216,148,77,636,960,1137,-6796,1745144488571126100
709408,135,81,615,898,966,-6890,1745144488571126100
709600,113,89,594,894,819,-7027,1745144488571126100
709792,86,121,584,891,813,-7260,1745144488571126100
709984,51,179,587,816,718,-7088,1745144488571126100
710176,25,201,585,845,700,-7107,1745144488571126100
710368,0,219,580,889,712,-7206,1745144488571126100
710560,-27,232,571,946,725,-7234,1745144488571126100
710752,-51,237,559,978,725,-7245,1745144488571126100
710944,-71,238,543,1024,655,-7257,1745144488629185205
711136,-86,230,525,1089,594,-7241,1745144488629185205
711328,-96,222,506,1125,558,-7262,1745144488629185205
711520,-105,216,485,1122,515,-7328,1745144488629185205
711712,-115,204,461,1093,496,-7415,1745144488629185205
711904,-125,189,433,1067,523,-7508,1745144488629185205
712096,-133,180,407,1006,542,-7600,1745144488629185205
712288,-138,176,383,959,535,-7743,1745144488629185205
712480,-139,171,360,930,516,-7811,1745144488629185205
712672,-138,163,337,912,463,-7830,1745144488629185205
712864,-139,159,320,914,366,-7858,1745144488629185205
713056,-148,157,304,913,279,-7882,1745144488629185205
713248,-159,158,286,903,221,-7896,1745144488688411018
713440,-168,164,265,913,227,-7910,1745144488688411018
713632,-177,173,243,938,229,-7943,1745144488688411018
713824,-183,179,223,990,202,-8014,1745144488688411018
714016,-175,179,207,1014,180,-8044,1745144488688411018
714208,-157,175,187,1034,173,-8055,1745144488688411018
714400,-140,175,162,1024,166,-8106,1745144488688411018
714592,-131,176,134,987,110,-8137,1745144488688411018
714784,-122,177,109,945,57,-8172,1745144488688411018
714976,-104,176,92,861,11,-8212,1745144488688411018
715168,-78,176,79,850,-42,-8240,1745144488688411018
715360,-55,177,70,879,-114,-8230,1745144488688411018
715552,-31,178,64,966,-215,-8214,1745144488746542414
715744,-7,176,61,1051,-303,-8261,1745144488746542414
715936,21,174,61,1139,-347,-8289,1745144488746542414
716128,49,164,58,1174,-360,-8292,1745144488746542414
716320,72,150,51,1201,-374,-8339,1745144488746542414
716512,94,135,44,1197,-421,-8373,1745144488746542414
716704,113,117,39,1228,-490,-8378,1745144488746542414
716896,123,102,36,1207,-566,-8411,1745144488746542414
717088,127,88,37,1175,-658,-8434,1745144488746542414
717280,126,78,38,1133,-717,-8431,1745144488746542414
717472,114,74,37,1126,-754,-8443,1745144488746542414
717664,87,74,35,1132,-823,-8445,1745144488746542414
717856,52,73,35,1155,-907,-8422,1745144488804397875
718048,19,69,37,1181,-989,-8394,1745144488804397875
718240,-9,68,41,1197,-1028,-8389,1745144488804397875
718432,-33,71,44,1186,-1007,-8374,1745144488804397875
718624,-59,75,43,1190,-954,-8340,1745144488804397875
718816,-85,74,41,1179,-921,-8318,1745144488804397875
719008,-104,68,39,1175,-875,-8264,1745144488804397875
719200,-109,66,38,1187,-835,-8244,1745144488804397875
719392,-113,72,37,1181,-785,-8238,1745144488804397875
719584,-124,80,36,1249,-781,-8201,1745144488804397875
719776,-136,83,40,1312,-819,-8136,1745144488804397875
719968,-142,71,44,1381,-887,-8097,1745144488804397875
720160,-140,50,42,1373,-892,-8082,1745144488863223692
720352,-138,30,31,1312,-816,-8137,1745144488863223692
720544,-142,21,16,1210,-688,-8170,1745144488863223692
720736,-150,17,4,1118,-605,-8217,1745144488863223692
720928,-157,19,-3,1128,-573,-8247,1745144488863223692
721120,-159,20,-6,1172,-633,-8189,1745144488863223692
721312,-154,15,-9,1234,-690,-8124,1745144488863223692
721504,-151,8,-10,1263,-691,-8152,1745144488863223692
721696,-153,12,-11,1272,-646,-8226,1745144488863223692
721888,-158,23,-14,1236,-605,-8229,1745144488863223692
722080,-158,31,-21,1199,-559,-8217,1745144488863223692
722272,-148,28,-29,1181,-548,-8183,1745144488863223692
722464,-134,22,-38,1198,-542,-8162,1745144488921391494
722656,-124,18,-46,1241,-566,-8159,1745144488921391494
722848,-117,17,-53,1273,-587,-8125,1745144488921391494
723040,-114,19,-56,1267,-613,-8099,1745144488921391494
723232,-115,18,-62,1242,-640,-8043,1745144488921391494
723424,-117,14,-70,1219,-676,-8021,1745144488921391494
723616,-118,12,-79,1214,-720,-8013,1745144488921391494
723808,-115,11,-85,1184,-738,-7990,1745144488921391494
724000,-111,13,-89,1182,-749,-7997,1745144488921391494
724192,-108,13,-91,1225,-754,-7982,1745144488921391494
724384,-107,12,-94,1264,-775,-7972,1745144488921391494
724576,-101,10,-96,1254,-794,-7957,1745144488921391494
724768,-91,9,-98,1247,-776,-7969,1745144488980070645
724960,-76,6,-100,1221,-776,-7967,1745144488980070645
725152,-62,3,-103,1159,-765,-8003,1745144488980070645
725344,-49,3,-106,1126,-716,-8001,1745144488980070645
725536,-40,7,-108,1123,-732,-8007,1745144488980070645
725728,-35,14,-107,1161,-775,-8029,1745144488980070645
725920,-30,18,-103,1222,-850,-8027,1745144488980070645
726112,-20,20,-102,1263,-910,-8050,1745144488980070645
726304,-9,22,-102,1283,-931,-8083,1745144488980070645
726496,-1,24,-107,1307,-942,-8080,1745144488980070645
726688,4,23,-112,1354,-971,-8024,1745144488980070645
726880,10,19,-118,1371,-1012,-7987,1745144488980070645
727072,17,11,-125,1349,-1030,-7964,1745144489038644329
727264,22,4,-133,1321,-1038,-7938,1745144489038644329
727456,22,0,-142,1254,-1034,-7925,1745144489038644329
727648,16,0,-147,1218,-1065,-7926,1745144489038644329
727840,11,0,-148,1232,-1125,-7893,1745144489038644329
728032,9,-2,-142,1249,-1197,-7885,1745144489038644329
728224,7,-5,-136,1286,-1256,-7865,1745144489038644329
728416,3,-7,-131,1304,-1309,-7860,1745144489038644329
728608,-4,-8,-126,1309,-1341,-7883,1745144489038644329
728800,-9,-5,-123,1272,-1358,-7887,1745144489038644329
728992,-10,-3,-120,1224,-1330,-7890,1745144489038644329
729184,-8,1,-116,1192,-1277,-7902,1745144489038644329
729376,-5,7,-110,1167,-1246,-7896,1745144489096453696
729568,-2,13,-101,1215,-1244,-7870,1745144489096453696
729760,1,15,-93,1274,-1255,-7842,1745144489096453696
729952,2,14,-84,1284,-1262,-7846,1745144489096453696
730144,1,13,-78,1258,-1229,-7865,1745144489096453696
730336,-3,14,-75,1239,-1225,-7874,1745144489096453696
730528,-7,13,-72,1213,-1239,-7824,1745144489096453696
730720,-9,13,-69,1207,-1284,-7809,1745144489096453696
730912,-8,15,-62,1206,-1258,-7817,1745144489096453696
731104,-6,21,-57,1215,-1230,-7852,1745144489096453696
731296,-9,29,-54,1240,-1176,-7849,1745144489096453696
731488,-14,36,-53,1284,-1148,-7840,1745144489096453696
731680,-11,38,-50,1338,-1140,-7821,1745144489155316075
731872,2,37,-48,1373,-1130,-7831,1745144489155316075
732064,18,36,-48,1347,-1095,-7857,1745144489155316075
732256,31,33,-50,1306,-1064,-7868,1745144489155316075
732448,39,31,-54,1261,-1040,-7907,1745144489155316075
732640,49,31,-56,1250,-1069,-7938,1745144489155316075
732832,61,33,-57,1271,-1092,-7935,1745144489155316075
733024,71,36,-56,1279,-1117,-7956,1745144489155316075
733216,74,36,-52,1297,-1142,-7942,1745144489155316075
733408,72,36,-49,1281,-1156,-7919,1745144489155316075
733600,67,35,-46,1302,-1184,-7925,1745144489155316075
733792,62,36,-43,1302,-1220,-7907,1745144489155316075
733984,57,36,-42,1290,-1224,-7896,1745144489213287733
734176,51,38,-41,1282,-1221,-7946,1745144489213287733
734368,47,40,-41,1278,-1188,-7951,1745144489213287733
734560,42,43,-42,1224,-1172,-7985,1745144489213287733
734752,36,46,-44,1232,-1126,-8015,1745144489213287733
734944,29,48,-46,1232,-1106,-7998,1745144489213287733
735136,24,48,-47,1283,-1114,-7984,1745144489213287733
735328,18,47,-47,1314,-1135,-7971,1745144489213287733
735520,15,44,-47,1314,-1132,-7957,1745144489213287733
735712,11,44,-48,1300,-1089,-7956,1745144489213287733
735904,6,47,-51,1312,-1040,-7958,1745144489213287733
736096,1,50,-54,1298,-1017,-7922,1745144489213287733
736288,-1,48,-55,1306,-1034,-7894,1745144489269073838
736480,4,42,-57,1322,-1072,-7867,1745144489269073838
736672,10,36,-60,1337,-1098,-7853,1745144489269073838
736864,11,34,-64,1308,-1087,-7865,1745144489269073838
737056,8,35,-67,1320,-1095,-7858,1745144489269073838
737248,-1,36,-70,1321,-1103,-7850,1745144489269073838
737440,-10,34,-72,1336,-1133,-7842,1745144489269073838
737632,-15,33,-71,1341,-1189,-7855,1745144489269073838
737824,-17,35,-68,1351,-1196,-7887,1745144489269073838
738016,-17,37,-66,1331,-1185,-7907,1745144489269073838
738208,-19,38,-65,1306,-1157,-7910,1745144489269073838
738400,-21,40,-62,1302,-1132,-7927,1745144489269073838
738592,-19,43,-59,1303,-1121,-7955,1745144489330574995
738784,-14,45,-54,1314,-1101,-7994,1745144489330574995
738976,-6,44,-50,1340,-1098,-8018,1745144489330574995
739168,-1,42,-48,1369,-1123,-8025,1745144489330574995
739360,-2,41,-46,1419,-1146,-8028,1745144489330574995
739552,-6,38,-44,1443,-1195,-8022,1745144489330574995
739744,-6,34,-44,1439,-1243,-8015,1745144489330574995
739936,-7,28,-47,1395,-1231,-8032,1745144489330574995
740128,-10,29,-51,1345,-1198,-8042,1745144489330574995
740320,-14,31,-54,1293,-1158,-8083,1745144489330574995
740512,-17,31,-55,1267,-1118,-8102,1745144489330574995
740704,-17,32,-55,1283,-1112,-8078,1745144489330574995
740896,-15,30,-53,1329,-1140,-8070,1745144489389171543
741088,-12,28,-49,1390,-1173,-8073,1745144489389171543
741280,-11,24,-46,1453,-1247,-8043,1745144489389171543
741472,-10,20,-45,1450,-1274,-8050,1745144489389171543
741664,-11,14,-45,1452,-1295,-8053,1745144489389171543
741856,-13,10,-47,1422,-1284,-8022,1745144489389171543
742048,-16,8,-49,1369,-1288,-8018,1745144489389171543
742240,-17,6,-48,1336,-1270,-8004,1745144489389171543
742432,-18,5,-45,1305,-1281,-7997,1745144489389171543
742624,-22,6,-41,1300,-1261,-8015,1745144489389171543
742816,-27,9,-35,1312,-1234,-8027,1745144489389171543
743008,-34,14,-27,1336,-1229,-8063,1745144489389171543
743200,-40,19,-19,1363,-1215,-8072,1745144489448183088
743392,-42,21,-12,1408,-1203,-8062,1745144489448183088
743584,-42,20,-9,1425,-1206,-8042,1745144489448183088
743776,-42,19,-8,1426,-1183,-8048,1745144489448183088
743968,-42,18,-10,1395,-1141,-8053,1745144489448183088
744160,-40,19,-13,1339,-1072,-8074,1745144489448183088
744352,-34,20,-16,1314,-1008,-8065,1745144489448183088
744544,-23,19,-18,1321,-961,-8029,1745144489448183088
744736,-11,17,-19,1337,-947,-8053,1745144489448183088
744928,-1,11,-21,1389,-945,-8033,1745144489448183088
745120,3,1,-24,1442,-1033,-7977,1745144489448183088
745312,1,-9,-25,1477,-1147,-7939,1745144489448183088
745504,-1,-13,-26,1472,-1222,-7911,1745144489505610792
745696,-6,-14,-27,1427,-1227,-7929,1745144489505610792
745888,-19,-13,-30,1362,-1173,-7964,1745144489505610792
746080,-36,-9,-34,1285,-1093,-7988,1745144489505610792
746272,-46,-8,-36,1241,-1048,-7976,1745144489505610792
746464,-47,-6,-36,1262,-1024,-7975,1745144489505610792
746656,-44,-3,-34,1315,-1012,-7956,1745144489505610792
746848,-39,1,-33,1378,-996,-7964,1745144489505610792
747040,-34,2,-32,1403,-981,-7962,1745144489505610792
747232,-25,1,-30,1399,-944,-7927,1745144489505610792
747424,-12,-3,-29,1381,-913,-7881,1745144489505610792
747616,2,-7,-30,1360,-883,-7857,1745144489505610792
747808,14,-7,-33,1332,-862,-7860,1745144489564437911
748000,22,-6,-35,1336,-883,-7879,1745144489564437911
748192,27,-7,-39,1344,-914,-7860,1745144489564437911
748384,29,-10,-42,1363,-972,-7815,1745144489564437911
748576,29,-15,-44,1366,-1017,-7729,1745144489564437911
748768,24,-18,-45,1373,-1056,-7709,1745144489564437911
748960,16,-18,-47,1333,-1097,-7708,1745144489564437911
749152,10,-16,-48,1272,-1082,-7718,1745144489564437911
749344,4,-9,-50,1235,-1026,-7736,1745144489564437911
749536,-6,-2,-50,1221,-981,-7720,1745144489564437911
749728,-15,4,-47,1280,-961,-7684,1745144489564437911
749920,-19,9,-40,1317,-975,-7655,1745144489564437911
750112,-22,12,-38,1364,-963,-7619,1745144489617867996
750304,-24,14,-38,1365,-951,-7595,1745144489617867996
750496,-30,16,-40,1365,-925,-7574,1745144489617867996
750688,-38,21,-43,1344,-921,-7576,1745144489617867996
750880,-43,26,-47,1333,-908,-7590,1745144489617867996
751072,-43,31,-48,1296,-879,-7606,1745144489617867996
751264,-41,36,-52,1289,-851,-7614,1745144489617867996
751456,-43,41,-58,1288,-842,-7629,1745144489617867996
751648,-42,46,-66,1287,-819,-7652,1745144489617867996
751840,-36,52,-71,1304,-810,-7655,1745144489617867996
752032,-23,57,-76,1318,-781,-7649,1745144489617867996
752224,-9,60,-82,1354,-774,-7639,1745144489617867996
752416,3,61,-86,1399,-797,-7666,1745144489678537025
752608,16,58,-91,1422,-838,-7679,1745144489678537025
752800,31,54,-96,1427,-895,-7696,1745144489678537025
752992,42,51,-102,1388,-951,-7726,1745144489678537025
753184,46,51,-107,1374,-1006,-7743,1745144489678537025
753376,43,54,-110,1343,-1052,-7775,1745144489678537025
753568,36,59,-109,1356,-1100,-7805,1745144489678537025
753760,27,64,-105,1377,-1147,-7810,1745144489678537025
753952,18,68,-102,1385,-1174,-7828,1745144489678537025
754144,9,71,-99,1382,-1164,-7848,1745144489678537025
754336,2,71,-99,1366,-1163,-7862,1745144489678537025
754528,-1,74,-100,1371,-1167,-7880,1745144489678537025
754720,-2,75,-99,1368,-1155,-7902,1745144489736464673
754912,1,76,-96,1391,-1179,-7903,1745144489736464673
755104,3,76,-91,1432,-1212,-7929,1745144489736464673
755296,7,77,-85,1437,-1218,-7968,1745144489736464673
755488,14,79,-79,1440,-1193,-8003,1745144489736464673
755680,20,80,-75,1449,-1192,-8052,1745144489736464673
755872,27,81,-73,1464,-1165,-8080,1745144489736464673
756064,34,80,-71,1473,-1180,-8087,1745144489736464673
756256,40,78,-69,1503,-1209,-8084,1745144489736464673
756448,46,75,-65,1499,-1248,-8089,1745144489736464673
756640,52,73,-62,1506,-1271,-8083,1745144489736464673
756832,57,71,-60,1473,-1263,-8113,1745144489736464673
757024,56,71,-58,1435,-1257,-8138,1745144489798425774
757216,53,72,-55,1428,-1239,-8129,1745144489798425774
757408,53,71,-53,1430,-1242,-8157,1745144489798425774
757600,51,69,-51,1475,-1275,-8175,1745144489798425774
757792,50,67,-48,1534,-1296,-8171,1745144489798425774
757984,48,64,-47,1586,-1329,-8194,1745144489798425774
758176,44,60,-46,1578,-1315,-8211,1745144489798425774
758368,38,55,-47,1577,-1291,-8209,1745144489798425774
758560,33,50,-48,1546,-1260,-8216,1745144489798425774
758752,32,45,-49,1520,-1245,-8214,1745144489798425774
758944,32,39,-48,1486,-1228,-8222,1745144489798425774
759136,32,35,-48,1468,-1212,-8210,1745144489798425774
759328,30,30,-47,1474,-1206,-8201,1745144489859293290
759520,27,25,-46,1491,-1225,-8158,1745144489859293290
759712,24,19,-43,1530,-1255,-8125,1745144489859293290
759904,21,15,-40,1546,-1276,-8092,1745144489859293290
760096,19,12,-37,1557,-1270,-8069,1745144489859293290
760288,14,11,-36,1579,-1271,-8090,1745144489859293290
760480,8,9,-35,1600,-1266,-8063,1745144489859293290
760672,4,8,-35,1601,-1252,-8045,1745144489859293290
760864,2,5,-35,1579,-1245,-8042,1745144489859293290
761056,0,3,-35,1560,-1233,-8041,1745144489859293290
761248,-4,-1,-34,1527,-1251,-8024,1745144489859293290
761440,-6,-4,-33,1513,-1301,-8007,1745144489859293290
761632,-7,-4,-30,1511,-1315,-7976,1745144489909982098
761824,-10,-2,-25,1500,-1338,-7979,1745144489909982098
762016,-18,0,-22,1485,-1316,-8003,1745144489909982098
762208,-25,5,-16,1491,-1279,-8014,1745144489909982098
762400,-29,11,-11,1484,-1221,-8033,1745144489909982098
762592,-32,14,-7,1508,-1178,-8047,1745144489909982098
762784,-28,15,-5,1542,-1151,-8032,1745144489909982098
762976,-23,12,-5,1557,-1125,-8034,1745144489909982098
763168,-19,9,-7,1553,-1107,-8042,1745144489909982098
763360,-16,8,-9,1557,-1105,-8037,1745144489909982098
763552,-14,8,-12,1543,-1092,-8033,1745144489909982098
763744,-13,7,-15,1535,-1097,-8042,1745144489909982098
763936,-14,6,-17,1534,-1073,-8034,1745144489973466622
764128,-12,4,-20,1532,-1100,-7996,1745144489973466622
764320,-9,-1,-21,1550,-1101,-7970,1745144489973466622
764512,-7,-4,-23,1537,-1121,-7981,1745144489973466622
764704,-7,-4,-26,1519,-1143,-8004,1745144489973466622
764896,-6,-7,-29,1508,-1128,-7989,1745144489973466622
765088,-8,-10,-30,1517,-1127,-7947,1745144489973466622
