timestamp,gyr_x,gyr_y,gyr_z,acc_x,acc_y,acc_z,pkt_time_ns
146079,262,-181,22,-732,1670,-7229,1745143550061817509
146271,59,-48,1,-866,954,-8369,1745143550061817509
146463,-22,-44,-10,-777,1241,-7897,1745143550061817509
146655,-12,-45,10,-801,1349,-8054,1745143550061817509
146847,-28,-19,25,-696,1537,-8060,1745143550061817509
147039,7,-31,22,-631,1686,-8016,1745143550061817509
147231,23,-32,16,-627,1689,-8071,1745143550061817509
147423,32,-19,7,-648,1461,-8082,1745143550061817509
147615,32,-27,-1,-692,1235,-8082,1745143550061817509
147807,17,-17,5,-736,1254,-8104,1745143550061817509
147999,23,-7,17,-751,1345,-8102,1745143550061817509
148191,24,-4,22,-689,1371,-8135,1745143550061817509
148383,16,6,16,-679,1321,-8237,1745143550115566809
148575,12,19,8,-758,1148,-8341,1745143550115566809
148767,-2,38,2,-762,1116,-8493,1745143550115566809
148959,-3,63,4,-714,1383,-8634,1745143550115566809
149151,17,72,8,-618,1635,-8742,1745143550115566809
149343,37,75,7,-438,1710,-8678,1745143550115566809
149535,67,81,1,-332,1876,-8585,1745143550115566809
149727,109,90,-3,-395,1829,-8460,1745143550115566809
149919,64,50,-10,-760,753,-7852,1745143550115566809
150111,21,122,-19,-664,1951,-8917,1745143550115566809
150303,163,95,6,-637,1859,-7377,1745143550115566809
150495,127,171,21,-565,1652,-8878,1745143550115566809
150687,70,436,110,-554,980,-8588,1745143550175939435
150879,-115,396,58,-264,-1148,-4536,1745143550175939435
151071,-334,15,-210,-280,-2345,-7106,1745143550175939435
151263,-331,66,-265,-1071,-395,-7688,1745143550175939435
151455,-388,22,-119,-1062,971,-7300,1745143550175939435
151647,-376,66,-17,-1073,2239,-7739,1745143550175939435
151839,-292,55,1,-727,2722,-7912,1745143550175939435
152031,-161,59,-80,-575,3104,-7969,1745143550175939435
152223,-53,58,-98,-364,2752,-8081,1745143550175939435
152415,28,45,-104,-269,2294,-8080,1745143550175939435
152607,71,27,-85,-301,1834,-8053,1745143550175939435
152799,70,6,-50,-437,1497,-8001,1745143550175939435
152991,57,-7,-20,-612,1288,-7926,1745143550234662857
153183,39,-4,-7,-774,1182,-7929,1745143550234662857
153375,25,5,-7,-840,1140,-7910,1745143550234662857
153567,16,20,-13,-785,1110,-7956,1745143550234662857
153759,3,32,-21,-686,1107,-7985,1745143550234662857
153951,-10,38,-24,-546,1125,-8011,1745143550234662857
154143,-22,39,-21,-446,1189,-8024,1745143550234662857
154335,-36,35,-16,-392,1291,-8021,1745143550234662857
154527,-45,26,-13,-377,1410,-8010,1745143550234662857
154719,-45,19,-11,-432,1530,-8007,1745143550234662857
154911,-40,14,-12,-478,1592,-8005,1745143550234662857
155103,-30,12,-15,-530,1594,-8016,1745143550234662857
155295,-22,11,-17,-559,1560,-8021,1745143550291592597
155487,-15,12,-19,-591,1498,-7988,1745143550291592597
155679,-10,14,-18,-583,1412,-7976,1745143550291592597
155871,-11,15,-18,-575,1365,-7963,1745143550291592597
156063,-15,14,-19,-554,1323,-7965,1745143550291592597
156255,-20,12,-21,-542,1293,-7954,1745143550291592597
156447,-23,11,-23,-568,1289,-7930,1745143550291592597
156639,-23,10,-23,-571,1296,-7927,1745143550291592597
156831,-22,10,-26,-587,1310,-7930,1745143550291592597
157023,-20,10,-30,-606,1331,-7936,1745143550291592597
157215,-17,10,-33,-621,1347,-7952,1745143550291592597
157407,-15,12,-35,-625,1357,-7944,1745143550291592597
157599,-14,13,-37,-632,1371,-7946,1745143550351598351
157791,-14,14,-39,-650,1382,-7947,1745143550351598351
157983,-14,15,-40,-622,1384,-7934,1745143550351598351
158175,-15,13,-41,-618,1391,-7920,1745143550351598351
158367,-18,12,-42,-609,1397,-7913,1745143550351598351
158559,-21,11,-44,-620,1401,-7927,1745143550351598351
158751,-23,9,-46,-621,1404,-7915,1745143550351598351
158943,-22,7,-48,-608,1387,-7942,1745143550351598351
159135,-21,8,-49,-614,1379,-7946,1745143550351598351
159327,-24,8,-50,-606,1376,-7950,1745143550351598351
159519,-28,6,-51,-610,1363,-7954,1745143550351598351
159711,-30,5,-50,-623,1395,-7941,1745143550351598351
159903,-31,6,-49,-628,1419,-7962,1745143550408679080
160095,-30,6,-48,-638,1437,-7946,1745143550408679080
160287,-30,7,-48,-639,1470,-7932,1745143550408679080
160479,-30,7,-49,-619,1467,-7925,1745143550408679080
160671,-28,7,-50,-618,1465,-7917,1745143550408679080
160863,-27,7,-50,-616,1450,-7916,1745143550408679080
161055,-26,7,-49,-614,1445,-7914,1745143550408679080
161247,-26,8,-49,-608,1468,-7921,1745143550408679080
161439,-23,8,-49,-629,1471,-7931,1745143550408679080
161631,-20,9,-50,-627,1465,-7926,1745143550408679080
161823,-18,12,-51,-618,1447,-7922,1745143550408679080
162015,-17,16,-53,-606,1444,-7960,1745143550408679080
162207,-16,18,-52,-588,1425,-8046,1745143550468387961
162399,-14,18,-51,-572,1441,-8126,1745143550468387961
162591,-13,17,-51,-563,1461,-8154,1745143550468387961
162783,-12,16,-52,-572,1456,-8130,1745143550468387961
162975,-8,16,-52,-598,1432,-8064,1745143550468387961
163167,-6,16,-51,-612,1374,-7969,1745143550468387961
163359,-8,16,-48,-639,1341,-7898,1745143550468387961
163551,-14,18,-47,-643,1333,-7893,1745143550468387961
163743,-18,18,-46,-648,1375,-7899,1745143550468387961
163935,-18,20,-46,-640,1425,-7869,1745143550468387961
164127,-14,25,-48,-607,1449,-7859,1745143550468387961
164319,-7,29,-52,-586,1468,-7877,1745143550468387961
164511,-1,31,-54,-546,1450,-7938,1745143550525609574
164703,6,29,-55,-532,1451,-7992,1745143550525609574
164895,11,25,-56,-543,1451,-8064,1745143550525609574
165087,12,20,-58,-571,1492,-8091,1745143550525609574
165279,12,18,-61,-616,1506,-8076,1745143550525609574
165471,9,17,-64,-656,1528,-8039,1745143550525609574
165663,10,18,-63,-686,1504,-7983,1745143550525609574
165855,12,21,-62,-655,1466,-7927,1745143550525609574
166047,10,23,-61,-617,1434,-7894,1745143550525609574
166239,4,26,-60,-581,1421,-7888,1745143550525609574
166431,4,26,-57,-537,1418,-7874,1745143550525609574
166623,5,24,-53,-497,1436,-7887,1745143550525609574
166815,6,23,-49,-449,1436,-7901,1745143550584930334
167007,11,21,-45,-434,1413,-7987,1745143550584930334
167199,19,17,-42,-452,1398,-8065,1745143550584930334
167391,24,13,-41,-455,1359,-8132,1745143550584930334
167583,26,9,-39,-485,1338,-8158,1745143550584930334
167775,23,8,-39,-551,1312,-8102,1745143550584930334
167967,18,12,-37,-585,1306,-8039,1745143550584930334
168159,10,19,-35,-611,1323,-8006,1745143550584930334
168351,4,26,-31,-577,1353,-8002,1745143550584930334
168543,1,30,-28,-540,1387,-7989,1745143550584930334
168735,1,33,-28,-511,1416,-7960,1745143550584930334
168927,2,36,-30,-470,1431,-7950,1745143550584930334
169119,3,36,-33,-472,1457,-7951,1745143550643883546
169311,3,35,-37,-505,1453,-7988,1745143550643883546
169503,6,33,-39,-514,1459,-8034,1745143550643883546
169695,9,31,-40,-568,1475,-8087,1745143550643883546
169887,12,32,-42,-619,1456,-8097,1745143550643883546
170079,15,34,-45,-653,1450,-8063,1745143550643883546
170271,15,37,-44,-673,1410,-8011,1745143550643883546
170463,13,43,-41,-684,1376,-7971,1745143550643883546
170655,7,48,-35,-639,1347,-7943,1745143550643883546
170847,2,53,-27,-616,1335,-7932,1745143550643883546
171039,-1,57,-22,-596,1356,-7926,1745143550643883546
171231,-3,60,-19,-548,1359,-7938,1745143550643883546
171423,-1,63,-16,-523,1368,-7988,1745143550700876983
171615,6,65,-14,-510,1370,-8044,1745143550700876983
171807,14,66,-12,-507,1365,-8080,1745143550700876983
171999,22,65,-11,-526,1347,-8087,1745143550700876983
172191,22,67,-12,-563,1354,-8100,1745143550700876983
172383,17,69,-14,-589,1358,-8077,1745143550700876983
172575,10,74,-13,-618,1381,-8036,1745143550700876983
172767,5,80,-11,-605,1397,-7998,1745143550700876983
172959,3,86,-9,-604,1405,-7973,1745143550700876983
173151,1,92,-6,-552,1447,-7980,1745143550700876983
173343,2,96,-3,-514,1470,-7990,1745143550700876983
173535,2,100,-2,-474,1486,-8025,1745143550700876983
173727,3,101,-3,-465,1504,-8027,1745143550760459929
173919,6,100,-5,-451,1504,-8034,1745143550760459929
174111,11,99,-4,-443,1468,-8041,1745143550760459929
174303,16,99,-1,-462,1448,-8049,1745143550760459929
174495,21,99,0,-458,1378,-8022,1745143550760459929
174687,23,98,2,-474,1333,-8009,1745143550760459929
174879,22,98,5,-492,1298,-7956,1745143550760459929
175071,18,100,8,-489,1279,-7940,1745143550760459929
175263,15,102,13,-479,1270,-7935,1745143550760459929
175455,11,102,16,-449,1261,-7938,1745143550760459929
175647,9,102,18,-426,1294,-7958,1745143550760459929
175839,7,101,21,-416,1332,-7959,1745143550760459929
176031,7,100,23,-421,1365,-7993,1745143550817373315
176223,10,98,25,-439,1386,-7992,1745143550817373315
176415,16,98,25,-437,1376,-8008,1745143550817373315
176607,18,98,25,-434,1366,-8024,1745143550817373315
176799,16,98,24,-442,1370,-8031,1745143550817373315
176991,11,97,24,-454,1371,-8016,1745143550817373315
177183,5,97,25,-470,1404,-7986,1745143550817373315
177375,1,99,27,-466,1424,-7940,1745143550817373315
177567,1,101,29,-445,1427,-7932,1745143550817373315
177759,0,103,31,-425,1418,-7953,1745143550817373315
177951,1,106,32,-392,1399,-7993,1745143550817373315
178143,2,110,32,-383,1409,-8047,1745143550817373315
178335,3,113,30,-356,1393,-8079,1745143550877260580
178527,4,115,29,-355,1383,-8100,1745143550877260580
178719,5,117,30,-347,1354,-8091,1745143550877260580
178911,5,121,33,-347,1323,-8076,1745143550877260580
179103,1,126,37,-346,1323,-8058,1745143550877260580
179295,-1,131,40,-351,1322,-8058,1745143550877260580
179487,-4,137,40,-346,1296,-8056,1745143550877260580
179679,-6,143,37,-373,1286,-8027,1745143550877260580
179871,-6,153,34,-366,1289,-8027,1745143550877260580
180063,-3,163,28,-359,1274,-8064,1745143550877260580
180255,0,175,26,-337,1271,-8117,1745143550877260580
180447,2,187,23,-309,1281,-8161,1745143550877260580
180639,1,197,19,-310,1275,-8198,1745143550934520526
180831,-3,209,14,-314,1280,-8229,1745143550934520526
181023,-7,221,7,-309,1284,-8226,1745143550934520526
181215,-14,234,0,-326,1274,-8237,1745143550934520526
181407,-21,249,-7,-300,1269,-8236,1745143550934520526
181599,-29,262,-15,-300,1256,-8245,1745143550934520526
181791,-38,278,-22,-294,1268,-8230,1745143550934520526
181983,-47,295,-30,-287,1224,-8208,1745143550934520526
182175,-58,314,-39,-268,1209,-8195,1745143550934520526
182367,-68,334,-48,-262,1173,-8181,1745143550934520526
182559,-79,355,-58,-251,1158,-8204,1745143550934520526
182751,-88,381,-70,-260,1169,-8243,1745143550934520526
182943,-92,413,-86,-241,1179,-8314,1745143550994064461
183135,-91,451,-105,-209,1175,-8431,1745143550994064461
183327,-82,497,-127,-175,1131,-8567,1745143550994064461
183519,-64,547,-152,-116,1084,-8674,1745143550994064461
183711,-44,603,-181,-52,1057,-8795,1745143550994064461
183903,-30,664,-210,-17,1053,-8943,1745143550994064461
184095,-27,726,-243,-10,1030,-9132,1745143550994064461
184287,-21,793,-279,9,989,-9339,1745143550994064461
184479,5,871,-320,55,919,-9569,1745143550994064461
184671,59,964,-361,154,785,-9854,1745143550994064461
184863,148,1066,-407,290,640,-10122,1745143550994064461
185055,244,1169,-459,462,557,-10294,1745143550994064461
185247,358,1299,-518,685,439,-9860,1745143551051616383
185439,530,1440,-568,1041,158,-9912,1745143551051616383
185631,736,1551,-574,1475,-171,-10135,1745143551051616383
185823,1006,1638,-561,1858,-470,-10142,1745143551051616383
186015,1268,1724,-545,2195,-742,-10262,1745143551051616383
186207,1524,1814,-534,2468,-1110,-10119,1745143551051616383
186399,1757,1885,-524,2849,-1833,-9871,1745143551051616383
186591,1933,1897,-502,3433,-2844,-10095,1745143551051616383
186783,2033,1887,-455,3586,-3490,-11156,1745143551051616383
186975,2091,1906,-379,3295,-3686,-11252,1745143551051616383
187167,2134,1960,-268,3259,-4009,-11422,1745143551051616383
187359,2216,2003,-192,3399,-4518,-11584,1745143551051616383
187551,2313,2010,-163,3814,-5014,-11532,1745143551111766303
187743,2312,2053,-66,4691,-6179,-11349,1745143551111766303
187935,2360,2092,121,5702,-8327,-11333,1745143551111766303
188127,2463,1952,181,6143,-8826,-11622,1745143551111766303
188319,2480,1756,349,6524,-8922,-12095,1745143551111766303
188511,2411,1582,484,6460,-8517,-11841,1745143551111766303
188703,2311,1434,566,6163,-7803,-11285,1745143551111766303
188895,2196,1337,624,5852,-6888,-10192,1745143551111766303
189087,2007,1294,690,5890,-6249,-9172,1745143551111766303
189279,1705,1262,770,6231,-6031,-7754,1745143551111766303
189471,1320,1215,857,6802,-5959,-7052,1745143551111766303
189663,853,1134,966,7372,-5815,-6673,1745143551111766303
189855,409,1043,1145,7664,-5562,-6687,1745143551164562800
190047,135,970,1453,7744,-5130,-6877,1745143551164562800
190239,79,884,1892,7857,-4810,-6975,1745143551164562800
190431,168,746,2394,8071,-5054,-6944,1745143551164562800
190623,334,530,2875,8291,-5958,-6806,1745143551164562800
190815,486,275,3271,8346,-7318,-6694,1745143551164562800
191007,554,42,3574,8018,-8920,-6625,1745143551164562800
191199,509,-105,3820,7316,-10159,-6458,1745143551164562800
191391,354,-133,4015,6322,-11080,-6258,1745143551164562800
191583,166,-86,4154,5368,-11531,-6298,1745143551164562800
191775,-43,20,4241,4803,-11404,-6572,1745143551164562800
191967,-302,146,4278,4800,-10793,-6891,1745143551164562800
192159,-609,258,4272,5270,-9819,-7123,1745143551224778864
192351,-936,345,4252,5952,-8562,-7278,1745143551224778864
192543,-1225,415,4252,6673,-7122,-7329,1745143551224778864
192735,-1441,475,4294,7339,-5676,-7311,1745143551224778864
192927,-1555,527,4385,7873,-4233,-7245,1745143551224778864
193119,-1589,564,4514,8268,-2939,-7209,1745143551224778864
193311,-1552,571,4667,8590,-1859,-7177,1745143551224778864
193503,-1469,540,4830,8751,-1107,-7120,1745143551224778864
193695,-1351,482,4990,8747,-657,-7047,1745143551224778864
193887,-1216,424,5144,8567,-446,-6955,1745143551224778864
194079,-1087,391,5284,8273,-416,-6852,1745143551224778864
194271,-992,395,5396,8025,-546,-6755,1745143551224778864
194463,-951,426,5477,7841,-752,-6534,1745143551282414327
194655,-967,475,5531,7759,-978,-6249,1745143551282414327
194847,-1023,527,5569,7851,-1201,-5984,1745143551282414327
195039,-1108,576,5596,8006,-1288,-5666,1745143551282414327
195231,-1203,624,5601,8207,-1221,-5403,1745143551282414327
195423,-1286,663,5581,8380,-952,-5244,1745143551282414327
195615,-1336,697,5536,8542,-539,-5018,1745143551282414327
195807,-1357,713,5479,8782,-111,-5204,1745143551282414327
195999,-1325,730,5422,8882,542,-5210,1745143551282414327
196191,-1276,756,5374,9010,1134,-5375,1745143551282414327
196383,-1204,775,5312,9277,1546,-5503,1745143551282414327
196575,-1121,786,5249,9406,2279,-5605,1745143551282414327
196767,-1029,785,5264,9557,2573,-5673,1745143551342108469
196959,-931,780,5271,9650,2840,-5774,1745143551342108469
197151,-832,778,5266,9691,2976,-5841,1745143551342108469
197343,-738,782,5223,9538,3178,-5905,1745143551342108469
197535,-648,802,5221,9273,3472,-5915,1745143551342108469
197727,-568,840,5294,9156,3476,-5919,1745143551342108469
197919,-509,887,5344,9137,3282,-5864,1745143551342108469
198111,-471,934,5351,9107,3088,-5783,1745143551342108469
198303,-458,976,5337,9091,2872,-5702,1745143551342108469
198495,-462,1016,5311,9002,2666,-5523,1745143551342108469
198687,-482,1058,5276,8892,2492,-5464,1745143551342108469
198879,-514,1091,5235,8838,2367,-5287,1745143551342108469
199071,-570,1111,5181,8822,2274,-5196,1745143551398686546
199263,-636,1123,5115,8734,2236,-5033,1745143551398686546
199455,-705,1130,5040,8628,2311,-4957,1745143551398686546
199647,-768,1142,4970,8473,2484,-4941,1745143551398686546
199839,-826,1141,4899,8376,2641,-4916,1745143551398686546
200031,-874,1124,4812,8304,2778,-5002,1745143551398686546
200223,-902,1098,4713,8243,2938,-5099,1745143551398686546
200415,-914,1065,4617,8088,3142,-5210,1745143551398686546
200607,-915,1029,4539,7936,3341,-5276,1745143551398686546
200799,-908,984,4463,7769,3431,-5322,1745143551398686546
200991,-898,925,4361,7509,3506,-5370,1745143551398686546
201183,-888,861,4236,7188,3585,-5369,1745143551398686546
201375,-883,795,4098,6783,3617,-5368,1745143551460736813
201567,-886,736,3962,6263,3732,-5495,1745143551460736813
201759,-889,691,3834,5736,3686,-5596,1745143551460736813
201951,-901,642,3686,5209,3680,-5682,1745143551460736813
202143,-922,598,3532,4689,3698,-5761,1745143551460736813
202335,-951,563,3373,4172,3745,-5883,1745143551460736813
202527,-982,541,3214,3711,3832,-6056,1745143551460736813
202719,-1004,527,3059,3284,3961,-6181,1745143551460736813
202911,-1011,521,2903,2920,4125,-6245,1745143551460736813
203103,-1002,507,2746,2604,4260,-6268,1745143551460736813
203295,-971,474,2585,2481,4423,-6460,1745143551460736813
203487,-922,475,2427,2332,4493,-6517,1745143551460736813
203679,-854,468,2259,2195,4483,-6468,1745143551515370480
203871,-769,433,2082,2094,4514,-6551,1745143551515370480
204063,-683,400,1904,1996,4509,-6602,1745143551515370480
204255,-596,362,1730,1866,4500,-6686,1745143551515370480
204447,-506,324,1562,1729,4551,-6814,1745143551515370480
204639,-409,286,1399,1582,4558,-6923,1745143551515370480
204831,-309,248,1238,1472,4492,-7009,1745143551515370480
205023,-201,213,1086,1360,4320,-7040,1745143551515370480
205215,-89,184,947,1289,4025,-7038,1745143551515370480
205407,14,165,825,1276,3635,-6997,1745143551515370480
205599,99,159,720,1280,3188,-7011,1745143551515370480
205791,161,161,631,1307,2760,-7069,1745143551515370480
205983,197,166,554,1352,2348,-7088,1745143551580855872
206175,215,163,488,1412,1963,-7139,1745143551580855872
206367,220,155,429,1458,1652,-7153,1745143551580855872
206559,218,148,381,1461,1415,-7231,1745143551580855872
206751,211,143,346,1469,1222,-7350,1745143551580855872
206943,203,142,320,1493,1023,-7411,1745143551580855872
207135,192,147,302,1546,848,-7453,1745143551580855872
207327,176,154,292,1623,650,-7480,1745143551580855872
207519,152,164,289,1708,439,-7565,1745143551580855872
207711,126,177,294,1799,247,-7633,1745143551580855872
207903,103,189,305,1870,86,-7631,1745143551580855872
208095,84,193,321,1908,16,-7625,1745143551580855872
208287,65,190,337,1895,-12,-7563,1745143551632116654
208287,65,190,337,1895,-12,-7563,1745143551632116654
208671,22,181,362,1760,-18,-7519,1745143551632116654
208863,11,180,366,1697,-78,-7508,1745143551632116654
209055,7,178,363,1649,-126,-7525,1745143551632116654
209247,8,177,352,1639,-180,-7603,1745143551632116654
209439,12,178,335,1608,-235,-7693,1745143551632116654
209631,16,182,321,1618,-243,-7792,1745143551632116654
209823,20,185,308,1622,-231,-7836,1745143551632116654
210015,25,187,295,1605,-220,-7897,1745143551632116654
210207,34,187,283,1619,-226,-7958,1745143551632116654
210399,48,184,269,1611,-244,-8014,1745143551632116654
210591,70,182,255,1615,-282,-8084,1745143551697425067
210783,99,179,241,1605,-300,-8117,1745143551697425067
210975,124,178,225,1615,-311,-8152,1745143551697425067
211167,142,175,205,1589,-329,-8138,1745143551697425067
211359,160,171,188,1555,-396,-8207,1745143551697425067
211551,182,170,173,1564,-474,-8208,1745143551697425067
211743,207,169,160,1597,-600,-8145,1745143551697425067
211935,223,167,148,1639,-747,-8094,1745143551697425067
212127,224,167,134,1694,-889,-8063,1745143551697425067
212319,217,165,120,1734,-1007,-8033,1745143551697425067
212511,204,156,105,1754,-1104,-8008,1745143551697425067
212703,187,141,87,1743,-1181,-7956,1745143551697425067
212895,165,125,67,1725,-1248,-7911,1745143551754892824
213087,143,111,50,1680,-1285,-7914,1745143551754892824
213279,122,103,36,1657,-1289,-7942,1745143551754892824
213471,103,99,23,1627,-1290,-8017,1745143551754892824
213663,87,97,8,1622,-1331,-8071,1745143551754892824
213855,77,91,-8,1638,-1364,-8103,1745143551754892824
214047,73,84,-21,1626,-1439,-8139,1745143551754892824
214239,76,79,-30,1625,-1494,-8137,1745143551754892824
214431,78,76,-35,1625,-1527,-8116,1745143551754892824
214623,80,78,-37,1623,-1540,-8114,1745143551754892824
214815,84,84,-36,1662,-1547,-8112,1745143551754892824
215007,93,90,-36,1670,-1579,-8095,1745143551754892824
215199,107,95,-37,1738,-1602,-8099,1745143551814438321
215391,125,99,-38,1798,-1637,-8127,1745143551814438321
215583,142,102,-37,1825,-1669,-8101,1745143551814438321
215775,160,100,-36,1867,-1710,-8050,1745143551814438321
215967,175,94,-33,1914,-1797,-7991,1745143551814438321
216159,188,83,-27,1913,-1899,-7960,1745143551814438321
216351,200,72,-20,1898,-1936,-7947,1745143551814438321
216543,209,65,-14,1862,-1930,-7930,1745143551814438321
216735,212,69,-8,1806,-1866,-7914,1745143551814438321
216927,210,76,-2,1783,-1814,-7891,1745143551814438321
217119,207,81,7,1853,-1833,-7877,1745143551814438321
217311,208,83,14,1936,-1861,-7866,1745143551814438321
217503,213,82,29,2007,-1940,-7890,1745143551872282533
217695,217,79,43,2103,-2000,-7897,1745143551872282533
217887,210,79,53,2192,-2063,-7934,1745143551872282533
218079,195,80,53,2201,-2104,-7940,1745143551872282533
218271,177,72,48,2199,-2122,-7903,1745143551872282533
218463,162,53,43,2177,-2130,-7897,1745143551872282533
218655,147,30,31,2121,-2108,-7927,1745143551872282533
218847,132,8,17,2039,-2049,-7965,1745143551872282533
219039,115,-8,3,1976,-1994,-7957,1745143551872282533
219231,103,-14,-6,1905,-1954,-7921,1745143551872282533
219423,92,-2,-6,1928,-1937,-7960,1745143551872282533
219615,76,20,-4,1921,-1980,-7849,1745143551872282533
219807,66,22,-2,1979,-2002,-7895,1745143551924692106
219999,56,24,-3,2003,-2014,-7921,1745143551924692106
220191,47,19,-5,2044,-1974,-7926,1745143551924692106
220383,40,14,-8,2024,-1918,-7898,1745143551924692106
220575,33,10,-12,2023,-1873,-7871,1745143551924692106
220767,28,4,-17,2018,-1888,-7859,1745143551924692106
220959,26,-3,-23,2023,-1897,-7889,1745143551924692106
221151,26,-10,-33,2006,-1917,-7911,1745143551924692106
221343,27,-17,-42,1992,-1917,-7908,1745143551924692106
221535,24,-23,-52,1968,-1926,-7898,1745143551924692106
221727,18,-31,-62,1947,-1935,-7927,1745143551924692106
221919,15,-36,-67,1919,-1936,-7931,1745143551924692106
222111,15,-38,-68,1901,-1940,-7915,1745143551989999843
222303,15,-40,-68,1896,-1938,-7906,1745143551989999843
222495,13,-39,-68,1921,-1939,-7859,1745143551989999843
222687,12,-39,-68,1951,-1953,-7816,1745143551989999843
222879,10,-42,-71,1969,-1998,-7805,1745143551989999843
223071,12,-47,-73,1959,-2050,-7749,1745143551989999843
223263,18,-53,-73,1961,-2078,-7729,1745143551989999843
223455,21,-55,-75,1931,-2064,-7753,1745143551989999843
223647,20,-55,-74,1920,-2061,-7732,1745143551989999843
223839,19,-53,-72,1896,-2048,-7706,1745143551989999843
224031,19,-52,-69,1874,-2064,-7678,1745143551989999843
224223,21,-52,-67,1876,-2083,-7650,1745143551989999843
224415,23,-50,-64,1885,-2112,-7639,1745143552041408019
224415,23,-50,-64,1885,-2112,-7639,1745143552041408019
224607,24,-46,-63,1849,-2072,-7667,1745143552041408019
224799,23,-40,-64,1837,-2047,-7668,1745143552041408019
224991,21,-37,-69,1856,-2028,-7636,1745143552041408019
225183,21,-36,-71,1870,-2029,-7611,1745143552041408019
225375,24,-34,-70,1911,-2025,-7602,1745143552041408019
225567,25,-34,-68,1959,-2043,-7588,1745143552041408019
225759,21,-37,-67,1993,-2088,-7566,1745143552041408019
225951,17,-42,-68,1989,-2161,-7542,1745143552041408019
226143,15,-48,-69,1963,-2226,-7526,1745143552041408019
226335,12,-52,-71,1933,-2281,-7533,1745143552041408019
226527,9,-52,-74,1882,-2292,-7540,1745143552102151110
226719,5,-51,-76,1865,-2284,-7540,1745143552102151110
226911,1,-46,-78,1844,-2296,-7530,1745143552102151110
227103,0,-44,-81,1818,-2313,-7534,1745143552102151110
227295,3,-43,-82,1808,-2328,-7548,1745143552102151110
227487,8,-40,-79,1819,-2293,-7571,1745143552102151110
227679,10,-37,-76,1820,-2249,-7570,1745143552102151110
227871,11,-33,-72,1835,-2238,-7527,1745143552102151110
228063,13,-28,-66,1857,-2225,-7501,1745143552102151110
228255,16,-28,-60,1895,-2223,-7480,1745143552102151110
228447,17,-30,-55,1899,-2222,-7457,1745143552102151110
228639,12,-32,-52,1905,-2229,-7442,1745143552102151110
228831,8,-38,-50,1891,-2235,-7470,1745143552158283930
229023,2,-43,-48,1907,-2238,-7483,1745143552158283930
229215,-8,-43,-48,1894,-2250,-7497,1745143552158283930
229407,-21,-41,-49,1881,-2235,-7464,1745143552158283930
229599,-31,-42,-50,1822,-2257,-7452,1745143552158283930
229791,-36,-46,-55,1795,-2263,-7457,1745143552158283930
229983,-38,-47,-59,1789,-2250,-7477,1745143552158283930
230175,-35,-41,-62,1781,-2246,-7479,1745143552158283930
230367,-31,-33,-64,1799,-2200,-7490,1745143552158283930
230559,-24,-29,-66,1828,-2169,-7522,1745143552158283930
230751,-16,-25,-67,1857,-2130,-7553,1745143552158283930
230943,-7,-22,-68,1867,-2121,-7542,1745143552158283930
231135,6,-22,-66,1863,-2135,-7529,1745143552218748013
231327,20,-21,-64,1868,-2123,-7540,1745143552218748013
231519,31,-19,-62,1866,-2147,-7527,1745143552218748013
231711,37,-14,-61,1871,-2183,-7497,1745143552218748013
231903,40,-11,-59,1867,-2246,-7473,1745143552218748013
232095,41,-12,-59,1850,-2299,-7478,1745143552218748013
232287,40,-12,-58,1851,-2335,-7509,1745143552218748013
232479,35,-11,-58,1822,-2346,-7532,1745143552218748013
232671,29,-12,-57,1797,-2341,-7555,1745143552218748013
232863,22,-10,-55,1766,-2304,-7567,1745143552218748013
233055,18,-8,-52,1755,-2257,-7577,1745143552218748013
233247,13,-5,-49,1756,-2238,-7535,1745143552218748013
233439,13,-2,-45,1768,-2218,-7518,1745143552275011770
233631,18,0,-39,1788,-2186,-7537,1745143552275011770
233823,26,3,-33,1862,-2159,-7565,1745143552275011770
234015,29,5,-30,1944,-2156,-7554,1745143552275011770
234207,31,4,-29,1991,-2189,-7558,1745143552275011770
234399,32,-4,-30,2011,-2269,-7554,1745143552275011770
234591,32,-11,-32,2002,-2304,-7562,1745143552275011770
234783,29,-19,-32,1942,-2335,-7568,1745143552275011770
234975,22,-26,-34,1861,-2324,-7588,1745143552275011770
235167,10,-27,-37,1812,-2329,-7570,1745143552275011770
235359,-3,-24,-38,1800,-2355,-7558,1745143552275011770
235551,-13,-21,-37,1794,-2394,-7547,1745143552275011770
235743,-22,-19,-35,1791,-2406,-7559,1745143552335426895
235935,-31,-16,-33,1810,-2392,-7569,1745143552335426895
236127,-39,-8,-27,1826,-2363,-7589,1745143552335426895
236319,-46,-4,-20,1839,-2324,-7607,1745143552335426895
236511,-48,-6,-19,1853,-2270,-7588,1745143552335426895
236703,-47,-9,-22,1854,-2279,-7578,1745143552335426895
236895,-45,-8,-26,1860,-2314,-7544,1745143552335426895
237087,-41,-5,-27,1865,-2352,-7525,1745143552335426895
237279,-38,-5,-25,1827,-2406,-7526,1745143552335426895
237471,-40,-7,-21,1801,-2403,-7525,1745143552335426895
237663,-43,-7,-18,1754,-2365,-7555,1745143552335426895
237855,-45,-2,-15,1738,-2298,-7590,1745143552335426895
238047,-48,6,-12,1749,-2260,-7600,1745143552392897568
238239,-47,17,-7,1800,-2251,-7617,1745143552392897568
238431,-38,24,-2,1861,-2234,-7636,1745143552392897568
238623,-26,25,3,1914,-2208,-7664,1745143552392897568
238815,-16,24,5,1955,-2199,-7671,1745143552392897568
239007,-5,21,6,1953,-2165,-7671,1745143552392897568
239199,8,17,8,1933,-2172,-7647,1745143552392897568
239391,19,15,9,1892,-2205,-7605,1745143552392897568
239583,26,12,11,1850,-2248,-7566,1745143552392897568
239775,29,8,13,1809,-2332,-7562,1745143552392897568
239967,29,7,14,1791,-2367,-7563,1745143552392897568
240159,24,8,14,1771,-2384,-7571,1745143552392897568
240351,13,12,13,1770,-2393,-7593,1745143552452603690
240543,2,15,15,1780,-2383,-7639,1745143552452603690
240735,-5,18,15,1804,-2353,-7681,1745143552452603690
240927,-11,19,17,1829,-2283,-7700,1745143552452603690
241119,-12,18,17,1818,-2235,-7719,1745143552452603690
241311,-10,17,19,1840,-2194,-7716,1745143552452603690
241503,-6,21,21,1861,-2187,-7685,1745143552452603690
241695,0,25,24,1876,-2203,-7689,1745143552452603690
241887,9,24,26,1888,-2207,-7678,1745143552452603690
242079,18,20,26,1886,-2160,-7683,1745143552452603690
242271,23,15,24,1865,-2142,-7690,1745143552452603690
242463,25,13,21,1869,-2117,-7680,1745143552452603690
242655,28,10,18,1858,-2134,-7667,1745143552512038720
242847,30,8,15,1870,-2181,-7642,1745143552512038720
243039,28,7,13,1853,-2219,-7615,1745143552512038720
243231,24,4,12,1860,-2253,-7602,1745143552512038720
243423,14,0,9,1845,-2273,-7582,1745143552512038720
243615,1,-5,7,1815,-2283,-7585,1745143552512038720
243807,-11,-8,6,1780,-2273,-7588,1745143552512038720
243999,-22,-6,5,1769,-2246,-7589,1745143552512038720
244191,-34,-2,4,1787,-2225,-7605,1745143552512038720
244383,-43,2,5,1822,-2186,-7635,1745143552512038720
244575,-44,4,6,1857,-2160,-7621,1745143552512038720
244767,-42,6,7,1876,-2108,-7642,1745143552512038720
244959,-40,7,6,1907,-2072,-7627,1745143552568146176
245151,-39,3,3,1911,-2058,-7616,1745143552568146176
245343,-34,0,0,1878,-2058,-7623,1745143552568146176
245535,-27,-2,-4,1863,-2068,-7616,1745143552568146176
245727,-23,0,-6,1841,-2089,-7582,1745143552568146176
245919,-20,1,-9,1798,-2114,-7556,1745143552568146176
246111,-19,3,-11,1769,-2136,-7543,1745143552568146176
246303,-17,3,-11,1734,-2146,-7563,1745143552568146176
246495,-17,6,-13,1744,-2141,-7619,1745143552568146176
246687,-16,11,-14,1758,-2122,-7638,1745143552568146176
246879,-14,16,-13,1779,-2116,-7624,1745143552568146176
247071,-7,19,-9,1808,-2102,-7633,1745143552568146176
247263,1,20,-7,1839,-2071,-7647,1745143552628549739
247455,9,20,-6,1885,-2038,-7673,1745143552628549739
247647,14,20,-5,1927,-2055,-7672,1745143552628549739
247839,19,17,-4,1936,-2079,-7649,1745143552628549739
248031,27,11,-3,1950,-2106,-7641,1745143552628549739
248223,31,8,-1,1938,-2153,-7632,1745143552628549739
248415,31,5,0,1915,-2219,-7635,1745143552628549739
248607,25,2,0,1884,-2258,-7616,1745143552628549739
248799,19,-3,0,1844,-2282,-7591,1745143552628549739
248991,8,-5,1,1807,-2296,-7593,1745143552628549739
249183,-7,-3,2,1790,-2279,-7603,1745143552628549739
249375,-21,0,4,1802,-2251,-7607,1745143552628549739
249567,-31,1,6,1798,-2209,-7633,1745143552685741300
249759,-35,0,9,1791,-2148,-7660,1745143552685741300
249951,-36,1,9,1798,-2086,-7650,1745143552685741300
250143,-33,2,9,1816,-2041,-7657,1745143552685741300
250335,-24,3,9,1820,-2012,-7670,1745143552685741300
250527,-12,2,7,1829,-2003,-7690,1745143552685741300
250719,0,3,5,1859,-2013,-7694,1745143552685741300
250911,11,3,0,1855,-2038,-7676,1745143552685741300
251103,19,2,-5,1858,-2066,-7682,1745143552685741300
251295,23,-1,-11,1856,-2094,-7703,1745143552685741300
251487,25,-4,-16,1834,-2090,-7688,1745143552685741300
251679,24,-7,-20,1796,-2097,-7666,1745143552685741300
251871,22,-8,-25,1791,-2066,-7657,1745143552745303620
252063,19,-9,-29,1798,-2073,-7673,1745143552745303620
252255,16,-8,-32,1817,-2088,-7658,1745143552745303620
252447,10,-9,-34,1836,-2117,-7630,1745143552745303620
252639,2,-12,-35,1834,-2146,-7584,1745143552745303620
252831,-8,-15,-36,1838,-2175,-7554,1745143552745303620
253023,-15,-18,-35,1835,-2225,-7539,1745143552745303620
253215,-19,-20,-34,1835,-2242,-7557,1745143552745303620
253407,-26,-18,-32,1825,-2247,-7582,1745143552745303620
253599,-32,-14,-30,1830,-2251,-7592,1745143552745303620
253791,-36,-12,-28,1822,-2224,-7615,1745143552745303620
253983,-37,-10,-23,1828,-2200,-7648,1745143552745303620
254175,-33,-7,-19,1822,-2156,-7678,1745143552802623461
254367,-26,-4,-16,1832,-2129,-7650,1745143552802623461
254559,-20,-1,-13,1838,-2123,-7631,1745143552802623461
254751,-15,-1,-9,1867,-2149,-7612,1745143552802623461
254943,-10,-2,-5,1866,-2208,-7601,1745143552802623461
255135,-7,-5,-2,1863,-2256,-7602,1745143552802623461
255327,-5,-8,0,1804,-2277,-7620,1745143552802623461
255519,-8,-10,1,1762,-2245,-7621,1745143552802623461
255711,-16,-9,1,1729,-2194,-7642,1745143552802623461
255903,-22,-7,2,1707,-2145,-7654,1745143552802623461
256095,-25,-2,2,1745,-2104,-7655,1745143552802623461
256287,-23,1,2,1800,-2087,-7643,1745143552802623461
256479,-23,3,0,1840,-2092,-7657,1745143552862507862
256671,-20,2,-4,1877,-2082,-7658,1745143552862507862
256863,-16,-4,-8,1872,-2075,-7672,1745143552862507862
257055,-12,-10,-13,1856,-2062,-7631,1745143552862507862
257247,-7,-13,-16,1834,-2058,-7610,1745143552862507862
257439,-2,-12,-21,1839,-2095,-7600,1745143552862507862
257631,0,-11,-25,1842,-2156,-7608,1745143552862507862
257823,0,-12,-29,1837,-2216,-7602,1745143552862507862
258015,-2,-14,-32,1842,-2258,-7570,1745143552862507862
258207,-6,-17,-32,1833,-2257,-7562,1745143552862507862
258399,-10,-20,-33,1777,-2199,-7588,1745143552862507862
258591,-15,-20,-32,1751,-2141,-7620,1745143552862507862
258783,-18,-16,-30,1738,-2118,-7630,1745143552919761662
258975,-16,-9,-24,1771,-2121,-7585,1745143552919761662
259167,-12,-6,-17,1790,-2145,-7574,1745143552919761662
259359,-6,-5,-11,1812,-2169,-7576,1745143552919761662
259551,-2,-4,-6,1809,-2184,-7575,1745143552919761662
259743,0,-4,-5,1798,-2167,-7564,1745143552919761662
259935,0,-3,-4,1783,-2156,-7591,1745143552919761662
260127,0,0,-4,1778,-2163,-7598,1745143552919761662
260319,1,3,-3,1780,-2173,-7607,1745143552919761662
260511,7,8,-2,1791,-2160,-7592,1745143552919761662
260703,12,10,-2,1783,-2131,-7583,1745143552919761662
260895,16,10,-4,1803,-2121,-7596,1745143552919761662
261087,18,11,-8,1811,-2117,-7617,1745143552979620177
261279,21,12,-11,1842,-2180,-7601,1745143552979620177
261471,27,10,-13,1835,-2212,-7582,1745143552979620177
261663,30,7,-14,1821,-2244,-7561,1745143552979620177
261855,27,6,-14,1809,-2252,-7560,1745143552979620177
262047,21,4,-15,1819,-2240,-7585,1745143552979620177
262239,12,5,-15,1831,-2229,-7588,1745143552979620177
262431,1,6,-15,1845,-2242,-7569,1745143552979620177
262623,-8,4,-13,1855,-2244,-7550,1745143552979620177
262815,-15,1,-11,1867,-2268,-7532,1745143552979620177
263007,-20,0,-10,1853,-2243,-7549,1745143552979620177
263199,-23,-2,-8,1834,-2201,-7588,1745143552979620177
263391,-24,-3,-8,1824,-2156,-7627,1745143553036806009
263583,-23,-3,-9,1821,-2126,-7685,1745143553036806009
263775,-18,0,-9,1801,-2122,-7682,1745143553036806009
263967,-10,5,-7,1801,-2143,-7668,1745143553036806009
264159,-1,10,-4,1818,-2160,-7670,1745143553036806009
264351,3,14,-2,1856,-2188,-7664,1745143553036806009
264543,3,16,-2,1878,-2198,-7657,1745143553036806009
264735,0,15,-3,1888,-2208,-7645,1745143553036806009
264927,-1,13,-5,1866,-2207,-7633,1745143553036806009
265119,-1,11,-7,1832,-2194,-7599,1745143553036806009
265311,-2,9,-9,1801,-2180,-7610,1745143553036806009
265503,-1,7,-13,1774,-2196,-7636,1745143553036806009
265695,-3,9,-16,1768,-2187,-7647,1745143553096535724
265887,-8,11,-17,1769,-2178,-7666,1745143553096535724
266079,-11,12,-17,1763,-2176,-7662,1745143553096535724
266271,-13,15,-16,1795,-2183,-7632,1745143553096535724
266463,-14,18,-12,1836,-2194,-7603,1745143553096535724
266655,-14,20,-10,1865,-2203,-7604,1745143553096535724
266847,-10,19,-9,1930,-2240,-7595,1745143553096535724
267039,-4,16,-10,1931,-2253,-7619,1745143553096535724
267231,0,10,-11,1920,-2233,-7607,1745143553096535724
267423,2,5,-11,1878,-2175,-7599,1745143553096535724
267615,3,3,-10,1827,-2163,-7574,1745143553096535724
267807,4,3,-8,1805,-2168,-7535,1745143553096535724
267999,6,6,-5,1783,-2207,-7518,1745143553153542912
268191,5,9,-4,1820,-2262,-7527,1745143553153542912
268383,0,10,-3,1822,-2291,-7560,1745143553153542912
268575,-8,11,-1,1852,-2312,-7560,1745143553153542912
268767,-19,11,0,1852,-2307,-7574,1745143553153542912
268959,-26,10,2,1834,-2250,-7600,1745143553153542912
269151,-29,11,5,1814,-2160,-7619,1745143553153542912
269343,-29,13,6,1800,-2103,-7615,1745143553153542912
269535,-24,17,7,1802,-2079,-7601,1745143553153542912
269727,-14,21,8,1820,-2105,-7595,1745143553153542912
269919,-3,23,8,1844,-2138,-7593,1745143553153542912
270111,6,24,8,1869,-2156,-7591,1745143553153542912
270303,10,24,8,1872,-2149,-7587,1745143553213528718
270495,10,25,8,1856,-2142,-7561,1745143553213528718
270687,9,25,8,1857,-2152,-7548,1745143553213528718
270879,9,23,8,1831,-2144,-7539,1745143553213528718
271071,10,21,7,1820,-2131,-7560,1745143553213528718
271263,8,23,4,1816,-2106,-7581,1745143553213528718
271455,3,24,1,1829,-2100,-7582,1745143553213528718
271647,-1,22,-2,1821,-2123,-7595,1745143553213528718
271839,-2,21,-4,1861,-2138,-7598,1745143553213528718
272031,-2,24,-4,1906,-2145,-7599,1745143553213528718
272223,-4,25,-7,1928,-2152,-7594,1745143553213528718
272415,-6,20,-11,1920,-2165,-7605,1745143553213528718
272607,-5,12,-15,1876,-2161,-7623,1745143553270678717
272799,-2,7,-18,1830,-2139,-7663,1745143553270678717
272991,3,7,-19,1791,-2113,-7663,1745143553270678717
273183,6,10,-18,1766,-2120,-7644,1745143553270678717
273375,8,12,-15,1753,-2119,-7636,1745143553270678717
273567,12,16,-11,1789,-2144,-7661,1745143553270678717
273759,16,19,-6,1811,-2168,-7655,1745143553270678717
273951,18,21,-2,1855,-2191,-7641,1745143553270678717
274143,18,20,0,1880,-2186,-7613,1745143553270678717
274335,17,18,1,1900,-2204,-7602,1745143553270678717
274527,14,14,0,1899,-2205,-7589,1745143553270678717
274719,10,11,-1,1881,-2238,-7597,1745143553270678717
274911,5,10,-2,1832,-2200,-7600,1745143553330412129
275103,0,8,-5,1809,-2178,-7592,1745143553330412129
275295,-6,6,-7,1776,-2146,-7605,1745143553330412129
275487,-11,9,-9,1779,-2126,-7604,1745143553330412129
275679,-15,14,-8,1816,-2135,-7605,1745143553330412129
275871,-14,18,-8,1867,-2159,-7606,1745143553330412129
276063,-11,16,-7,1885,-2146,-7627,1745143553330412129
276255,-9,14,-6,1896,-2142,-7636,1745143553330412129
276447,-7,13,-7,1900,-2126,-7627,1745143553330412129
276639,0,12,-6,1877,-2129,-7637,1745143553330412129
276831,8,11,-4,1859,-2125,-7628,1745143553330412129
277023,12,12,-4,1837,-2108,-7631,1745143553330412129
277215,15,13,-4,1820,-2110,-7622,1745143553387418744
277407,17,15,-3,1827,-2152,-7615,1745143553387418744
277599,16,17,-3,1850,-2188,-7623,1745143553387418744
277791,16,18,-3,1845,-2193,-7627,1745143553387418744
277983,13,16,-4,1849,-2211,-7640,1745143553387418744
278175,9,15,-5,1849,-2185,-7617,1745143553387418744
278367,5,15,-6,1853,-2179,-7618,1745143553387418744
278559,3,16,-5,1848,-2147,-7617,1745143553387418744
278751,3,18,-5,1873,-2145,-7629,1745143553387418744
278943,6,19,-4,1896,-2143,-7638,1745143553387418744
279135,10,20,-3,1897,-2178,-7634,1745143553387418744
279327,13,16,-5,1897,-2170,-7614,1745143553387418744
279519,16,13,-4,1889,-2185,-7606,1745143553447438091
279711,17,11,-4,1866,-2168,-7631,1745143553447438091
279903,14,12,-3,1836,-2175,-7602,1745143553447438091
280095,9,15,-4,1822,-2190,-7569,1745143553447438091
280287,7,18,-3,1837,-2222,-7543,1745143553447438091
280479,6,20,-1,1859,-2227,-7566,1745143553447438091
280671,1,23,1,1895,-2213,-7584,1745143553447438091
280863,-4,25,-1,1904,-2196,-7578,1745143553447438091
281055,-9,24,-4,1902,-2222,-7547,1745143553447438091
281247,-13,18,-6,1883,-2245,-7533,1745143553447438091
281439,-12,12,-7,1855,-2220,-7560,1745143553447438091
281631,-11,10,-8,1813,-2188,-7606,1745143553447438091
281823,-13,10,-9,1809,-2139,-7646,1745143553504628559
282015,-17,16,-9,1806,-2124,-7640,1745143553504628559
282207,-17,20,-7,1827,-2176,-7632,1745143553504628559
282399,-13,20,-4,1852,-2210,-7641,1745143553504628559
282591,-9,20,-1,1883,-2208,-7668,1745143553504628559
282783,-8,21,0,1895,-2192,-7695,1745143553504628559
282975,-10,22,0,1904,-2162,-7706,1745143553504628559
283167,-10,22,-1,1897,-2164,-7708,1745143553504628559
283359,-6,21,-2,1893,-2161,-7708,1745143553504628559
283551,2,18,-2,1896,-2150,-7720,1745143553504628559
283743,9,17,-2,1889,-2132,-7699,1745143553504628559
283935,12,17,-4,1875,-2111,-7657,1745143553504628559
284127,11,16,-5,1879,-2138,-7624,1745143553564118744
284319,14,12,-6,1856,-2178,-7597,1745143553564118744
284511,19,9,-6,1844,-2191,-7596,1745143553564118744
284703,18,9,-5,1839,-2192,-7610,1745143553564118744
284895,11,11,-5,1809,-2217,-7613,1745143553564118744
285087,2,13,-6,1818,-2212,-7620,1745143553564118744
285279,-6,14,-6,1834,-2203,-7608,1745143553564118744
285471,-13,14,-5,1875,-2222,-7602,1745143553564118744
285663,-17,15,-5,1868,-2214,-7614,1745143553564118744
285855,-20,13,-5,1891,-2168,-7633,1745143553564118744
286047,-19,14,-5,1916,-2121,-7632,1745143553564118744
286239,-16,14,-7,1907,-2104,-7622,1745143553564118744
286431,-12,12,-9,1889,-2099,-7634,1745143553621570980
286623,-4,9,-9,1886,-2092,-7655,1745143553621570980
286815,3,11,-11,1878,-2087,-7663,1745143553621570980
287007,8,13,-10,1870,-2113,-7643,1745143553621570980
287199,13,15,-10,1867,-2159,-7626,1745143553621570980
287391,17,14,-9,1884,-2180,-7614,1745143553621570980
287583,15,15,-9,1877,-2197,-7622,1745143553621570980
287775,8,15,-9,1877,-2211,-7608,1745143553621570980
287967,2,14,-9,1858,-2209,-7594,1745143553621570980
288159,-2,14,-7,1854,-2197,-7601,1745143553621570980
288351,-5,15,-8,1881,-2185,-7613,1745143553621570980
288543,-9,16,-9,1904,-2190,-7625,1745143553621570980
288735,-11,15,-10,1920,-2190,-7616,1745143553681374600
288927,-11,14,-9,1939,-2186,-7637,1745143553681374600
289119,-9,12,-11,1951,-2162,-7638,1745143553681374600
289311,-11,10,-13,1946,-2153,-7630,1745143553681374600
289503,-10,5,-16,1899,-2142,-7648,1745143553681374600
289695,-6,0,-17,1871,-2149,-7649,1745143553681374600
289887,-1,-1,-18,1847,-2132,-7688,1745143553681374600
290079,3,3,-18,1850,-2154,-7670,1745143553681374600
290271,4,6,-19,1852,-2172,-7626,1745143553681374600
290463,6,5,-17,1869,-2194,-7608,1745143553681374600
290655,8,4,-14,1886,-2200,-7615,1745143553681374600
290847,10,4,-11,1909,-2176,-7642,1745143553681374600
291039,9,6,-9,1920,-2168,-7632,1745143553738748243
291231,7,6,-9,1928,-2150,-7606,1745143553738748243
291423,10,4,-9,1945,-2165,-7605,1745143553738748243
291615,13,1,-9,1944,-2185,-7574,1745143553738748243
291807,13,0,-9,1939,-2211,-7555,1745143553738748243
291999,11,1,-8,1933,-2238,-7531,1745143553738748243
292191,8,2,-9,1908,-2254,-7534,1745143553738748243
292383,2,1,-10,1887,-2260,-7556,1745143553738748243
292575,-5,2,-12,1900,-2283,-7547,1745143553738748243
292767,-11,2,-12,1856,-2262,-7551,1745143553738748243
292959,-14,2,-11,1837,-2212,-7562,1745143553738748243
293151,-17,4,-11,1826,-2183,-7567,1745143553738748243
293343,-18,6,-10,1826,-2158,-7568,1745143553798261137
293535,-13,9,-9,1860,-2143,-7569,1745143553798261137
293727,-7,11,-8,1896,-2152,-7575,1745143553798261137
293919,-1,10,-7,1940,-2158,-7569,1745143553798261137
294111,3,10,-5,1964,-2187,-7548,1745143553798261137
294303,4,8,-4,1963,-2199,-7532,1745143553798261137
294495,4,2,-3,1924,-2202,-7555,1745143553798261137
294687,5,-1,-5,1891,-2189,-7570,1745143553798261137
294879,3,0,-7,1851,-2160,-7612,1745143553798261137
295071,2,3,-9,1845,-2177,-7630,1745143553798261137
295263,0,8,-9,1863,-2191,-7615,1745143553798261137
295455,0,13,-7,1896,-2223,-7584,1745143553798261137
295647,-1,15,-7,1945,-2240,-7587,1745143553855403219
295839,-1,13,-7,1970,-2237,-7583,1745143553855403219
296031,-3,11,-8,1964,-2218,-7592,1745143553855403219
296223,-3,8,-11,1943,-2193,-7601,1745143553855403219
296415,-2,6,-13,1929,-2182,-7576,1745143553855403219
296607,-1,5,-13,1901,-2201,-7582,1745143553855403219
296799,4,3,-13,1886,-2238,-7572,1745143553855403219
296991,6,1,-13,1852,-2230,-7574,1745143553855403219
297183,5,4,-13,1830,-2210,-7560,1745143553855403219
297375,1,5,-12,1814,-2207,-7575,1745143553855403219
297567,0,7,-9,1821,-2212,-7582,1745143553855403219
297759,1,10,-8,1846,-2221,-7577,1745143553855403219
297951,5,14,-5,1878,-2228,-7595,1745143553915126059
298143,9,15,-3,1914,-2221,-7604,1745143553915126059
298335,10,17,-2,1932,-2215,-7601,1745143553915126059
298527,11,17,-1,1936,-2203,-7580,1745143553915126059
298719,12,13,0,1928,-2195,-7581,1745143553915126059
298911,14,11,-1,1936,-2198,-7560,1745143553915126059
299103,12,10,-2,1934,-2224,-7546,1745143553915126059
299295,10,7,-3,1914,-2261,-7550,1745143553915126059
299487,6,6,-3,1904,-2303,-7556,1745143553915126059
299679,2,8,-3,1903,-2335,-7553,1745143553915126059
299871,-2,11,1,1891,-2317,-7555,1745143553915126059
300063,-7,13,3,1888,-2285,-7593,1745143553915126059
300255,-11,16,4,1900,-2238,-7615,1745143553972248193
300447,-13,18,6,1915,-2199,-7625,1745143553972248193
300639,-10,18,7,1917,-2193,-7606,1745143553972248193
300831,-5,19,7,1932,-2190,-7595,1745143553972248193
301023,2,15,6,1914,-2223,-7600,1745143553972248193
301215,8,10,5,1883,-2190,-7607,1745143553972248193
301407,12,9,4,1851,-2176,-7618,1745143553972248193
301599,14,10,4,1848,-2153,-7628,1745143553972248193
301791,17,16,5,1867,-2173,-7629,1745143553972248193
301983,18,20,6,1933,-2212,-7601,1745143553972248193
302175,19,21,7,1961,-2231,-7573,1745143553972248193
302367,17,17,6,1983,-2265,-7570,1745143553972248193
302559,15,12,5,1969,-2272,-7589,1745143554032232228
302751,12,9,3,1947,-2266,-7609,1745143554032232228
302943,7,8,2,1898,-2245,-7643,1745143554032232228
303135,4,10,1,1866,-2226,-7644,1745143554032232228
303327,3,12,1,1879,-2187,-7623,1745143554032232228
303519,4,13,1,1872,-2192,-7580,1745143554032232228
303711,5,13,1,1871,-2222,-7552,1745143554032232228
303903,5,11,0,1892,-2243,-7547,1745143554032232228
304095,7,11,-1,1896,-2232,-7576,1745143554032232228
304287,7,13,-2,1908,-2204,-7602,1745143554032232228
304479,6,16,-2,1926,-2159,-7598,1745143554032232228
304671,6,16,0,1943,-2158,-7560,1745143554032232228
304863,7,15,2,1945,-2183,-7534,1745143554089237541
305055,11,12,2,1965,-2207,-7531,1745143554089237541
305247,12,10,0,1942,-2203,-7560,1745143554089237541
305439,9,9,-4,1914,-2227,-7582,1745143554089237541
305631,6,10,-7,1918,-2227,-7608,1745143554089237541
305823,5,10,-8,1902,-2242,-7607,1745143554089237541
306015,7,12,-7,1870,-2264,-7595,1745143554089237541
306207,11,14,-6,1859,-2262,-7614,1745143554089237541
306399,15,14,-6,1870,-2242,-7646,1745143554089237541
306591,17,17,-6,1888,-2241,-7639,1745143554089237541
306783,18,19,-5,1896,-2242,-7615,1745143554089237541
306975,22,18,-2,1927,-2244,-7609,1745143554089237541
307167,27,16,3,1936,-2269,-7610,1745143554148706529
307359,26,15,4,1925,-2270,-7607,1745143554148706529
307551,22,12,4,1933,-2272,-7589,1745143554148706529
307743,18,10,3,1933,-2317,-7581,1745143554148706529
307935,14,6,2,1927,-2355,-7601,1745143554148706529
308127,9,4,1,1912,-2359,-7613,1745143554148706529
308319,1,5,0,1900,-2358,-7615,1745143554148706529
308511,-12,6,0,1890,-2331,-7614,1745143554148706529
308703,-21,7,2,1879,-2308,-7602,1745143554148706529
308895,-22,7,5,1854,-2257,-7603,1745143554148706529
309087,-18,7,6,1852,-2191,-7609,1745143554148706529
309279,-13,8,7,1869,-2142,-7608,1745143554148706529
309471,-4,8,7,1905,-2149,-7623,1745143554207305004
309663,10,9,8,1970,-2185,-7659,1745143554207305004
309855,23,11,10,2021,-2210,-7669,1745143554207305004
310047,28,10,9,2037,-2245,-7643,1745143554207305004
310239,29,6,10,2036,-2257,-7604,1745143554207305004
310431,27,0,9,1989,-2284,-7599,1745143554207305004
310623,26,-3,10,1945,-2275,-7609,1745143554207305004
310815,21,-1,9,1909,-2240,-7597,1745143554207305004
311007,13,2,6,1866,-2263,-7560,1745143554207305004
311199,3,4,6,1850,-2302,-7509,1745143554207305004
311391,-3,4,7,1856,-2326,-7490,1745143554207305004
311583,-6,2,10,1861,-2319,-7534,1745143554207305004
311775,-11,5,12,1879,-2253,-7559,1745143554264668386
311967,-19,7,12,1892,-2170,-7576,1745143554264668386
312159,-19,5,10,1888,-2115,-7588,1745143554264668386
312351,-12,4,8,1908,-2065,-7597,1745143554264668386
312543,-2,6,7,1916,-2097,-7557,1745143554264668386
312735,8,6,5,1942,-2129,-7520,1745143554264668386
312927,16,3,1,1934,-2172,-7519,1745143554264668386
313119,18,1,-4,1946,-2198,-7547,1745143554264668386
313311,12,-1,-10,1929,-2242,-7546,1745143554264668386
313503,4,0,-14,1886,-2273,-7512,1745143554264668386
313695,0,0,-15,1838,-2270,-7490,1745143554264668386
313887,-4,1,-14,1806,-2240,-7517,1745143554264668386
314079,-9,4,-14,1790,-2200,-7569,1745143554324286904
314271,-11,8,-14,1808,-2164,-7568,1745143554324286904
314463,-11,11,-13,1842,-2151,-7542,1745143554324286904
314655,-5,15,-9,1895,-2181,-7535,1745143554324286904
314847,0,16,-5,1970,-2243,-7530,1745143554324286904
315039,6,17,-2,1998,-2275,-7526,1745143554324286904
315231,11,14,0,2009,-2273,-7505,1745143554324286904
315423,13,10,0,1972,-2264,-7510,1745143554324286904
315615,14,6,1,1927,-2227,-7517,1745143554324286904
315807,16,8,0,1877,-2190,-7537,1745143554324286904
315999,18,9,0,1848,-2181,-7559,1745143554324286904
316191,20,12,-2,1847,-2199,-7559,1745143554324286904
316383,20,15,-5,1871,-2218,-7554,1745143554381665963
316575,20,14,-8,1872,-2253,-7560,1745143554381665963
316767,19,12,-9,1895,-2279,-7583,1745143554381665963
316959,16,13,-11,1906,-2285,-7578,1745143554381665963
317151,13,16,-13,1917,-2296,-7579,1745143554381665963
317343,9,16,-13,1914,-2293,-7547,1745143554381665963
317535,7,15,-12,1913,-2292,-7528,1745143554381665963
317727,7,12,-11,1901,-2274,-7527,1745143554381665963
317919,4,12,-11,1903,-2269,-7529,1745143554381665963
318111,1,11,-11,1895,-2284,-7529,1745143554381665963
318303,-2,12,-10,1895,-2290,-7526,1745143554381665963
318495,-4,12,-7,1896,-2311,-7546,1745143554381665963
318687,-7,14,-4,1904,-2292,-7548,1745143554441475625
318879,-12,15,-3,1907,-2284,-7577,1745143554441475625
319071,-15,17,-5,1933,-2287,-7589,1745143554441475625
319263,-14,18,-8,1941,-2287,-7584,1745143554441475625
319455,-11,16,-9,1913,-2277,-7573,1745143554441475625
319647,-8,15,-11,1896,-2237,-7588,1745143554441475625
319839,-5,16,-13,1882,-2189,-7611,1745143554441475625
320031,-2,17,-14,1872,-2162,-7617,1745143554441475625
320223,6,17,-16,1889,-2165,-7617,1745143554441475625
320415,15,16,-18,1914,-2190,-7606,1745143554441475625
320607,20,15,-19,1919,-2253,-7595,1745143554441475625
320799,19,13,-19,1935,-2313,-7579,1745143554441475625
320991,19,10,-16,1938,-2351,-7571,1745143554498607812
321183,16,9,-13,1937,-2355,-7590,1745143554498607812
321375,10,10,-9,1931,-2342,-7612,1745143554498607812
321567,1,13,-7,1955,-2326,-7588,1745143554498607812
321759,-4,15,-3,1958,-2328,-7577,1745143554498607812
321951,-5,12,-1,1965,-2304,-7564,1745143554498607812
322143,-5,11,1,1963,-2302,-7566,1745143554498607812
322335,-6,11,1,1979,-2298,-7552,1745143554498607812
322527,-8,10,-1,1959,-2300,-7550,1745143554498607812
322719,-9,9,-2,1956,-2304,-7565,1745143554498607812
322911,-8,10,-3,1932,-2323,-7579,1745143554498607812
323103,-3,12,-3,1928,-2322,-7584,1745143554498607812
323295,-1,15,-2,1923,-2311,-7583,1745143554558588462
323487,0,17,-2,1902,-2286,-7577,1745143554558588462
323679,1,18,-1,1890,-2248,-7570,1745143554558588462
323871,3,21,1,1892,-2258,-7543,1745143554558588462
324063,7,22,4,1897,-2288,-7547,1745143554558588462
324255,11,23,7,1925,-2306,-7573,1745143554558588462
324447,11,23,9,1941,-2336,-7590,1745143554558588462
324639,6,25,9,1995,-2352,-7600,1745143554558588462
324831,-3,24,7,2013,-2388,-7566,1745143554558588462
325023,-12,18,6,2005,-2404,-7572,1745143554558588462
325215,-17,10,6,1961,-2377,-7568,1745143554558588462
325407,-23,9,6,1927,-2316,-7572,1745143554558588462
325599,-29,8,5,1869,-2262,-7590,1745143554614789146
325791,-29,7,2,1845,-2210,-7649,1745143554614789146
325983,-21,7,1,1868,-2183,-7698,1745143554614789146
326175,-10,9,1,1897,-2138,-7722,1745143554614789146
326367,1,14,1,1925,-2146,-7654,1745143554614789146
326559,10,14,2,1960,-2169,-7602,1745143554614789146
326751,19,9,1,1994,-2221,-7573,1745143554614789146
326943,26,5,-1,1984,-2269,-7554,1745143554614789146
327135,27,2,-3,1957,-2265,-7569,1745143554614789146
327327,22,1,-6,1936,-2269,-7556,1745143554614789146
327519,13,1,-7,1915,-2274,-7539,1745143554614789146
327711,6,0,-7,1919,-2306,-7539,1745143554614789146
327903,-1,-1,-7,1922,-2325,-7526,1745143554675314687
328095,-10,-1,-8,1916,-2320,-7511,1745143554675314687
328287,-22,-1,-10,1886,-2295,-7497,1745143554675314687
328479,-32,-1,-10,1921,-2275,-7498,1745143554675314687
328671,-37,4,-9,1940,-2264,-7507,1745143554675314687
328863,-36,7,-8,1982,-2241,-7519,1745143554675314687
329055,-29,6,-9,1963,-2208,-7533,1745143554675314687
329247,-19,1,-12,1935,-2160,-7546,1745143554675314687
329439,-10,0,-15,1873,-2076,-7554,1745143554675314687
329631,-1,0,-17,1866,-2038,-7527,1745143554675314687
329823,8,4,-16,1863,-2087,-7506,1745143554675314687
330015,19,7,-15,1895,-2164,-7493,1745143554675314687
330207,32,9,-12,1920,-2254,-7490,1745143554732302917
330399,40,9,-9,1932,-2279,-7517,1745143554732302917
330591,39,11,-8,1918,-2269,-7518,1745143554732302917
330783,29,14,-6,1936,-2221,-7517,1745143554732302917
330975,20,18,-3,1913,-2199,-7512,1745143554732302917
331167,16,19,0,1934,-2222,-7510,1745143554732302917
331359,17,20,2,1964,-2242,-7501,1745143554732302917
331551,16,18,1,1987,-2279,-7507,1745143554732302917
331743,11,15,-4,1997,-2269,-7548,1745143554732302917
331935,1,13,-7,1981,-2232,-7548,1745143554732302917
332127,-10,13,-11,1951,-2215,-7515,1745143554732302917
332319,-20,13,-13,1898,-2210,-7451,1745143554732302917
332511,-24,14,-12,1855,-2201,-7399,1745143554792345858
332703,-22,15,-10,1855,-2191,-7399,1745143554792345858
332895,-20,19,-10,1885,-2178,-7454,1745143554792345858
333087,-21,24,-12,1927,-2187,-7454,1745143554792345858
333279,-24,29,-13,1986,-2244,-7413,1745143554792345858
333471,-22,31,-11,2001,-2306,-7377,1745143554792345858
333663,-17,32,-5,2018,-2340,-7384,1745143554792345858
333855,-14,35,-2,2038,-2348,-7375,1745143554792345858
334047,-14,40,-1,2030,-2369,-7380,1745143554792345858
334239,-12,43,0,2011,-2439,-7358,1745143554792345858
334431,-6,45,0,2004,-2500,-7351,1745143554792345858
334623,-1,47,1,1949,-2525,-7374,1745143554792345858
334815,0,46,4,1882,-2532,-7411,1745143554849580804
335007,3,50,8,1813,-2510,-7424,1745143554849580804
335199,8,57,13,1750,-2461,-7452,1745143554849580804
335391,15,64,19,1739,-2421,-7452,1745143554849580804
335583,24,73,25,1750,-2422,-7489,1745143554849580804
335775,33,84,32,1804,-2422,-7510,1745143554849580804
335967,41,95,40,1885,-2440,-7526,1745143554849580804
336159,46,102,46,1966,-2472,-7542,1745143554849580804
336351,52,102,49,1985,-2487,-7569,1745143554849580804
336543,59,100,51,1976,-2444,-7608,1745143554849580804
336735,65,99,54,1951,-2387,-7647,1745143554849580804
336927,71,96,52,1960,-2325,-7656,1745143554849580804
337119,77,91,51,1959,-2260,-7699,1745143554909380205
337311,86,88,51,1998,-2269,-7689,1745143554909380205
337503,98,85,53,2023,-2294,-7672,1745143554909380205
337695,109,75,52,2051,-2333,-7682,1745143554909380205
337887,111,59,47,2072,-2357,-7713,1745143554909380205
338079,102,46,41,2078,-2402,-7739,1745143554909380205
338271,89,39,38,2067,-2436,-7753,1745143554909380205
338463,73,36,37,2038,-2479,-7754,1745143554909380205
338655,54,35,34,2037,-2500,-7754,1745143554909380205
338847,31,32,28,2019,-2508,-7719,1745143554909380205
339039,6,27,22,1979,-2492,-7706,1745143554909380205
339231,-14,20,16,1967,-2425,-7693,1745143554909380205
339423,-30,16,12,1975,-2368,-7692,1745143554966748900
339615,-46,15,9,2008,-2314,-7681,1745143554966748900
339807,-60,15,9,2027,-2279,-7637,1745143554966748900
339999,-66,10,10,2042,-2257,-7626,1745143554966748900
340191,-62,1,12,2048,-2200,-7648,1745143554966748900
340383,-56,-4,13,2047,-2089,-7684,1745143554966748900
340575,-48,-5,12,2008,-2009,-7709,1745143554966748900
340767,-37,-5,12,1993,-1922,-7703,1745143554966748900
340959,-22,-3,11,2030,-1917,-7685,1745143554966748900
341151,-4,0,12,2095,-1942,-7661,1745143554966748900
341343,10,-1,8,2140,-2005,-7656,1745143554966748900
341535,16,-7,-1,2146,-2020,-7673,1745143554966748900
341727,16,-17,-13,2134,-2034,-7701,1745143555026318564
341919,9,-26,-27,2102,-1986,-7736,1745143555026318564
342111,2,-31,-41,2056,-1917,-7743,1745143555026318564
342303,-6,-37,-55,2000,-1807,-7741,1745143555026318564
342495,-11,-47,-70,1975,-1702,-7748,1745143555026318564
342687,-13,-60,-88,1962,-1583,-7777,1745143555026318564
342879,-8,-76,-110,1968,-1393,-7934,1745143555026318564
343071,-2,-74,-128,1935,-1241,-7952,1745143555026318564
343263,18,-85,-154,1946,-1070,-8001,1745143555026318564
343455,29,-103,-186,1959,-941,-8173,1745143555026318564
343647,37,-122,-222,2003,-805,-8334,1745143555026318564
343839,46,-149,-265,2041,-639,-8471,1745143555026318564
344031,44,-178,-316,2047,-397,-8648,1745143555082891016
344223,35,-210,-377,2050,-106,-8785,1745143555082891016
344415,16,-246,-447,2053,188,-8882,1745143555082891016
344607,-8,-286,-529,2060,450,-8925,1745143555082891016
344799,-33,-331,-619,2065,663,-8919,1745143555082891016
344991,-53,-382,-715,2094,879,-8880,1745143555082891016
345183,-72,-438,-815,2127,1073,-8782,1745143555082891016
345375,-92,-499,-925,2222,1205,-8692,1745143555082891016
345567,-113,-563,-1047,2249,1358,-8705,1745143555082891016
345759,-135,-624,-1178,2298,1583,-8797,1745143555082891016
345951,-155,-683,-1310,2332,1855,-8871,1745143555082891016
346143,-175,-737,-1440,2395,2213,-8907,1745143555082891016
346335,-195,-785,-1568,2487,2614,-8850,1745143555143156507
346527,-209,-827,-1694,2640,2990,-8710,1745143555143156507
346719,-213,-865,-1820,2799,3438,-8553,1745143555143156507
346911,-205,-910,-1928,3030,3707,-8421,1745143555143156507
347103,-190,-962,-2045,3242,4013,-8275,1745143555143156507
347295,-176,-1026,-2161,3481,4169,-8116,1745143555143156507
347487,-163,-1104,-2280,3736,4241,-8051,1745143555143156507
347679,-158,-1176,-2410,3971,4250,-7924,1745143555143156507
347871,-160,-1238,-2548,4112,4265,-7708,1745143555143156507
348063,-167,-1297,-2675,4205,4320,-7481,1745143555143156507
348255,-177,-1356,-2788,4298,4376,-7408,1745143555143156507
348447,-186,-1401,-2901,4406,4446,-7381,1745143555143156507
348639,-195,-1439,-3023,4556,4546,-7292,1745143555202759973
348831,-203,-1477,-3146,4544,4716,-6934,1745143555202759973
349023,-202,-1524,-3264,4661,4828,-6902,1745143555202759973
349215,-196,-1546,-3390,4634,5011,-6783,1745143555202759973
349407,-174,-1552,-3514,4660,5198,-6729,1745143555202759973
349599,-145,-1545,-3634,4713,5359,-6556,1745143555202759973
349791,-118,-1531,-3750,4884,5374,-6389,1745143555202759973
349983,-92,-1520,-3862,5130,5330,-6221,1745143555202759973
350175,-63,-1513,-3968,5352,5293,-6012,1745143555202759973
350367,-32,-1500,-4068,5556,5320,-5949,1745143555202759973
350559,-1,-1470,-4165,5686,5379,-5941,1745143555202759973
350751,34,-1435,-4260,5824,5369,-5927,1745143555202759973
350943,84,-1401,-4352,5957,5302,-6017,1745143555258900606
351135,157,-1374,-4441,6023,5234,-6160,1745143555258900606
351327,247,-1344,-4527,6007,5178,-6265,1745143555258900606
351519,342,-1309,-4609,5953,5147,-6316,1745143555258900606
351711,435,-1273,-4686,5976,5060,-6237,1745143555258900606
351903,514,-1243,-4759,6106,4885,-6094,1745143555258900606
352095,570,-1223,-4831,6274,4639,-5844,1745143555258900606
352287,605,-1211,-4898,6441,4310,-5581,1745143555258900606
352479,628,-1206,-4957,6548,4027,-5473,1745143555258900606
352671,646,-1198,-5010,6555,3859,-5416,1745143555258900606
352863,656,-1187,-5063,6561,3765,-5277,1745143555258900606
353055,646,-1170,-5116,6642,3626,-5251,1745143555258900606
353247,620,-1146,-5164,6779,3398,-5215,1745143555318720060
353439,582,-1129,-5207,6923,3082,-5076,1745143555318720060
353631,539,-1106,-5240,7001,2749,-5175,1745143555318720060
353823,509,-1076,-5252,6901,2448,-5381,1745143555318720060
354015,510,-1039,-5251,6656,2216,-5574,1745143555318720060
354207,536,-1000,-5248,6368,1995,-5765,1745143555318720060
354399,578,-975,-5247,6124,1711,-5922,1745143555318720060
354591,635,-952,-5252,5870,1366,-6033,1745143555318720060
354783,708,-930,-5253,5665,963,-6095,1745143555318720060
354975,785,-911,-5247,5532,546,-6102,1745143555318720060
355167,843,-902,-5237,5492,71,-6057,1745143555318720060
355359,870,-908,-5222,5435,-375,-6014,1745143555318720060
355551,873,-920,-5195,5312,-744,-5938,1745143555376980309
355743,851,-940,-5154,5249,-1024,-5761,1745143555376980309
355935,794,-955,-5101,5220,-1334,-5496,1745143555376980309
356127,712,-940,-5040,5154,-1627,-5280,1745143555376980309
356319,630,-879,-4950,5227,-1885,-5405,1745143555376980309
356511,566,-781,-4833,5445,-2122,-5921,1745143555376980309
356703,529,-677,-4703,5751,-2313,-6631,1745143555376980309
356895,517,-601,-4574,6121,-2393,-7195,1745143555376980309
357087,526,-552,-4456,6459,-2518,-7439,1745143555376980309
357279,564,-549,-4362,6657,-2682,-7562,1745143555376980309
357471,632,-573,-4281,6767,-2869,-7750,1745143555376980309
357663,715,-579,-4186,6761,-3106,-7817,1745143555376980309
357855,791,-587,-4067,6561,-3590,-7431,1745143555438200218
358047,843,-665,-3952,6482,-4114,-7353,1745143555438200218
358239,850,-747,-3831,6120,-4526,-7151,1745143555438200218
358431,786,-838,-3648,5857,-5203,-6767,1745143555438200218
358623,699,-930,-3509,5531,-5947,-6540,1745143555438200218
358815,611,-1015,-3439,5077,-6380,-6267,1745143555438200218
359007,483,-1084,-3406,4627,-6909,-6064,1745143555438200218
359199,332,-1102,-3426,3934,-6746,-5997,1745143555438200218
359391,156,-1055,-3357,3494,-6855,-6394,1745143555438200218
359583,-38,-958,-3263,3371,-6879,-7028,1745143555438200218
359775,-242,-830,-3156,3525,-6874,-7596,1745143555438200218
359967,-441,-710,-3044,3925,-6847,-8008,1745143555438200218
360159,-610,-613,-2931,4430,-6724,-8319,1745143555488594133
360351,-741,-553,-2811,4961,-6489,-8492,1745143555488594133
360543,-838,-531,-2695,5354,-6268,-8604,1745143555488594133
360735,-902,-530,-2598,5493,-6142,-8595,1745143555488594133
360927,-944,-539,-2528,5377,-6033,-8471,1745143555488594133
361119,-976,-553,-2459,5161,-6058,-8450,1745143555488594133
361311,-995,-566,-2378,4805,-6146,-8354,1745143555488594133
361503,-1024,-579,-2295,4394,-6312,-8176,1745143555488594133
361695,-1070,-585,-2215,3945,-6395,-7989,1745143555488594133
361887,-1143,-593,-2135,3474,-6337,-7665,1745143555488594133
362079,-1245,-588,-2050,2950,-6159,-7400,1745143555488594133
362271,-1353,-563,-1963,2429,-5870,-7373,1745143555488594133
362463,-1442,-504,-1875,1969,-5458,-7558,1745143555552481101
362655,-1490,-407,-1786,1640,-4976,-7836,1745143555552481101
362847,-1482,-271,-1694,1596,-4426,-8245,1745143555552481101
363039,-1445,-112,-1593,1853,-3955,-8810,1745143555552481101
363231,-1389,33,-1483,2434,-3678,-9415,1745143555552481101
363423,-1306,126,-1371,3190,-3512,-9817,1745143555552481101
363615,-1195,162,-1253,3988,-3417,-10093,1745143555552481101
363807,-1071,155,-1133,4685,-3292,-10276,1745143555552481101
363999,-960,140,-1024,5065,-3121,-10378,1745143555552481101
364191,-862,126,-933,5068,-2955,-10224,1745143555552481101
364383,-771,104,-857,4824,-2933,-9966,1745143555552481101
364575,-685,66,-795,4439,-3042,-9617,1745143555552481101
364767,-617,10,-738,4007,-3260,-9312,1745143555609679173
364959,-588,-33,-687,3535,-3509,-8994,1745143555609679173
365151,-600,-55,-640,3024,-3495,-8921,1745143555609679173
365343,-643,-40,-596,2645,-3293,-8437,1745143555609679173
365535,-729,-35,-561,2352,-3448,-8035,1745143555609679173
365727,-743,-15,-504,2183,-3401,-8393,1745143555609679173
365919,-680,7,-421,2206,-3163,-8193,1745143555609679173
366111,-610,70,-343,2232,-2897,-7895,1745143555609679173
366303,-532,145,-285,2297,-2491,-8314,1745143555609679173
366495,-447,50,-232,3226,-2511,-9480,1745143555609679173
366687,-339,-165,-173,4623,-3056,-11225,1745143555609679173
366879,-229,-435,-78,6230,-3268,-12306,1745143555609679173
367071,-193,-629,106,6807,-4035,-12050,1745143555669390502
367263,-190,-890,306,6479,-4398,-11883,1745143555669390502
367455,-185,-1164,486,5471,-4209,-11943,1745143555669390502
367647,-205,-1243,602,3742,-3683,-12004,1745143555669390502
367839,-254,-1175,636,1874,-3094,-11872,1745143555669390502
368031,-330,-1038,595,349,-2475,-11510,1745143555669390502
368223,-432,-873,519,-627,-1908,-10840,1745143555669390502
368415,-540,-707,444,-1129,-1341,-10182,1745143555669390502
368607,-635,-563,394,-1188,-708,-9616,1745143555669390502
368799,-713,-452,354,-950,-2,-9177,1745143555669390502
368991,-772,-368,307,-562,709,-8834,1745143555669390502
369183,-795,-315,212,-36,1251,-8565,1745143555669390502
369375,-782,-289,46,104,2084,-8223,1745143555727714292
369567,-733,-294,-69,160,2777,-8023,1745143555727714292
369759,-644,-311,-79,146,3220,-7890,1745143555727714292
369951,-513,-332,-41,130,3222,-7785,1745143555727714292
370143,-342,-350,-8,-19,3121,-7773,1745143555727714292
370335,-164,-356,24,-156,2849,-7826,1745143555727714292
370527,1,-350,37,-291,2469,-7902,1745143555727714292
370719,141,-333,25,-429,2008,-8017,1745143555727714292
370911,254,-313,7,-518,1513,-8161,1745143555727714292
371103,334,-293,-7,-535,989,-8354,1745143555727714292
371295,375,-275,-9,-506,451,-8562,1745143555727714292
371487,376,-264,0,-459,-43,-8762,1745143555727714292
371679,346,-254,18,-392,-380,-8902,1745143555786446620
371871,286,-243,34,-361,-561,-9005,1745143555786446620
372063,208,-232,44,-364,-569,-9070,1745143555786446620
372255,125,-218,44,-352,-482,-9075,1745143555786446620
372447,52,-199,35,-341,-347,-9061,1745143555786446620
372639,-3,-177,23,-297,-141,-8983,1745143555786446620
372831,-43,-156,10,-214,64,-8903,1745143555786446620
373023,-74,-137,-1,-110,308,-8777,1745143555786446620
373215,-98,-124,-12,-32,524,-8644,1745143555786446620
373407,-112,-118,-18,32,702,-8485,1745143555786446620
373599,-112,-118,-22,61,865,-8342,1745143555786446620
373791,-100,-119,-22,60,947,-8218,1745143555786446620
373983,-78,-122,-23,25,1017,-8113,1745143555844432237
374175,-52,-121,-23,-23,1035,-8069,1745143555844432237
374367,-23,-118,-24,-97,993,-8053,1745143555844432237
374559,7,-113,-28,-138,924,-8049,1745143555844432237
374751,38,-106,-28,-172,761,-8082,1745143555844432237
374943,63,-98,-26,-178,627,-8119,1745143555844432237
375135,78,-86,-20,-147,525,-8168,1745143555844432237
375327,80,-77,-11,-97,452,-8207,1745143555844432237
375519,71,-71,-1,-93,387,-8255,1745143555844432237
375711,59,-66,9,-31,325,-8288,1745143555844432237
375903,49,-63,14,1,308,-8300,1745143555844432237
376095,39,-61,19,16,280,-8297,1745143555844432237
376287,29,-60,18,4,274,-8280,1745143555902149105
376479,17,-60,15,-30,268,-8276,1745143555902149105
376671,6,-57,8,-65,280,-8219,1745143555902149105
376863,-7,-52,3,-125,311,-8224,1745143555902149105
377055,-16,-46,-3,-177,366,-8175,1745143555902149105
377247,-27,-35,-9,-248,408,-8231,1745143555902149105
377439,-24,-20,-11,-274,467,-8270,1745143555902149105
377631,-16,-8,-16,-291,523,-8285,1745143555902149105
377823,-9,4,-21,-289,535,-8376,1745143555902149105
378015,3,13,-29,-262,537,-8341,1745143555902149105
378207,-3,18,-44,-229,476,-8326,1745143555902149105
378399,-2,16,-57,-321,588,-8353,1745143555902149105
378591,-3,15,-35,-308,465,-8264,1745143555961840279
378783,-21,15,-28,-313,393,-8214,1745143555961840279
378975,-22,12,-20,-319,346,-8194,1745143555961840279
379167,-16,12,-15,-335,338,-8130,1745143555961840279
379359,-26,17,-19,-376,346,-8099,1745143555961840279
379551,-44,24,-28,-383,373,-8086,1745143555961840279
379743,-54,29,-35,-379,409,-8086,1745143555961840279
379935,-46,33,-38,-354,460,-8100,1745143555961840279
380127,-35,37,-41,-320,505,-8104,1745143555961840279
380319,-32,39,-42,-276,530,-8113,1745143555961840279
380511,-32,39,-42,-265,550,-8149,1745143555961840279
380703,-33,36,-44,-254,567,-8137,1745143555961840279
380895,-35,31,-45,-243,561,-8129,1745143556019696833
381087,-39,29,-43,-229,576,-8099,1745143556019696833
381279,-44,25,-41,-248,565,-8080,1745143556019696833
381471,-48,22,-39,-237,568,-8043,1745143556019696833
381663,-51,17,-39,-238,571,-8003,1745143556019696833
381855,-49,13,-38,-215,585,-7964,1745143556019696833
382047,-44,10,-38,-198,592,-7943,1745143556019696833
382239,-39,3,-37,-173,583,-7919,1745143556019696833
382431,-39,-2,-37,-179,575,-7957,1745143556019696833
382623,-39,-7,-35,-173,578,-7980,1745143556019696833
382815,-37,-13,-30,-180,561,-8005,1745143556019696833
383007,-33,-20,-25,-189,592,-7988,1745143556019696833
383199,-33,-26,-22,-223,633,-7963,1745143556078005415
383391,-35,-31,-19,-228,663,-7922,1745143556078005415
383583,-34,-37,-17,-266,680,-7902,1745143556078005415
383775,-25,-42,-16,-286,697,-7901,1745143556078005415
383967,-13,-43,-17,-293,674,-7910,1745143556078005415
384159,-1,-43,-22,-282,629,-7955,1745143556078005415
384351,6,-42,-27,-272,544,-7976,1745143556078005415
384543,12,-41,-33,-261,491,-8005,1745143556078005415
384735,16,-41,-34,-257,439,-8083,1745143556078005415
384927,15,-40,-29,-240,423,-8146,1745143556078005415
385119,8,-40,-25,-215,414,-8217,1745143556078005415
385311,-2,-42,-23,-226,442,-8240,1745143556078005415
385503,-11,-44,-24,-237,467,-8253,1745143556136093270
385695,-17,-44,-24,-262,493,-8237,1745143556136093270
385887,-23,-42,-23,-285,527,-8232,1745143556136093270
386079,-31,-40,-23,-294,559,-8208,1745143556136093270
386271,-36,-38,-21,-296,589,-8174,1745143556136093270
386463,-39,-37,-18,-284,563,-8142,1745143556136093270
386655,-42,-36,-16,-268,561,-8109,1745143556136093270
386847,-47,-36,-13,-283,600,-8092,1745143556136093270
387039,-52,-35,-8,-301,613,-8088,1745143556136093270
387231,-56,-35,-3,-297,620,-8078,1745143556136093270
387423,-55,-37,1,-290,630,-8075,1745143556136093270
387615,-54,-39,4,-271,617,-8063,1745143556136093270
387807,-53,-41,6,-274,601,-8049,1745143556194716328
387999,-53,-42,9,-285,587,-8024,1745143556194716328
388191,-54,-45,13,-285,608,-8015,1745143556194716328
388383,-55,-46,19,-276,644,-8013,1745143556194716328
388575,-55,-46,23,-303,655,-8056,1745143556194716328
388767,-53,-46,23,-313,656,-8085,1745143556194716328
388959,-49,-46,20,-318,659,-8088,1745143556194716328
389151,-48,-45,18,-316,660,-8095,1745143556194716328
389343,-48,-42,16,-298,660,-8080,1745143556194716328
389535,-49,-41,20,-262,646,-8105,1745143556194716328
389727,-42,-42,24,-248,624,-8124,1745143556194716328
389919,-36,-43,23,-225,586,-8126,1745143556194716328
390111,-34,-44,20,-248,547,-8131,1745143556252959859
390303,-37,-45,16,-277,531,-8115,1745143556252959859
390495,-50,-45,13,-314,545,-8070,1745143556252959859
390687,-68,-42,16,-337,562,-8124,1745143556252959859
390879,-64,-42,24,-338,583,-8095,1745143556252959859
391071,-58,-39,23,-339,582,-8088,1745143556252959859
391263,-54,-37,22,-356,585,-8094,1745143556252959859
391455,-52,-37,17,-376,607,-8060,1745143556252959859
391647,-64,-35,13,-424,658,-8035,1745143556252959859
391839,-75,-31,18,-429,662,-8115,1745143556252959859
392031,-61,-31,19,-398,669,-8074,1745143556252959859
392223,-47,-25,14,-410,669,-8093,1745143556252959859
392415,-33,-22,6,-399,653,-8109,1745143556311768072
392607,-23,-21,-2,-382,641,-8102,1745143556311768072
392799,-18,-18,-7,-382,610,-8113,1745143556311768072
392991,-17,-12,-9,-375,580,-8122,1745143556311768072
393183,-16,-8,-9,-371,571,-8130,1745143556311768072
393375,-15,-5,-11,-341,566,-8137,1745143556311768072
393567,-12,-2,-14,-355,608,-8131,1745143556311768072
393759,-6,3,-18,-355,635,-8098,1745143556311768072
393951,-2,10,-23,-350,625,-8092,1745143556311768072
394143,1,19,-27,-329,632,-8104,1745143556311768072
394335,4,26,-30,-322,621,-8138,1745143556311768072
394527,8,30,-33,-307,633,-8166,1745143556311768072
394719,8,31,-37,-307,597,-8171,1745143556369962852
394911,8,33,-41,-317,587,-8185,1745143556369962852
395103,7,36,-44,-361,569,-8178,1745143556369962852
395295,7,38,-45,-381,576,-8176,1745143556369962852
395487,2,43,-46,-406,555,-8183,1745143556369962852
395679,-4,46,-48,-409,563,-8165,1745143556369962852
395871,-7,48,-50,-429,599,-8128,1745143556369962852
396063,-9,51,-51,-425,621,-8090,1745143556369962852
396255,-11,54,-52,-419,643,-8079,1745143556369962852
396447,-13,56,-52,-401,664,-8058,1745143556369962852
396639,-13,56,-52,-384,666,-8033,1745143556369962852
396831,-11,56,-53,-364,684,-8015,1745143556369962852
397023,-9,55,-53,-359,701,-8008,1745143556426887280
397215,-5,53,-52,-354,724,-8001,1745143556426887280
397407,-1,51,-50,-359,728,-8003,1745143556426887280
397599,6,50,-48,-342,729,-8008,1745143556426887280
397791,15,50,-47,-303,715,-8030,1745143556426887280
397983,24,52,-45,-287,695,-8043,1745143556426887280
398175,30,54,-43,-262,669,-8064,1745143556426887280
398367,34,54,-41,-225,632,-8093,1745143556426887280
398559,33,52,-38,-208,609,-8110,1745143556426887280
398751,30,47,-33,-186,595,-8107,1745143556426887280
398943,24,44,-28,-192,574,-8100,1745143556426887280
399135,19,38,-24,-195,581,-8095,1745143556426887280
399327,16,32,-21,-231,595,-8086,1745143556487242250
399519,13,28,-17,-235,592,-8074,1745143556487242250
399711,7,26,-15,-267,632,-8062,1745143556487242250
399903,-1,24,-11,-290,631,-8024,1745143556487242250
400095,-8,20,-7,-319,664,-8014,1745143556487242250
400287,-10,16,-4,-331,701,-8018,1745143556487242250
400479,-8,14,-1,-332,697,-8023,1745143556487242250
400671,-4,14,2,-333,710,-8026,1745143556487242250
400863,1,13,4,-337,703,-8041,1745143556487242250
401055,6,13,6,-307,690,-8060,1745143556487242250
401247,10,13,9,-293,671,-8099,1745143556487242250
401439,14,13,12,-295,671,-8114,1745143556487242250
401631,16,13,17,-257,649,-8112,1745143556545193179
401823,18,12,20,-255,593,-8101,1745143556545193179
402015,18,11,21,-246,565,-8115,1745143556545193179
402207,16,11,24,-246,539,-8143,1745143556545193179
402399,13,9,26,-250,517,-8144,1745143556545193179
402591,8,6,27,-279,521,-8129,1745143556545193179
402783,3,4,29,-282,524,-8114,1745143556545193179
402975,-5,3,30,-291,540,-8114,1745143556545193179
403167,-13,1,30,-317,555,-8090,1745143556545193179
403359,-22,1,31,-309,580,-8096,1745143556545193179
403551,-29,1,32,-308,613,-8088,1745143556545193179
403743,-32,1,33,-273,624,-8062,1745143556545193179
403935,-32,1,35,-272,640,-8083,1745143556603908059
404127,-29,2,35,-239,668,-8064,1745143556603908059
404319,-24,2,36,-244,697,-8055,1745143556603908059
404511,-18,0,37,-235,724,-8061,1745143556603908059
404703,-13,-2,37,-236,721,-8071,1745143556603908059
404895,-6,-3,37,-236,699,-8067,1745143556603908059
405087,0,-5,37,-249,690,-8062,1745143556603908059
405279,2,-7,39,-271,668,-8067,1745143556603908059
405471,3,-11,39,-271,620,-8048,1745143556603908059
405663,1,-13,38,-300,603,-8044,1745143556603908059
405855,-3,-15,38,-314,579,-8044,1745143556603908059
406047,-13,-13,36,-338,572,-8033,1745143556603908059
406239,-25,-11,33,-342,574,-8048,1745143556662684033
406431,-26,-10,34,-344,607,-8073,1745143556662684033
406623,-18,-8,36,-317,598,-8109,1745143556662684033
406815,-9,-7,34,-299,594,-8115,1745143556662684033
407007,-13,-6,28,-295,577,-8113,1745143556662684033
407199,-19,-8,24,-272,559,-8157,1745143556662684033
407391,-17,-10,27,-274,553,-8143,1745143556662684033
407583,-15,-9,30,-281,561,-8129,1745143556662684033
407775,-18,-9,28,-307,575,-8124,1745143556662684033
407967,-22,-10,25,-309,588,-8114,1745143556662684033
408159,-25,-11,20,-325,600,-8085,1745143556662684033
408351,-24,-10,17,-344,632,-8067,1745143556662684033
408543,-24,-9,15,-357,650,-8037,1745143556721031312
408735,-23,-7,14,-368,655,-8054,1745143556721031312
408927,-19,-5,12,-350,657,-8068,1745143556721031312
409119,-15,-2,9,-366,658,-8073,1745143556721031312
409311,-14,1,6,-336,651,-8081,1745143556721031312
409503,-16,6,2,-319,634,-8094,1745143556721031312
409695,-17,9,1,-306,634,-8113,1745143556721031312
409887,-10,10,3,-292,626,-8131,1745143556721031312
410079,-3,12,3,-263,622,-8125,1745143556721031312
410271,0,11,0,-261,591,-8102,1745143556721031312
410463,2,7,-6,-278,585,-8089,1745143556721031312
410655,-1,5,-10,-303,571,-8053,1745143556721031312
410847,-7,5,-13,-330,552,-8036,1745143556778961043
411039,-10,5,-14,-381,536,-8032,1745143556778961043
411231,-9,7,-16,-392,560,-8049,1745143556778961043
411423,-8,12,-20,-425,569,-8070,1745143556778961043
411615,-6,18,-27,-411,592,-8096,1745143556778961043
411807,-5,23,-33,-395,602,-8114,1745143556778961043
411999,-6,30,-36,-358,618,-8140,1745143556778961043
412191,-6,35,-37,-341,618,-8156,1745143556778961043
412383,-6,36,-38,-311,609,-8135,1745143556778961043
412575,-4,36,-39,-278,600,-8128,1745143556778961043
412767,-4,36,-41,-287,599,-8117,1745143556778961043
412959,-5,35,-44,-266,571,-8093,1745143556778961043
413151,-7,34,-47,-283,570,-8100,1745143556842905251
413343,-10,34,-49,-278,568,-8087,1745143556842905251
413535,-14,33,-50,-270,579,-8080,1745143556842905251
413727,-17,31,-51,-289,617,-8071,1745143556842905251
413919,-20,31,-52,-302,637,-8060,1745143556842905251
414111,-21,29,-52,-285,678,-8053,1745143556842905251
414303,-21,28,-52,-289,680,-8032,1745143556842905251
414495,-19,24,-51,-283,679,-8025,1745143556842905251
414687,-19,22,-50,-283,683,-8023,1745143556842905251
414879,-16,19,-50,-272,679,-8032,1745143556842905251
415071,-14,17,-48,-281,674,-8022,1745143556842905251
415263,-12,16,-48,-279,674,-8031,1745143556842905251
415455,-11,14,-46,-273,681,-8036,1745143556901494455
415647,-9,12,-44,-272,681,-8038,1745143556901494455
415839,-7,11,-43,-269,698,-8060,1745143556901494455
416031,-4,10,-41,-254,670,-8072,1745143556901494455
416223,-4,8,-40,-236,635,-8097,1745143556901494455
416415,-5,4,-38,-231,613,-8091,1745143556901494455
416607,-7,0,-36,-234,598,-8074,1745143556901494455
416799,-10,-5,-34,-245,604,-8091,1745143556901494455
416991,-15,-9,-33,-289,589,-8067,1745143556901494455
417183,-21,-13,-31,-298,600,-8061,1745143556901494455
417375,-26,-16,-29,-309,617,-8041,1745143556901494455
417567,-30,-16,-26,-327,624,-8039,1745143556901494455
417759,-35,-17,-23,-325,648,-8027,1745143556952938464
417951,-37,-17,-21,-302,676,-8022,1745143556952938464
418143,-35,-19,-20,-310,695,-8033,1745143556952938464
418335,-31,-19,-18,-299,706,-8038,1745143556952938464
418527,-26,-21,-17,-298,710,-8062,1745143556952938464
418719,-21,-23,-17,-271,700,-8061,1745143556952938464
418911,-16,-24,-16,-271,690,-8076,1745143556952938464
419103,-14,-26,-15,-263,651,-8095,1745143556952938464
419295,-15,-29,-13,-278,622,-8097,1745143556952938464
419487,-18,-32,-11,-284,598,-8097,1745143556952938464
419679,-22,-34,-10,-285,595,-8102,1745143556952938464
419871,-27,-35,-8,-298,598,-8090,1745143556952938464
420063,-33,-36,-8,-314,613,-8090,1745143557018244378
420255,-39,-35,-7,-327,609,-8088,1745143557018244378
420447,-46,-36,-9,-315,622,-8084,1745143557018244378
420639,-56,-35,-10,-325,631,-8065,1745143557018244378
420831,-62,-34,-11,-294,650,-8082,1745143557018244378
421023,-66,-32,-10,-283,660,-8026,1745143557018244378
421215,-67,-51,-7,-341,769,-7131,1745143557018244378
421407,1,-263,-17,130,325,-7773,1745143557018244378
421599,-190,-210,-12,-27,-697,-9075,1745143557018244378
421791,-295,-56,-15,-315,110,-8029,1745143557018244378
421983,-298,-97,6,-372,266,-7823,1745143557018244378
422175,-333,-47,21,-718,356,-8208,1745143557018244378
422367,-378,-44,14,-684,509,-8170,1745143557076374889
422367,-378,-44,14,-684,509,-8170,1745143557076374889
422751,-367,-37,-17,-226,1266,-8213,1745143557076374889
422943,-316,-39,-25,-190,1307,-8242,1745143557076374889
423135,-271,-40,-32,-209,1273,-8243,1745143557076374889
423327,-232,-48,-33,-244,1223,-8209,1745143557076374889
423519,-193,-55,-29,-283,1191,-8147,1745143557076374889
423711,-154,-60,-22,-366,1200,-8095,1745143557076374889
423903,-110,-59,-13,-441,1250,-8040,1745143557076374889
424095,-67,-53,-7,-447,1240,-8006,1745143557076374889
424287,-28,-48,-7,-455,1162,-8012,1745143557076374889
424479,4,-42,-12,-466,1022,-8036,1745143557076374889
424671,25,-36,-14,-465,914,-8043,1745143557135579088
424863,36,-31,-16,-455,825,-8043,1745143557135579088
425055,36,-22,-17,-512,683,-8039,1745143557135579088
425247,25,-12,-19,-533,612,-8050,1745143557135579088
425439,16,-1,-19,-525,647,-8084,1745143557135579088
425631,15,5,-16,-432,769,-8102,1745143557135579088
425823,16,8,-16,-373,881,-8114,1745143557135579088
426015,20,7,-18,-317,933,-8127,1745143557135579088
426207,27,1,-20,-305,946,-8119,1745143557135579088
426399,34,-7,-22,-272,906,-8100,1745143557135579088
426591,39,-13,-21,-316,851,-8075,1745143557135579088
426783,39,-16,-19,-374,802,-8048,1745143557135579088
426975,34,-14,-18,-464,754,-8013,1745143557186715183
427167,33,-8,-17,-489,725,-8009,1745143557186715183
427359,31,-3,-18,-511,694,-8012,1745143557186715183
427551,24,3,-22,-494,669,-8013,1745143557186715183
427743,11,9,-24,-482,618,-8018,1745143557186715183
427935,0,19,-24,-522,626,-8040,1745143557186715183
428127,-10,28,-21,-503,713,-8050,1745143557186715183
428319,-15,34,-18,-464,809,-8056,1745143557186715183
428511,-14,35,-16,-406,912,-8048,1745143557186715183
428703,-10,33,-14,-350,967,-8030,1745143557186715183
428895,-4,30,-11,-367,972,-8013,1745143557186715183
429087,0,23,0,-424,983,-7967,1745143557186715183
429279,3,14,22,-456,868,-7968,1745143557252132971
429471,8,14,27,-440,768,-8085,1745143557252132971
429663,8,27,14,-428,781,-8055,1745143557252132971
429855,9,29,11,-381,801,-8044,1745143557252132971
430047,10,28,13,-345,796,-8080,1745143557252132971
430239,9,25,14,-275,802,-8088,1745143557252132971
430431,11,9,23,-223,845,-8035,1745143557252132971
430623,19,-32,56,-245,919,-7949,1745143557252132971
430815,61,-78,81,79,617,-8311,1745143557252132971
431007,19,-49,33,-195,744,-8105,1745143557252132971
431199,15,-48,22,-306,775,-8038,1745143557252132971
431391,9,-55,18,-405,827,-8039,1745143557252132971
431583,5,-50,17,-433,875,-8088,1745143557310044942
431775,5,-43,12,-466,901,-8014,1745143557310044942
431967,14,-39,9,-486,903,-8016,1745143557310044942
432159,20,-36,7,-484,846,-8020,1745143557310044942
432351,21,-32,7,-469,782,-8038,1745143557310044942
432543,19,-28,9,-477,741,-8054,1745143557310044942
432735,16,-25,11,-486,739,-8090,1745143557310044942
432927,12,-21,14,-475,747,-8106,1745143557310044942
433119,7,-18,14,-443,762,-8101,1745143557310044942
433311,0,-19,13,-380,728,-8102,1745143557310044942
433503,-7,-24,13,-315,723,-8083,1745143557310044942
433695,-12,-29,16,-341,743,-8077,1745143557310044942
433887,-15,-30,19,-391,763,-8069,1745143557367765560
434079,-15,-28,20,-457,817,-8068,1745143557367765560
434271,-9,-25,16,-448,881,-8061,1745143557367765560
434463,3,-23,12,-445,941,-8059,1745143557367765560
434655,14,-21,8,-430,945,-8064,1745143557367765560
434847,22,-20,5,-398,883,-8066,1745143557367765560
435039,27,-21,4,-406,801,-8075,1745143557367765560
435231,27,-23,4,-425,737,-8068,1745143557367765560
435423,24,-23,6,-432,685,-8076,1745143557367765560
435615,19,-22,7,-464,673,-8061,1745143557367765560
435807,11,-20,6,-458,620,-8061,1745143557367765560
435999,-1,-16,5,-485,584,-8067,1745143557367765560
436191,-15,-11,2,-480,562,-8061,1745143557427455588
436383,-31,-7,0,-491,568,-8057,1745143557427455588
436575,-45,-1,1,-516,616,-8043,1745143557427455588
436767,-55,4,0,-505,701,-8052,1745143557427455588
436959,-59,9,-2,-470,781,-8058,1745143557427455588
437151,-58,9,-5,-428,866,-8058,1745143557427455588
437343,-52,7,-9,-415,885,-8066,1745143557427455588
437535,-45,8,-11,-426,875,-8088,1745143557427455588
437727,-40,9,-14,-480,835,-8094,1745143557427455588
437919,-36,12,-15,-521,826,-8089,1745143557427455588
438111,-31,18,-16,-550,838,-8083,1745143557427455588
438303,-27,27,-17,-540,842,-8078,1745143557427455588
438495,-21,36,-16,-529,856,-8098,1745143557485746462
438687,-17,44,-18,-500,870,-8102,1745143557485746462
438879,-15,50,-20,-460,819,-8099,1745143557485746462
439071,-16,53,-22,-417,763,-8087,1745143557485746462
439263,-19,52,-22,-389,753,-8074,1745143557485746462
439455,-21,51,-18,-377,787,-8051,1745143557485746462
439647,-23,49,-12,-400,841,-8037,1745143557485746462
439839,-23,47,-11,-422,867,-8010,1745143557485746462
440031,-19,44,-13,-442,844,-7991,1745143557485746462
440223,-17,41,-18,-433,793,-7996,1745143557485746462
440415,-16,38,-20,-435,799,-8012,1745143557485746462
440607,-13,37,-18,-407,830,-8000,1745143557485746462
440799,-10,34,-15,-388,846,-8012,1745143557542534381
440991,-8,31,-12,-372,836,-8023,1745143557542534381
441183,-6,28,-13,-390,817,-8040,1745143557542534381
441375,-4,29,-13,-411,789,-8045,1745143557542534381
441567,-3,30,-14,-408,779,-8017,1745143557542534381
441759,-5,29,-13,-410,816,-7957,1745143557542534381
441951,-7,27,-10,-452,887,-7903,1745143557542534381
442143,-2,28,-6,-450,927,-7877,1745143557542534381
442335,8,26,-3,-359,934,-7881,1745143557542534381
442527,14,13,-3,-233,846,-7895,1745143557542534381
442719,10,-9,-3,-152,758,-7916,1745143557542534381
442911,4,-32,3,-165,725,-7924,1745143557542534381
444639,-147,-70,4,-423,561,-8271,1745143559828755944
531039,99,89,-4,-513,1794,-7848,1745143559828755944
531231,27,97,-12,-433,132,-8157,1745143559828755944
531423,110,-72,-24,-526,450,-8198,1745143559828755944
531615,116,-69,1,-682,544,-8058,1745143559828755944
531807,98,-31,26,-726,675,-8189,1745143559828755944
531999,79,-34,28,-697,780,-8201,1745143559828755944
532191,54,-7,15,-711,712,-8218,1745143559828755944
532383,30,12,2,-724,634,-8264,1745143559828755944
532575,9,25,0,-744,625,-8333,1745143559828755944
532767,-6,58,6,-708,739,-8379,1745143559828755944
532959,-12,69,7,-629,911,-8389,1745143559828755944
533151,-18,75,7,-477,888,-8384,1745143559886980412
533343,-22,72,1,-266,797,-8345,1745143559886980412
533535,-21,52,0,-222,827,-8398,1745143559886980412
533727,-10,49,9,-317,980,-8465,1745143559886980412
533919,8,53,12,-360,1096,-8539,1745143559886980412
534111,31,48,6,-320,1179,-8601,1745143559886980412
534303,56,47,-4,-222,1298,-8620,1745143559886980412
534495,75,24,-8,15,743,-7992,1745143559886980412
534687,-23,-3,-9,-174,1173,-9317,1745143559886980412
534879,174,-15,49,-258,2070,-7723,1745143559886980412
535071,245,7,69,-533,1652,-8070,1745143559886980412
535263,203,52,39,-813,973,-8017,1745143559886980412
535455,172,106,17,-935,617,-8425,1745143559944998059
535647,-69,402,124,-1981,-2130,-7868,1745143559944998059
535839,-177,660,-81,-4130,-1627,-4625,1745143559944998059
536031,-214,450,-141,-2071,-621,-7390,1745143559944998059
536223,-229,508,-150,-761,-73,-7746,1745143559944998059
536415,-291,428,-186,305,817,-7671,1745143559944998059
536607,-283,388,-186,947,1565,-7904,1745143559944998059
536799,-223,295,-150,1328,2119,-8152,1745143559944998059
536991,-138,173,-100,1341,2340,-8216,1745143559944998059
537183,-51,55,-50,1033,2255,-8251,1745143559944998059
537375,28,-31,-22,513,1918,-8234,1745143559944998059
537567,87,-74,-19,-84,1524,-8164,1745143559944998059
537759,118,-79,-24,-564,1085,-8086,1745143560003871115
537951,122,-58,-31,-878,692,-8011,1745143560003871115
538143,105,-23,-34,-1000,426,-7963,1745143560003871115
538335,73,20,-31,-947,267,-7969,1745143560003871115
538527,37,53,-29,-761,277,-8005,1745143560003871115
538719,-1,74,-28,-527,387,-8058,1745143560003871115
538911,-35,81,-25,-329,572,-8103,1745143560003871115
539103,-56,74,-22,-175,776,-8122,1745143560003871115
539295,-64,62,-20,-110,967,-8107,1745143560003871115
539487,-60,47,-20,-97,1088,-8092,1745143560003871115
539679,-48,33,-21,-154,1165,-8053,1745143560003871115
539871,-33,23,-23,-197,1161,-8018,1745143560003871115
540063,-17,17,-26,-264,1100,-7993,1745143560067255536
540255,-3,15,-27,-294,1043,-7961,1745143560067255536
540447,7,14,-29,-302,960,-7956,1745143560067255536
540639,11,15,-29,-317,873,-7970,1745143560067255536
540831,11,15,-29,-315,817,-7980,1745143560067255536
541023,9,13,-30,-312,787,-7989,1745143560067255536
541215,5,12,-31,-301,742,-8014,1745143560067255536
541407,0,10,-32,-310,749,-8034,1745143560067255536
541599,-3,7,-34,-310,774,-8033,1745143560067255536
541791,-5,5,-36,-340,793,-8031,1745143560067255536
541983,-6,4,-38,-347,826,-8039,1745143560067255536
542175,-7,3,-40,-381,855,-8059,1745143560067255536
542367,-8,2,-43,-404,874,-8068,1745143560118885637
542559,-7,2,-44,-419,893,-8076,1745143560118885637
542751,-7,5,-44,-416,904,-8100,1745143560118885637
542943,-8,8,-44,-415,892,-8095,1745143560118885637
543135,-11,8,-44,-391,870,-8078,1745143560118885637
543327,-16,8,-43,-378,860,-8080,1745143560118885637
543519,-23,9,-41,-362,870,-8043,1745143560118885637
543711,-29,9,-40,-357,885,-8043,1745143560118885637
543903,-33,7,-39,-361,892,-8023,1745143560118885637
544095,-32,6,-38,-354,919,-8031,1745143560118885637
544287,-31,5,-38,-362,931,-8025,1745143560118885637
544479,-31,4,-38,-378,928,-8010,1745143560118885637
544671,-31,3,-40,-375,933,-7990,1745143560179225451
544863,-30,1,-40,-376,948,-7989,1745143560179225451
545055,-28,-1,-40,-386,946,-7973,1745143560179225451
545247,-26,-3,-40,-392,949,-7949,1745143560179225451
545439,-23,-5,-42,-400,937,-7939,1745143560179225451
545631,-21,-7,-43,-411,941,-7940,1745143560179225451
545823,-19,-8,-46,-422,915,-7949,1745143560179225451
546015,-17,-10,-47,-412,900,-7966,1745143560179225451
546207,-15,-9,-48,-401,882,-7989,1745143560179225451
546399,-14,-9,-49,-404,860,-8000,1745143560179225451
546591,-13,-8,-49,-390,851,-8037,1745143560179225451
546783,-14,-6,-49,-386,852,-8051,1745143560179225451
546975,-16,-3,-49,-363,851,-8080,1745143560242318312
547167,-18,-1,-49,-374,873,-8110,1745143560242318312
547359,-21,1,-48,-368,887,-8120,1745143560242318312
547551,-23,3,-46,-357,905,-8116,1745143560242318312
547743,-25,4,-46,-350,905,-8120,1745143560242318312
547935,-27,5,-43,-341,909,-8105,1745143560242318312
548127,-29,5,-44,-339,914,-8068,1745143560242318312
548319,-31,5,-45,-348,913,-8055,1745143560242318312
548511,-32,5,-45,-363,939,-8035,1745143560242318312
548703,-31,6,-45,-356,959,-8030,1745143560242318312
548895,-30,7,-47,-374,966,-8023,1745143560242318312
549087,-27,8,-48,-386,981,-8046,1745143560242318312
549279,-21,10,-50,-364,1004,-8062,1745143560301276992
549471,-15,12,-51,-375,1008,-8070,1745143560301276992
549663,-10,13,-52,-361,992,-8094,1745143560301276992
549855,-5,13,-52,-357,972,-8099,1745143560301276992
550047,0,13,-50,-349,940,-8079,1745143560301276992
550239,3,13,-47,-352,922,-8061,1745143560301276992
550431,5,14,-43,-359,913,-8036,1745143560301276992
550623,7,12,-41,-349,873,-8042,1745143560301276992
550815,7,12,-39,-350,861,-8047,1745143560301276992
551007,6,13,-40,-376,871,-8030,1745143560301276992
551199,3,13,-39,-372,892,-8018,1745143560301276992
551391,1,14,-39,-375,888,-8027,1745143560301276992
551583,1,16,-37,-371,897,-8022,1745143560352543451
551775,1,19,-35,-354,921,-8025,1745143560352543451
551967,2,20,-33,-331,923,-8060,1745143560352543451
552159,3,19,-31,-327,975,-8094,1745143560352543451
552351,3,18,-29,-316,1019,-8105,1745143560352543451
552543,4,16,-26,-343,1053,-8098,1745143560352543451
552735,6,12,-24,-352,1057,-8084,1745143560352543451
552927,10,11,-22,-382,1052,-8072,1745143560352543451
553119,16,11,-21,-374,1015,-8055,1745143560352543451
553311,19,12,-21,-373,975,-8034,1745143560352543451
553503,20,13,-19,-351,919,-8021,1745143560352543451
553695,20,14,-16,-342,885,-8007,1745143560352543451
553887,17,15,-11,-313,848,-7994,1745143560418092539
554079,15,13,-7,-275,841,-8011,1745143560418092539
554271,14,10,-2,-278,823,-8040,1745143560418092539
554463,15,6,1,-254,838,-8070,1745143560418092539
554655,14,2,4,-268,839,-8082,1745143560418092539
554847,11,-2,6,-284,849,-8068,1745143560418092539
555039,6,-6,10,-318,858,-8052,1745143560418092539
555231,1,-8,13,-335,869,-8047,1745143560418092539
555423,-3,-8,17,-372,887,-8033,1745143560418092539
555615,-3,-6,20,-388,912,-8016,1745143560418092539
555807,-1,-4,22,-364,947,-8034,1745143560418092539
555999,3,-2,22,-355,965,-8042,1745143560418092539
556191,6,0,23,-345,966,-8061,1745143560476556537
556383,7,0,23,-341,971,-8097,1745143560476556537
556575,9,1,25,-333,968,-8108,1745143560476556537
556767,11,1,28,-339,947,-8121,1745143560476556537
556959,11,1,32,-335,931,-8131,1745143560476556537
557151,10,2,34,-337,927,-8127,1745143560476556537
557343,7,2,35,-358,897,-8103,1745143560476556537
557535,2,4,37,-395,883,-8075,1745143560476556537
557727,-1,5,39,-393,885,-8068,1745143560476556537
557919,-2,6,42,-402,867,-8040,1745143560476556537
558111,-3,8,45,-396,858,-8036,1745143560476556537
558303,-3,10,47,-374,840,-8020,1745143560476556537
558495,-4,11,49,-351,840,-8008,1745143560534704183
558687,-2,12,50,-363,828,-7999,1745143560534704183
558879,-1,12,52,-348,833,-8006,1745143560534704183
559071,-2,12,54,-328,867,-8010,1745143560534704183
559263,-3,11,55,-338,875,-8027,1745143560534704183
559455,-3,10,55,-341,895,-8031,1745143560534704183
559647,-1,9,55,-345,908,-8049,1745143560534704183
559839,2,11,53,-371,936,-8073,1745143560534704183
560031,4,13,52,-375,932,-8065,1745143560534704183
560223,5,14,51,-374,922,-8071,1745143560534704183
560415,5,16,51,-367,917,-8084,1745143560534704183
560607,5,17,51,-347,923,-8096,1745143560534704183
560799,5,19,52,-336,914,-8090,1745143560591483247
560991,4,19,52,-322,904,-8088,1745143560591483247
561183,4,18,52,-322,893,-8083,1745143560591483247
561375,6,16,52,-328,886,-8069,1745143560591483247
561567,6,15,53,-323,870,-8045,1745143560591483247
561759,8,14,54,-351,857,-8055,1745143560591483247
561951,9,14,57,-343,819,-8038,1745143560591483247
562143,9,15,58,-338,781,-8019,1745143560591483247
562335,10,18,58,-309,759,-7996,1745143560591483247
562527,7,20,57,-287,762,-7971,1745143560591483247
562719,2,21,56,-270,775,-7987,1745143560591483247
562911,-1,20,59,-262,809,-7988,1745143560591483247
563103,-1,17,61,-254,851,-7988,1745143560652024309
563295,-3,14,62,-275,913,-7995,1745143560652024309
563487,-3,11,64,-328,971,-8001,1745143560652024309
563679,-1,7,63,-375,1004,-8000,1745143560652024309
563871,5,6,64,-421,1037,-8031,1745143560652024309
564063,14,11,65,-442,1067,-8067,1745143560652024309
564255,22,20,66,-420,1024,-8096,1745143560652024309
564447,31,25,66,-382,998,-8141,1745143560652024309
564639,38,27,65,-327,950,-8159,1745143560652024309
564831,39,30,64,-297,896,-8166,1745143560652024309
565023,37,32,65,-282,841,-8176,1745143560652024309
565215,30,36,71,-253,800,-8186,1745143560652024309
565407,23,39,77,-254,790,-8198,1745143560710564399
565599,14,42,78,-250,793,-8196,1745143560710564399
565791,8,42,78,-263,798,-8180,1745143560710564399
565983,4,41,74,-287,784,-8141,1745143560710564399
566175,0,44,72,-301,788,-8110,1745143560710564399
566367,-5,46,72,-314,774,-8080,1745143560710564399
566559,-7,49,72,-321,778,-8068,1745143560710564399
566751,-10,53,72,-300,785,-8049,1745143560710564399
566943,-11,54,71,-311,803,-8036,1745143560710564399
567135,-12,55,69,-283,819,-8018,1745143560710564399
567327,-11,58,67,-267,849,-8019,1745143560710564399
567519,-9,58,65,-281,886,-8041,1745143560710564399
567711,-5,59,64,-276,906,-8036,1745143560768710691
567903,-1,58,60,-269,899,-8062,1745143560768710691
568095,3,57,54,-302,893,-8078,1745143560768710691
568287,6,58,51,-324,883,-8069,1745143560768710691
568479,8,58,47,-331,876,-8082,1745143560768710691
568671,7,59,45,-353,863,-8087,1745143560768710691
568863,4,59,43,-370,851,-8076,1745143560768710691
569055,0,63,42,-355,844,-8058,1745143560768710691
569247,-3,65,39,-340,828,-8064,1745143560768710691
569439,-6,67,35,-307,815,-8047,1745143560768710691
569631,-9,68,32,-291,816,-8048,1745143560768710691
569823,-11,69,30,-262,831,-8073,1745143560768710691
570015,-12,70,27,-260,827,-8099,1745143560827346041
570207,-10,72,23,-251,846,-8124,1745143560827346041
570399,-8,72,18,-244,847,-8147,1745143560827346041
570591,-7,72,13,-235,812,-8138,1745143560827346041
570783,-7,71,8,-245,796,-8097,1745143560827346041
570975,-9,72,5,-233,788,-8062,1745143560827346041
571167,-12,75,3,-231,790,-8035,1745143560827346041
571359,-15,75,0,-234,817,-8012,1745143560827346041
571551,-17,75,-4,-224,836,-8009,1745143560827346041
571743,-14,75,-9,-234,874,-7996,1745143560827346041
571935,-10,77,-14,-206,893,-7998,1745143560827346041
572127,-5,77,-20,-189,903,-8004,1745143560827346041
572319,2,75,-26,-197,906,-8019,1745143560885894360
572511,6,75,-30,-202,922,-8035,1745143560885894360
572703,10,72,-34,-201,900,-8042,1745143560885894360
572895,12,70,-37,-208,873,-8051,1745143560885894360
573087,12,69,-39,-212,845,-8058,1745143560885894360
573279,11,70,-41,-215,817,-8052,1745143560885894360
573471,9,71,-42,-199,807,-8075,1745143560885894360
573663,6,70,-43,-182,810,-8072,1745143560885894360
573855,3,71,-45,-162,818,-8061,1745143560885894360
574047,1,71,-45,-155,830,-8057,1745143560885894360
574239,1,72,-46,-137,818,-8054,1745143560885894360
574431,-1,70,-47,-121,823,-8063,1745143560885894360
574623,-1,68,-47,-121,819,-8077,1745143560943970288
574815,0,65,-48,-123,803,-8080,1745143560943970288
575007,0,63,-49,-152,808,-8081,1745143560943970288
575199,-2,61,-50,-159,793,-8079,1745143560943970288
575391,-5,60,-50,-178,822,-8073,1745143560943970288
575583,-7,60,-49,-187,843,-8048,1745143560943970288
575775,-9,60,-47,-185,858,-8052,1745143560943970288
575967,-10,60,-45,-171,887,-8035,1745143560943970288
576159,-9,58,-45,-166,920,-8026,1745143560943970288
576351,-7,56,-44,-151,925,-8029,1745143560943970288
576543,-3,53,-43,-132,928,-8017,1745143560943970288
576735,-1,50,-41,-126,949,-8009,1745143560943970288
576927,-1,48,-38,-131,929,-8015,1745143561002745532
577119,0,43,-35,-124,935,-8023,1745143561002745532
577311,4,40,-33,-141,926,-8049,1745143561002745532
577503,9,38,-32,-121,879,-8044,1745143561002745532
577695,12,36,-31,-121,866,-8056,1745143561002745532
577887,11,34,-29,-118,841,-8057,1745143561002745532
578079,8,31,-26,-111,805,-8053,1745143561002745532
578271,3,28,-23,-101,798,-8039,1745143561002745532
578463,-1,26,-20,-105,797,-8036,1745143561002745532
578655,-3,22,-17,-110,811,-8024,1745143561002745532
578847,-3,20,-16,-111,847,-8030,1745143561002745532
579039,-5,19,-16,-105,853,-8034,1745143561002745532
579231,-6,16,-14,-117,859,-8042,1745143561060943073
579423,-7,14,-15,-109,869,-8056,1745143561060943073
579615,-6,10,-14,-110,844,-8057,1745143561060943073
579807,-6,8,-13,-116,853,-8058,1745143561060943073
579999,-8,7,-11,-130,857,-8040,1745143561060943073
580191,-10,4,-10,-129,862,-8038,1745143561060943073
580383,-14,4,-8,-132,874,-8019,1745143561060943073
580575,-14,2,-6,-133,880,-8032,1745143561060943073
580767,-14,1,-6,-136,876,-8036,1745143561060943073
580959,-11,0,-5,-119,892,-8035,1745143561060943073
581151,-8,-1,-4,-112,873,-8050,1745143561060943073
581343,-6,-1,-3,-117,873,-8057,1745143561060943073
581535,-4,-3,-3,-114,857,-8057,1745143561118655827
581727,-5,-4,-3,-110,838,-8069,1745143561118655827
581919,-7,-5,-4,-140,811,-8064,1745143561118655827
582111,-9,-6,-4,-150,813,-8069,1745143561118655827
582303,-10,-7,-4,-143,814,-8065,1745143561118655827
582495,-11,-7,-4,-149,807,-8060,1745143561118655827
582687,-12,-5,-4,-148,798,-8088,1745143561118655827
582879,-14,-4,-3,-131,811,-8079,1745143561118655827
583071,-18,-2,-3,-123,817,-8107,1745143561118655827
583263,-20,0,-3,-118,837,-8112,1745143561118655827
583455,-22,1,-3,-108,842,-8112,1745143561118655827
583647,-23,1,-3,-112,868,-8116,1745143561118655827
583839,-24,2,-2,-107,864,-8105,1745143561177509717
584031,-27,4,0,-89,863,-8093,1745143561177509717
584223,-29,5,2,-98,872,-8080,1745143561177509717
584415,-32,5,4,-95,873,-8071,1745143561177509717
584607,-34,6,5,-91,886,-8055,1745143561177509717
584799,-34,5,7,-108,893,-8030,1745143561177509717
584991,-34,6,6,-132,906,-8035,1745143561177509717
585183,-33,7,6,-140,910,-8043,1745143561177509717
585375,-29,8,5,-150,907,-8041,1745143561177509717
585567,-25,9,4,-175,890,-8053,1745143561177509717
585759,-23,12,3,-176,899,-8085,1745143561177509717
585951,-23,14,0,-180,858,-8106,1745143561177509717
586143,-21,15,-2,-198,834,-8112,1745143561236343450
586335,-20,18,-5,-206,807,-8118,1745143561236343450
586527,-21,21,-6,-217,804,-8103,1745143561236343450
586719,-23,24,-8,-239,791,-8093,1745143561236343450
586911,-24,28,-10,-212,786,-8089,1745143561236343450
587103,-25,32,-13,-205,790,-8077,1745143561236343450
587295,-26,37,-16,-193,814,-8068,1745143561236343450
587487,-25,41,-19,-180,833,-8084,1745143561236343450
587679,-24,46,-23,-151,847,-8097,1745143561236343450
587871,-24,49,-25,-149,886,-8107,1745143561236343450
588063,-22,51,-28,-130,897,-8107,1745143561236343450
588255,-19,54,-29,-120,894,-8120,1745143561236343450
588447,-16,59,-30,-121,913,-8103,1745143561293733499
588639,-14,63,-30,-121,920,-8088,1745143561293733499
588831,-13,66,-32,-144,935,-8088,1745143561293733499
589023,-12,69,-34,-127,917,-8092,1745143561293733499
589215,-10,73,-36,-134,914,-8095,1745143561293733499
589407,-7,80,-37,-114,902,-8093,1745143561293733499
589599,-4,85,-40,-105,887,-8094,1745143561293733499
589791,-1,91,-43,-115,890,-8118,1745143561293733499
589983,0,98,-46,-97,862,-8148,1745143561293733499
590175,1,106,-50,-102,872,-8177,1745143561293733499
590367,3,113,-55,-107,847,-8207,1745143561293733499
590559,3,122,-60,-102,821,-8207,1745143561293733499
590751,1,131,-67,-83,800,-8222,1745143561353402433
590943,-4,141,-75,-94,777,-8227,1745143561353402433
591135,-13,155,-82,-98,765,-8247,1745143561353402433
591327,-26,170,-92,-94,724,-8331,1745143561353402433
591519,-44,186,-103,-55,676,-8419,1745143561353402433
591711,-66,204,-115,-37,632,-8507,1745143561353402433
591903,-90,222,-127,8,580,-8571,1745143561353402433
592095,-118,241,-139,42,545,-8607,1745143561353402433
592287,-149,260,-152,65,495,-8668,1745143561353402433
592479,-183,278,-167,71,447,-8777,1745143561353402433
592671,-228,291,-184,142,370,-8923,1745143561353402433
592863,-283,291,-203,267,277,-8984,1745143561353402433
593055,-337,285,-214,332,201,-9007,1745143561411992314
593247,-387,284,-214,350,201,-9050,1745143561411992314
593439,-421,288,-209,359,182,-9087,1745143561411992314
593631,-433,307,-206,312,181,-8940,1745143561411992314
593823,-421,363,-213,233,180,-9145,1745143561411992314
594015,-418,428,-235,248,145,-9294,1745143561411992314
594207,-442,503,-269,259,92,-9467,1745143561411992314
594399,-477,575,-301,354,-35,-9542,1745143561411992314
594591,-511,646,-321,612,-331,-9383,1745143561411992314
594783,-554,695,-326,1094,-863,-9675,1745143561411992314
594975,-617,729,-313,1532,-1346,-10117,1745143561411992314
595167,-724,748,-227,1871,-1581,-10415,1745143561411992314
595359,-856,755,-101,2410,-2376,-10568,1745143561470409020
595551,-978,733,-103,2812,-2621,-10774,1745143561470409020
595743,-1116,696,-193,3135,-2611,-10999,1745143561470409020
595935,-1293,631,-308,3345,-2462,-11420,1745143561470409020
596127,-1484,556,-378,3598,-2465,-12237,1745143561470409020
596319,-1648,458,-416,3653,-2253,-12515,1745143561470409020
596511,-1775,358,-395,3758,-2174,-13005,1745143561470409020
596703,-1859,256,-325,3976,-2283,-13697,1745143561470409020
596895,-1878,139,-213,4080,-2462,-14010,1745143561470409020
597087,-1823,34,-73,3948,-2630,-14028,1745143561470409020
597279,-1729,-55,83,3708,-2975,-13814,1745143561470409020
597471,-1657,-103,256,3571,-3301,-13358,1745143561470409020
597663,-1695,-19,461,3562,-3312,-11368,1745143561528912340
597855,-1880,45,703,4048,-4433,-11027,1745143561528912340
598047,-1903,-11,988,4278,-5289,-10371,1745143561528912340
598239,-1856,-26,1296,4290,-5353,-10604,1745143561528912340
598431,-1782,-45,1592,4374,-5130,-11083,1745143561528912340
598623,-1642,-103,1868,4632,-5068,-11122,1745143561528912340
598815,-1380,-232,2144,5105,-5151,-11131,1745143561528912340
599007,-999,-422,2411,5534,-5215,-11131,1745143561528912340
599199,-606,-612,2652,5765,-5131,-11147,1745143561528912340
599391,-297,-759,2844,5802,-4913,-11168,1745143561528912340
599583,-88,-863,2988,5760,-4620,-11148,1745143561528912340
599775,68,-940,3100,5688,-4218,-11088,1745143561528912340
599967,195,-1002,3200,5594,-3745,-10986,1745143561587059778
600159,293,-1053,3307,5572,-3282,-10867,1745143561587059778
600351,380,-1094,3437,5597,-2824,-10609,1745143561587059778
600543,476,-1126,3601,5676,-2369,-10195,1745143561587059778
600735,615,-1156,3774,5763,-1895,-9814,1745143561587059778
600927,804,-1180,3945,5788,-1423,-9431,1745143561587059778
601119,1024,-1201,4103,5730,-986,-9037,1745143561587059778
601311,1267,-1207,4250,5621,-643,-8692,1745143561587059778
601503,1523,-1197,4384,5477,-383,-8340,1745143561587059778
601695,1779,-1160,4506,5322,-182,-8032,1745143561587059778
601887,2014,-1096,4618,5197,-90,-7769,1745143561587059778
602079,2214,-1014,4717,5176,-150,-7545,1745143561587059778
602271,2351,-920,4798,5188,-230,-7419,1745143561644746334
602463,2399,-802,4866,5238,-366,-7378,1745143561644746334
602655,2360,-661,4934,5344,-498,-7284,1745143561644746334
602847,2260,-501,5004,5540,-593,-7162,1745143561644746334
603039,2127,-338,5072,5839,-622,-7110,1745143561644746334
603231,1949,-182,5127,6162,-533,-7067,1745143561644746334
603423,1728,-41,5161,6429,-375,-7144,1745143561644746334
603615,1508,105,5188,6630,-118,-7199,1745143561644746334
603807,1306,239,5214,6834,207,-7204,1745143561644746334
603999,1138,354,5232,7064,513,-7156,1745143561644746334
604191,1022,446,5241,7264,873,-7078,1745143561644746334
604383,971,516,5248,7462,1262,-6838,1745143561644746334
604575,971,562,5251,7744,1520,-6620,1745143561708335128
604767,1008,573,5252,8090,1688,-6355,1745143561708335128
604959,1091,558,5243,8377,1778,-6231,1745143561708335128
605151,1197,537,5219,8498,2035,-6274,1745143561708335128
605343,1313,529,5225,8492,2227,-6419,1745143561708335128
605535,1442,536,5245,8493,2341,-6655,1745143561708335128
605727,1582,563,5256,8431,2532,-6823,1745143561708335128
605919,1718,607,5257,8425,2712,-6982,1745143561708335128
606111,1823,667,5246,8444,2836,-7150,1745143561708335128
606303,1890,739,5236,8459,2853,-7232,1745143561708335128
606495,1933,822,5242,8459,2827,-7192,1745143561708335128
606687,1949,922,5257,8424,2765,-7146,1745143561708335128
606879,1928,1033,5274,8425,2643,-7004,1745143561763783476
607071,1857,1138,5288,8443,2412,-6852,1745143561763783476
607263,1742,1228,5296,8478,2104,-6625,1745143561763783476
607455,1597,1301,5304,8562,1689,-6344,1745143561763783476
607647,1415,1348,5302,8683,1208,-6131,1745143561763783476
607839,1216,1379,5288,8799,775,-5993,1745143561763783476
608031,983,1403,5260,8837,480,-5823,1745143561763783476
608223,747,1421,5215,8872,376,-5726,1745143561763783476
608415,505,1431,5151,8936,382,-5709,1745143561763783476
608607,265,1433,5060,9030,457,-5733,1745143561763783476
608799,42,1425,4950,9126,722,-5706,1745143561763783476
608991,-151,1400,4855,9193,1095,-5695,1745143561763783476
609183,-314,1366,4769,9227,1538,-5657,1745143561819845568
609375,-446,1315,4688,9150,1982,-5533,1745143561819845568
609567,-558,1246,4608,8999,2364,-5371,1745143561819845568
609759,-661,1163,4527,8815,2651,-5247,1745143561819845568
609951,-764,1077,4447,8504,2794,-5186,1745143561819845568
610143,-870,996,4371,8125,2850,-5156,1745143561819845568
610335,-975,921,4292,7695,2899,-5117,1745143561819845568
610527,-1079,852,4205,7219,2903,-5132,1745143561819845568
610719,-1180,794,4100,6734,2954,-5125,1745143561819845568
610911,-1277,746,3978,6253,3030,-5164,1745143561819845568
611103,-1366,708,3845,5804,3142,-5308,1745143561819845568
611295,-1437,681,3701,5355,3251,-5501,1745143561819845568
611487,-1478,667,3556,4963,3411,-5677,1745143561879532418
611679,-1489,657,3409,4736,3448,-5846,1745143561879532418
611871,-1478,646,3212,4466,3454,-6044,1745143561879532418
612063,-1454,633,2995,4089,3681,-6162,1745143561879532418
612255,-1419,625,2854,3740,4013,-6203,1745143561879532418
612447,-1373,626,2754,3545,3956,-6146,1745143561879532418
612639,-1318,616,2620,3371,3877,-6020,1745143561879532418
612831,-1255,586,2491,3202,3821,-5886,1745143561879532418
613023,-1195,545,2378,3076,3577,-5828,1745143561879532418
613215,-1137,499,2230,2814,3565,-5922,1745143561879532418
613407,-1083,460,2073,2537,3623,-6114,1745143561879532418
613599,-1025,424,1905,2263,3722,-6287,1745143561879532418
613791,-955,391,1718,1986,3861,-6537,1745143561937895010
613983,-879,361,1546,1694,4372,-6803,1745143561937895010
614175,-812,352,1466,1568,4316,-6907,1745143561937895010
614367,-731,346,1377,1539,4252,-7048,1745143561937895010
614559,-646,339,1273,1571,4026,-7151,1745143561937895010
614751,-564,332,1176,1655,3738,-7282,1745143561937895010
614943,-496,323,1083,1707,3452,-7441,1745143561937895010
615135,-450,308,995,1742,3148,-7511,1745143561937895010
615327,-412,287,909,1728,2835,-7573,1745143561937895010
615519,-375,261,827,1679,2593,-7640,1745143561937895010
615711,-340,241,750,1581,2387,-7646,1745143561937895010
615903,-310,238,688,1450,2266,-7683,1745143561937895010
616095,-279,243,638,1364,2089,-7707,1745143561996102916
616287,-248,235,582,1439,1928,-7834,1745143561996102916
616479,-220,270,528,1491,1822,-8151,1745143561996102916
616671,-187,316,495,1529,1687,-7999,1745143561996102916
616863,-147,305,471,1687,1554,-8005,1745143561996102916
617055,-117,292,449,1812,1397,-8020,1745143561996102916
617247,-94,275,432,1923,1201,-7987,1745143561996102916
617439,-73,268,421,1984,1015,-8002,1745143561996102916
617631,-57,269,409,1997,850,-8060,1745143561996102916
617823,-48,266,397,2000,760,-8083,1745143561996102916
618015,-40,252,387,1939,698,-8056,1745143561996102916
618207,-29,233,381,1974,642,-8284,1745143561996102916
618399,-18,230,375,1906,584,-8175,1745143562054742537
618591,-5,215,369,1875,510,-8206,1745143562054742537
618783,4,209,363,1829,406,-8227,1745143562054742537
618975,8,202,359,1780,305,-8293,1745143562054742537
619167,11,192,358,1743,243,-8312,1745143562054742537
619359,10,183,356,1727,216,-8380,1745143562054742537
619551,6,181,352,1720,232,-8453,1745143562054742537
619743,-1,183,344,1751,222,-8479,1745143562054742537
619935,-5,184,332,1798,143,-8471,1745143562054742537
620127,-3,176,317,1854,83,-8510,1745143562054742537
620319,2,161,304,1856,65,-8499,1745143562054742537
620511,6,142,290,1840,72,-8452,1745143562054742537
620703,9,126,276,1780,118,-8439,1745143562112304042
620895,9,117,262,1744,162,-8436,1745143562112304042
621087,13,112,245,1759,136,-8372,1745143562112304042
621279,20,105,222,1769,61,-8302,1745143562112304042
621471,30,96,197,1774,0,-8253,1745143562112304042
621663,36,85,173,1777,-57,-8162,1745143562112304042
621855,37,71,151,1785,-104,-8097,1745143562112304042
622047,30,55,129,1768,-182,-8115,1745143562112304042
622239,21,41,104,1763,-246,-8119,1745143562112304042
622431,16,29,81,1741,-298,-8206,1745143562112304042
622623,17,19,56,1730,-321,-8267,1745143562112304042
622815,17,8,31,1755,-364,-8242,1745143562112304042
623007,17,-5,5,1763,-396,-8232,1745143562172027351
623199,18,-17,-16,1748,-408,-8202,1745143562172027351
623391,19,-25,-29,1714,-390,-8172,1745143562172027351
623583,23,-27,-37,1659,-383,-8167,1745143562172027351
623775,33,-26,-40,1613,-360,-8128,1745143562172027351
623967,47,-24,-44,1614,-378,-8132,1745143562172027351
624159,60,-24,-50,1631,-440,-8093,1745143562172027351
624351,74,-26,-57,1665,-543,-8082,1745143562172027351
624543,90,-26,-59,1692,-617,-8072,1745143562172027351
624735,104,-21,-58,1738,-649,-8040,1745143562172027351
624927,115,-14,-57,1770,-684,-7987,1745143562172027351
625119,122,-11,-58,1804,-740,-7999,1745143562172027351
625311,125,-13,-63,1849,-827,-8007,1745143562230586034
625503,127,-12,-66,1862,-948,-7980,1745143562230586034
625695,128,-11,-68,1858,-1063,-8007,1745143562230586034
625887,123,-6,-67,1837,-1133,-7984,1745143562230586034
626079,117,-11,-63,1755,-1198,-7776,1745143562230586034
626271,106,-38,-61,1765,-1192,-7854,1745143562230586034
626463,88,-42,-59,1723,-1185,-7837,1745143562230586034
626655,71,-45,-56,1676,-1157,-7840,1745143562230586034
626847,55,-44,-53,1637,-1155,-7825,1745143562230586034
627039,40,-39,-49,1650,-1189,-7848,1745143562230586034
627231,28,-32,-42,1667,-1231,-7890,1745143562230586034
627423,18,-25,-31,1706,-1268,-7923,1745143562230586034
627615,7,-19,-19,1748,-1278,-7971,1745143562288641442
627807,-1,-14,-7,1785,-1270,-8027,1745143562288641442
627999,-14,-9,6,1805,-1229,-8063,1745143562288641442
628191,-26,-5,14,1812,-1192,-8082,1745143562288641442
628383,-34,-7,17,1824,-1150,-8098,1745143562288641442
628575,-39,-10,16,1823,-1122,-8087,1745143562288641442
628767,-44,-14,15,1815,-1126,-8048,1745143562288641442
628959,-46,-19,13,1807,-1160,-8003,1745143562288641442
629151,-47,-27,5,1842,-1195,-7984,1745143562288641442
629343,-52,-37,-12,1828,-1164,-8012,1745143562288641442
629535,-59,-40,-26,1798,-1098,-8014,1745143562288641442
629727,-64,-39,-34,1776,-1060,-7948,1745143562288641442
629919,-63,-36,-33,1762,-1070,-7933,1745143562347420905
630111,-58,-37,-35,1755,-1066,-7936,1745143562347420905
630303,-54,-43,-40,1760,-1078,-7878,1745143562347420905
630495,-51,-49,-47,1740,-1087,-7866,1745143562347420905
630687,-49,-52,-56,1701,-1085,-7858,1745143562347420905
630879,-50,-53,-62,1676,-1081,-7825,1745143562347420905
631071,-55,-55,-69,1648,-1069,-7789,1745143562347420905
631263,-62,-54,-76,1636,-1062,-7763,1745143562347420905
631455,-66,-53,-80,1630,-1069,-7760,1745143562347420905
631647,-65,-52,-84,1649,-1089,-7745,1745143562347420905
631839,-61,-51,-90,1650,-1072,-7781,1745143562347420905
632031,-58,-51,-96,1655,-1057,-7816,1745143562347420905
632223,-55,-51,-105,1650,-1054,-7838,1745143562405561259
632415,-50,-52,-111,1648,-1065,-7833,1745143562405561259
632607,-41,-53,-114,1635,-1081,-7810,1745143562405561259
632799,-34,-56,-119,1608,-1047,-7790,1745143562405561259
632991,-31,-58,-124,1598,-1060,-7809,1745143562405561259
633183,-26,-57,-130,1622,-1075,-7804,1745143562405561259
633375,-20,-53,-136,1642,-1071,-7773,1745143562405561259
633567,-11,-50,-141,1666,-1064,-7743,1745143562405561259
633759,-4,-48,-147,1698,-1057,-7759,1745143562405561259
633951,4,-52,-157,1724,-1059,-7800,1745143562405561259
634143,12,-52,-166,1780,-1076,-7805,1745143562405561259
634335,18,-49,-173,1795,-1146,-7758,1745143562405561259
634527,25,-53,-180,1784,-1274,-7668,1745143562464101870
634719,35,-66,-183,1741,-1374,-7597,1745143562464101870
634911,43,-80,-186,1693,-1447,-7607,1745143562464101870
635103,45,-87,-188,1634,-1491,-7639,1745143562464101870
635295,40,-85,-187,1614,-1539,-7624,1745143562464101870
635487,33,-80,-182,1580,-1598,-7594,1745143562464101870
635679,30,-77,-174,1589,-1631,-7599,1745143562464101870
635871,28,-66,-162,1591,-1611,-7602,1745143562464101870
636063,26,-50,-149,1609,-1553,-7626,1745143562464101870
636255,20,-29,-133,1634,-1533,-7603,1745143562464101870
636447,18,-18,-117,1631,-1532,-7503,1745143562464101870
636639,21,-25,-106,1681,-1548,-7531,1745143562464101870
636831,20,-22,-95,1708,-1566,-7534,1745143562522455243
637023,14,-19,-86,1698,-1587,-7558,1745143562522455243
637215,5,-14,-79,1677,-1619,-7604,1745143562522455243
637407,-4,-10,-74,1647,-1635,-7633,1745143562522455243
637599,-9,-5,-69,1608,-1661,-7637,1745143562522455243
637791,-15,3,-65,1562,-1668,-7623,1745143562522455243
637983,-20,12,-60,1584,-1695,-7610,1745143562522455243
638175,-23,21,-55,1590,-1689,-7596,1745143562522455243
638367,-27,29,-52,1594,-1668,-7648,1745143562522455243
638559,-31,36,-51,1598,-1611,-7671,1745143562522455243
638751,-31,41,-49,1605,-1549,-7664,1745143562522455243
638943,-25,43,-45,1616,-1521,-7623,1745143562522455243
639135,-16,45,-39,1641,-1510,-7616,1745143562581931419
639327,-6,46,-31,1679,-1517,-7631,1745143562581931419
639519,6,45,-24,1679,-1508,-7654,1745143562581931419
639711,17,43,-19,1690,-1513,-7669,1745143562581931419
639903,24,39,-16,1705,-1500,-7702,1745143562581931419
640095,30,34,-12,1712,-1503,-7696,1745143562581931419
640287,35,30,-7,1695,-1506,-7719,1745143562581931419
640479,39,31,-3,1687,-1510,-7773,1745143562581931419
640671,42,32,-1,1690,-1518,-7809,1745143562581931419
640863,43,30,-1,1686,-1503,-7832,1745143562581931419
641055,42,28,-4,1687,-1521,-7833,1745143562581931419
641247,41,25,-7,1667,-1528,-7829,1745143562581931419
641439,38,24,-9,1662,-1545,-7829,1745143562640220626
641631,36,25,-10,1660,-1537,-7837,1745143562640220626
641823,33,27,-13,1650,-1520,-7831,1745143562640220626
642015,30,28,-17,1662,-1494,-7824,1745143562640220626
642207,27,27,-22,1686,-1468,-7777,1745143562640220626
642399,22,24,-26,1676,-1470,-7728,1745143562640220626
642591,17,21,-28,1686,-1484,-7709,1745143562640220626
642783,14,17,-30,1680,-1522,-7716,1745143562640220626
642975,11,14,-30,1672,-1542,-7726,1745143562640220626
643167,8,11,-29,1656,-1572,-7731,1745143562640220626
643359,2,12,-26,1666,-1597,-7732,1745143562640220626
643551,-5,17,-22,1675,-1606,-7747,1745143562640220626
643743,-9,22,-15,1683,-1560,-7778,1745143562698483635
643935,-11,27,-8,1696,-1550,-7779,1745143562698483635
644127,-9,30,-2,1719,-1522,-7785,1745143562698483635
644319,-4,29,3,1728,-1508,-7785,1745143562698483635
644511,0,30,8,1746,-1490,-7804,1745143562698483635
644703,1,30,12,1761,-1463,-7804,1745143562698483635
644895,2,29,17,1740,-1460,-7792,1745143562698483635
645087,3,25,22,1732,-1478,-7787,1745143562698483635
645279,3,22,25,1705,-1492,-7786,1745143562698483635
645471,0,21,27,1691,-1479,-7787,1745143562698483635
645663,-9,22,26,1672,-1477,-7791,1745143562698483635
645855,-19,26,26,1654,-1465,-7772,1745143562698483635
646047,-30,30,24,1661,-1442,-7742,1745143562755322491
646239,-39,36,23,1683,-1410,-7750,1745143562755322491
646431,-48,41,19,1718,-1376,-7755,1745143562755322491
646623,-52,42,16,1736,-1348,-7757,1745143562755322491
646815,-50,38,10,1778,-1314,-7806,1745143562755322491
647007,-48,35,6,1816,-1287,-7824,1745143562755322491
647199,-44,35,2,1816,-1284,-7805,1745143562755322491
647391,-36,31,-1,1796,-1291,-7780,1745143562755322491
647583,-26,27,-2,1756,-1271,-7759,1745143562755322491
647775,-21,27,-4,1723,-1288,-7744,1745143562755322491
647967,-21,27,-7,1713,-1348,-7736,1745143562755322491
648159,-20,27,-7,1689,-1413,-7701,1745143562755322491
648351,-19,30,-4,1670,-1448,-7680,1745143562815633242
648543,-21,35,1,1631,-1466,-7669,1745143562815633242
648735,-26,41,6,1634,-1416,-7701,1745143562815633242
648927,-35,47,10,1659,-1394,-7725,1745143562815633242
649119,-43,56,14,1698,-1361,-7748,1745143562815633242
649311,-48,65,18,1757,-1360,-7761,1745143562815633242
649503,-46,71,21,1790,-1357,-7760,1745143562815633242
649695,-42,71,24,1807,-1359,-7773,1745143562815633242
649887,-40,70,24,1829,-1334,-7794,1745143562815633242
650079,-39,71,24,1818,-1309,-7841,1745143562815633242
650271,-35,73,24,1793,-1242,-7866,1745143562815633242
650463,-28,79,25,1764,-1230,-7860,1745143562815633242
650655,-21,81,25,1753,-1244,-7846,1745143562872246631
650847,-10,78,25,1747,-1251,-7847,1745143562872246631
651039,-1,74,23,1758,-1266,-7862,1745143562872246631
651231,1,71,18,1746,-1281,-7881,1745143562872246631
651423,-4,73,16,1768,-1299,-7843,1745143562872246631
651615,-10,77,17,1774,-1329,-7814,1745143562872246631
651807,-13,74,22,1784,-1353,-7794,1745143562872246631
651999,-15,70,25,1788,-1362,-7803,1745143562872246631
652191,-18,69,27,1792,-1320,-7794,1745143562872246631
652383,-21,65,26,1790,-1266,-7817,1745143562872246631
652575,-24,61,23,1786,-1216,-7876,1745143562872246631
652767,-21,60,20,1818,-1200,-7908,1745143562872246631
652959,-15,62,18,1874,-1230,-7914,1745143562932632746
653151,-6,59,18,1897,-1281,-7869,1745143562932632746
653343,4,51,23,1909,-1300,-7870,1745143562932632746
653535,10,48,27,1897,-1287,-7901,1745143562932632746
653727,11,44,29,1866,-1278,-7918,1745143562932632746
653919,11,41,29,1861,-1267,-7933,1745143562932632746
654111,12,38,29,1838,-1251,-7943,1745143562932632746
654303,12,34,29,1806,-1252,-7937,1745143562932632746
654495,10,32,29,1791,-1243,-7919,1745143562932632746
654687,4,32,28,1813,-1279,-7911,1745143562932632746
654879,-3,33,28,1799,-1281,-7891,1745143562932632746
655071,-11,34,27,1823,-1279,-7900,1745143562932632746
655263,-21,36,23,1843,-1245,-7951,1745143562990860339
655455,-31,36,18,1867,-1229,-7956,1745143562990860339
655647,-35,33,12,1876,-1222,-7937,1745143562990860339
655839,-34,30,7,1890,-1229,-7929,1745143562990860339
656031,-28,26,3,1879,-1218,-7910,1745143562990860339
656223,-22,23,-3,1881,-1200,-7914,1745143562990860339
656415,-14,20,-8,1855,-1160,-7922,1745143562990860339
656607,-5,17,-11,1839,-1127,-7908,1745143562990860339
656799,5,15,-15,1832,-1134,-7914,1745143562990860339
656991,14,12,-17,1819,-1146,-7887,1745143562990860339
657183,21,9,-18,1818,-1158,-7876,1745143562990860339
657375,25,9,-17,1839,-1225,-7873,1745143562990860339
657567,24,8,-17,1876,-1284,-7884,1745143563047682581
657759,23,7,-17,1891,-1358,-7902,1745143563047682581
657951,20,4,-17,1911,-1390,-7893,1745143563047682581
658143,11,-1,-17,1915,-1408,-7875,1745143563047682581
658335,-3,-5,-18,1904,-1392,-7867,1745143563047682581
658527,-14,-5,-19,1850,-1367,-7840,1745143563047682581
658719,-20,-5,-19,1809,-1315,-7817,1745143563047682581
658911,-24,-3,-18,1770,-1276,-7809,1745143563047682581
659103,-25,-1,-17,1775,-1271,-7787,1745143563047682581
659295,-20,4,-15,1795,-1279,-7782,1745143563047682581
659487,-13,10,-11,1820,-1261,-7783,1745143563047682581
659679,-5,16,-6,1849,-1250,-7772,1745143563047682581
659871,4,20,-3,1907,-1228,-7757,1745143563107896770
660063,16,23,-1,1935,-1222,-7754,1745143563107896770
660255,29,22,1,1984,-1219,-7757,1745143563107896770
660447,44,20,1,1976,-1231,-7741,1745143563107896770
660639,59,15,1,1934,-1234,-7714,1745143563107896770
660831,70,10,0,1862,-1249,-7690,1745143563107896770
661023,75,6,-3,1812,-1284,-7693,1745143563107896770
661215,77,6,-5,1770,-1323,-7713,1745143563107896770
661407,75,12,-5,1736,-1368,-7735,1745143563107896770
661599,67,21,-3,1735,-1408,-7738,1745143563107896770
661791,58,28,-1,1756,-1424,-7735,1745143563107896770
661983,47,31,0,1772,-1386,-7742,1745143563107896770
