timestamp,gyr_x,gyr_y,gyr_z,acc_x,acc_y,acc_z,pkt_time_ns
286815,35,27,4,-211,1350,-7946,1745142801240681428
287007,149,-11,-2,-223,788,-7701,1745142801240681428
287199,83,10,-11,39,875,-7896,1745142801240681428
287391,118,-20,-1,-100,708,-7756,1745142801240681428
287583,104,14,6,-182,664,-7997,1745142801240681428
287775,125,-13,10,-138,737,-8078,1745142801240681428
287967,128,-13,13,-129,715,-8163,1745142801240681428
288159,129,-6,9,-130,683,-8240,1745142801240681428
288351,138,-16,7,-129,639,-8254,1745142801240681428
288543,130,-1,7,-104,619,-8312,1745142801240681428
288735,121,-2,9,-26,592,-8307,1745142801240681428
288927,106,-10,11,16,600,-8309,1745142801240681428
289119,89,0,12,14,585,-8349,1745142801297597783
289311,79,0,12,-9,553,-8427,1745142801297597783
289503,65,10,9,-39,476,-8472,1745142801297597783
289695,49,24,3,-37,437,-8539,1745142801297597783
289887,36,24,-1,11,530,-8600,1745142801297597783
290079,24,26,-2,46,656,-8512,1745142801297597783
290271,19,34,-3,78,727,-8436,1745142801297597783
290463,18,36,-5,48,767,-8374,1745142801297597783
290655,29,45,-6,4,915,-8294,1745142801297597783
290847,49,53,-7,-18,943,-8214,1745142801297597783
291039,65,64,-13,-21,894,-8180,1745142801297597783
291231,72,70,-16,-56,795,-8184,1745142801297597783
291423,34,40,-10,-277,-3,-8017,1745142801357198854
291615,-7,79,3,78,1199,-8430,1745142801357198854
291807,119,70,-5,-230,914,-7728,1745142801357198854
291999,100,131,-16,-239,702,-8535,1745142801357198854
292191,80,115,-21,-72,624,-8261,1745142801357198854
292383,109,189,51,-242,1675,-9043,1745142801357198854
292575,73,405,260,700,-690,-8598,1745142801357198854
292767,-61,386,30,-591,240,-6071,1745142801357198854
292959,-94,111,-35,-529,-2039,-7271,1745142801357198854
293151,-302,176,-90,-568,-1613,-7826,1745142801357198854
293343,-376,137,-62,-149,-618,-7652,1745142801357198854
293535,-396,130,-43,25,683,-7742,1745142801357198854
293727,-396,121,-42,242,1482,-7893,1745142801414100157
293919,-293,89,-71,299,1959,-7918,1745142801414100157
294111,-172,45,-84,251,2098,-7948,1745142801414100157
294303,-53,24,-67,214,1848,-7958,1745142801414100157
294495,35,6,-44,131,1426,-7959,1745142801414100157
294687,76,-5,-28,15,1025,-7958,1745142801414100157
294879,91,-8,-22,-66,689,-7952,1745142801414100157
295071,77,-8,-15,-118,433,-7988,1745142801414100157
295263,52,-1,-6,-109,311,-8034,1745142801414100157
295455,25,2,2,-65,280,-8057,1745142801414100157
295647,-6,0,7,-18,326,-8081,1745142801414100157
295839,-28,0,6,8,460,-8070,1745142801414100157
296031,-41,-3,3,36,590,-8060,1745142801473789820
296223,-46,-6,1,59,702,-8054,1745142801473789820
296415,-42,-9,-2,69,786,-8068,1745142801473789820
296607,-34,-12,-4,58,844,-8074,1745142801473789820
296799,-25,-15,-6,50,826,-8061,1745142801473789820
296991,-16,-18,-7,31,789,-8076,1745142801473789820
297183,-9,-21,-6,5,734,-8076,1745142801473789820
297375,-4,-22,-5,-3,685,-8090,1745142801473789820
297567,-2,-22,-4,-12,638,-8096,1745142801473789820
297759,-3,-21,-4,-6,608,-8095,1745142801473789820
297951,-8,-20,-4,-6,598,-8109,1745142801473789820
298143,-15,-18,-4,7,610,-8117,1745142801473789820
298335,-20,-17,-4,16,636,-8111,1745142801527089541
298527,-23,-15,-5,10,678,-8121,1745142801527089541
298719,-23,-13,-6,19,692,-8134,1745142801527089541
298911,-20,-11,-7,22,728,-8137,1745142801527089541
299103,-17,-10,-8,22,746,-8131,1745142801527089541
299295,-14,-8,-9,19,734,-8160,1745142801527089541
299487,-13,-4,-8,3,721,-8158,1745142801527089541
299679,-11,-3,-9,7,701,-8152,1745142801527089541
299871,-10,-3,-10,-19,696,-8134,1745142801527089541
300063,-11,-1,-11,-36,682,-8107,1745142801527089541
300255,-15,2,-11,-50,670,-8096,1745142801527089541
300447,-17,5,-12,-32,694,-8099,1745142801527089541
300639,-18,7,-13,-26,705,-8096,1745142801590610888
300831,-16,9,-15,-1,704,-8108,1745142801590610888
301023,-12,11,-17,10,676,-8116,1745142801590610888
301215,-8,11,-18,23,689,-8129,1745142801590610888
301407,-4,14,-18,7,682,-8130,1745142801590610888
301599,-3,16,-18,-20,671,-8130,1745142801590610888
301791,-3,17,-17,-28,656,-8140,1745142801590610888
301983,-4,19,-18,-23,655,-8139,1745142801590610888
302175,-5,22,-18,-32,690,-8131,1745142801590610888
302367,-7,25,-18,-16,698,-8123,1745142801590610888
302559,-8,28,-16,-11,722,-8106,1745142801590610888
302751,-8,29,-16,5,705,-8116,1745142801590610888
302943,-6,29,-15,25,719,-8105,1745142801648959886
303135,-5,30,-16,17,733,-8077,1745142801648959886
303327,-3,31,-16,9,714,-8083,1745142801648959886
303519,-2,31,-16,3,695,-8077,1745142801648959886
303711,-1,30,-15,-3,710,-8081,1745142801648959886
303903,0,32,-15,-3,713,-8089,1745142801648959886
304095,-1,32,-15,0,711,-8095,1745142801648959886
304287,-1,33,-14,24,696,-8075,1745142801648959886
304479,-2,33,-13,22,694,-8077,1745142801648959886
304671,-2,31,-13,26,694,-8080,1745142801648959886
304863,-1,31,-12,0,704,-8058,1745142801648959886
305055,-1,31,-13,13,711,-8046,1745142801648959886
305247,1,31,-11,15,707,-8054,1745142801708280907
305439,3,31,-10,18,707,-8056,1745142801708280907
305631,3,31,-7,13,696,-8080,1745142801708280907
305823,4,29,-6,15,708,-8105,1745142801708280907
306015,5,28,-4,6,712,-8125,1745142801708280907
306207,7,27,-2,-9,712,-8132,1745142801708280907
306399,9,28,1,-13,697,-8132,1745142801708280907
306591,12,31,4,16,680,-8121,1745142801708280907
306783,13,32,8,28,664,-8111,1745142801708280907
306975,12,33,10,30,663,-8085,1745142801708280907
307167,10,33,12,46,669,-8051,1745142801708280907
307359,7,32,15,43,685,-8036,1745142801708280907
307551,3,32,16,26,705,-8014,1745142801764103418
307743,1,32,17,30,697,-8008,1745142801764103418
307935,3,31,17,26,717,-8027,1745142801764103418
308127,8,31,17,39,730,-8067,1745142801764103418
308319,12,31,16,24,714,-8112,1745142801764103418
308511,16,29,15,20,741,-8159,1745142801764103418
308703,18,29,13,7,721,-8174,1745142801764103418
308895,18,29,13,2,722,-8159,1745142801764103418
309087,17,29,15,22,693,-8133,1745142801764103418
309279,16,30,15,39,663,-8098,1745142801764103418
309471,15,30,16,52,666,-8079,1745142801764103418
309663,12,30,19,86,665,-8064,1745142801764103418
309855,12,31,20,83,651,-8067,1745142801824347086
310047,14,30,20,92,635,-8070,1745142801824347086
310239,16,31,21,100,648,-8085,1745142801824347086
310431,19,32,23,97,632,-8113,1745142801824347086
310623,20,33,25,100,625,-8143,1745142801824347086
310815,20,33,26,84,626,-8170,1745142801824347086
311007,18,35,28,70,644,-8179,1745142801824347086
311199,13,36,30,53,645,-8196,1745142801824347086
311391,6,40,30,53,666,-8186,1745142801824347086
311583,1,43,30,63,700,-8169,1745142801824347086
311775,-1,45,30,86,671,-8153,1745142801824347086
311967,-3,47,27,89,697,-8153,1745142801824347086
312159,-4,49,26,100,685,-8118,1745142801882461868
312351,-6,50,25,96,682,-8111,1745142801882461868
312543,-6,52,24,82,667,-8092,1745142801882461868
312735,-7,53,24,81,673,-8090,1745142801882461868
312927,-7,54,24,58,683,-8100,1745142801882461868
313119,-7,55,24,43,667,-8125,1745142801882461868
313311,-6,57,23,35,676,-8115,1745142801882461868
313503,-3,57,22,29,669,-8118,1745142801882461868
313695,-2,59,23,23,649,-8101,1745142801882461868
313887,0,61,24,38,623,-8081,1745142801882461868
314079,3,62,25,54,609,-8057,1745142801882461868
314271,5,66,27,70,609,-8057,1745142801882461868
314463,6,68,28,73,600,-8069,1745142801941042010
314655,7,69,28,86,600,-8070,1745142801941042010
314847,9,71,29,107,612,-8093,1745142801941042010
315039,9,74,30,101,620,-8102,1745142801941042010
315231,7,78,32,110,653,-8145,1745142801941042010
315423,4,81,35,101,671,-8194,1745142801941042010
315615,2,86,35,109,696,-8201,1745142801941042010
315807,-1,91,35,72,719,-8204,1745142801941042010
315999,-3,94,33,108,723,-8213,1745142801941042010
316191,-5,97,33,123,729,-8191,1745142801941042010
316383,-6,102,32,145,700,-8172,1745142801941042010
316575,-6,108,31,166,699,-8170,1745142801941042010
316767,-6,113,31,183,688,-8166,1745142801999545121
316959,-7,117,30,193,684,-8174,1745142801999545121
317151,-7,121,29,178,686,-8177,1745142801999545121
317343,-7,124,28,181,665,-8191,1745142801999545121
317535,-8,128,27,184,631,-8191,1745142801999545121
317727,-10,133,27,198,633,-8212,1745142801999545121
317919,-14,136,26,208,613,-8216,1745142801999545121
318111,-16,139,25,190,594,-8165,1745142801999545121
318303,-19,142,24,212,587,-8143,1745142801999545121
318495,-21,144,26,218,595,-8110,1745142801999545121
318687,-27,146,27,239,578,-8083,1745142801999545121
318879,-33,148,29,230,605,-8060,1745142801999545121
319071,-37,149,30,232,619,-8066,1745142802057548445
319263,-39,149,29,233,656,-8061,1745142802057548445
319455,-38,149,26,241,680,-8056,1745142802057548445
319647,-34,148,27,257,682,-8069,1745142802057548445
319839,-31,147,28,248,679,-8081,1745142802057548445
320031,-31,146,28,240,663,-8068,1745142802057548445
320223,-32,146,28,230,664,-8075,1745142802057548445
320415,-33,146,28,211,678,-8117,1745142802057548445
320607,-32,148,28,231,695,-8134,1745142802057548445
320799,-29,151,27,284,733,-8138,1745142802057548445
320991,-26,153,27,313,754,-8145,1745142802057548445
321183,-22,152,27,340,770,-8129,1745142802057548445
321375,-20,151,31,364,775,-8135,1745142802116327075
321567,-19,153,34,373,759,-8145,1745142802116327075
321759,-19,154,39,398,734,-8159,1745142802116327075
321951,-20,155,45,398,720,-8188,1745142802116327075
322143,-20,156,48,404,686,-8211,1745142802116327075
322335,-20,156,47,426,671,-8222,1745142802116327075
322527,-21,156,45,410,621,-8204,1745142802116327075
322719,-24,158,45,416,602,-8164,1745142802116327075
322911,-32,160,46,436,594,-8132,1745142802116327075
323103,-44,160,48,457,595,-8127,1745142802116327075
323295,-54,161,49,455,611,-8110,1745142802116327075
323487,-63,159,48,466,660,-8115,1745142802116327075
323679,-72,156,44,468,647,-8095,1745142802174425659
323871,-77,157,43,428,681,-8098,1745142802174425659
324063,-76,159,43,437,706,-8100,1745142802174425659
324255,-76,159,40,449,746,-8085,1745142802174425659
324447,-75,156,38,454,789,-8088,1745142802174425659
324639,-76,154,37,460,777,-8099,1745142802174425659
324831,-78,150,35,465,756,-8082,1745142802174425659
325023,-75,149,38,470,751,-8051,1745142802174425659
325215,-73,147,41,461,710,-8035,1745142802174425659
325407,-70,143,38,458,670,-8000,1745142802174425659
325599,-72,142,32,463,626,-7994,1745142802174425659
325791,-72,141,29,454,597,-7972,1745142802174425659
325983,-72,139,28,467,598,-7961,1745142802232581222
326175,-73,136,25,478,596,-7999,1745142802232581222
326367,-74,134,22,469,594,-8014,1745142802232581222
326559,-72,133,21,488,585,-8036,1745142802232581222
326751,-71,133,22,507,616,-8053,1745142802232581222
326943,-70,131,20,493,636,-8066,1745142802232581222
327135,-70,130,15,495,662,-8060,1745142802232581222
327327,-71,131,10,498,670,-8055,1745142802232581222
327519,-73,131,5,511,688,-8045,1745142802232581222
327711,-75,132,1,525,719,-8047,1745142802232581222
327903,-77,131,-3,516,735,-8041,1745142802232581222
328095,-78,131,-7,533,758,-8034,1745142802232581222
328287,-77,132,-9,536,782,-8031,1745142802290212674
328479,-76,133,-11,536,811,-8048,1745142802290212674
328671,-74,134,-13,538,806,-8063,1745142802290212674
328863,-70,134,-16,544,810,-8098,1745142802290212674
329055,-66,135,-19,546,781,-8127,1745142802290212674
329247,-61,136,-21,540,776,-8119,1745142802290212674
329439,-58,136,-24,562,741,-8113,1745142802290212674
329631,-56,137,-26,589,725,-8095,1745142802290212674
329823,-54,139,-28,587,695,-8075,1745142802290212674
330015,-53,139,-28,613,691,-8060,1745142802290212674
330207,-52,139,-29,627,692,-8024,1745142802290212674
330399,-51,138,-30,638,718,-8019,1745142802290212674
330591,-51,137,-31,656,729,-8008,1745142802350215251
330783,-50,134,-32,669,752,-8017,1745142802350215251
330975,-48,131,-33,675,780,-8041,1745142802350215251
331167,-41,130,-31,668,799,-8034,1745142802350215251
331359,-33,128,-28,683,800,-8017,1745142802350215251
331551,-30,120,-25,702,781,-7988,1745142802350215251
331743,-26,112,-21,703,730,-7941,1745142802350215251
331935,-25,103,-18,687,699,-7891,1745142802350215251
332127,-29,96,-13,683,665,-7883,1745142802350215251
332319,-36,90,-9,680,687,-7866,1745142802350215251
332511,-41,85,-3,681,748,-7856,1745142802350215251
332703,-46,80,3,706,849,-7876,1745142802350215251
332895,-45,77,7,747,934,-7900,1745142802406831036
333087,-38,72,13,776,1017,-7947,1745142802406831036
333279,-22,66,20,797,1101,-8010,1745142802406831036
333471,1,63,28,795,1167,-8068,1745142802406831036
333663,31,62,35,815,1189,-8115,1745142802406831036
333855,59,60,38,848,1157,-8162,1745142802406831036
334047,78,56,42,853,1087,-8195,1745142802406831036
334239,95,57,47,838,1036,-8105,1745142802406831036
334431,108,58,56,876,991,-8114,1745142802406831036
334623,112,52,70,849,938,-8164,1745142802406831036
334815,112,51,84,758,950,-8181,1745142802406831036
335007,117,60,89,714,960,-8195,1745142802406831036
335199,127,71,84,732,938,-8225,1745142802466786426
335391,137,81,74,806,894,-8219,1745142802466786426
335583,139,88,69,849,767,-8250,1745142802466786426
335775,133,95,69,860,667,-8305,1745142802466786426
335967,124,104,70,822,554,-8330,1745142802466786426
336159,114,115,74,770,532,-8356,1745142802466786426
336351,106,127,79,706,548,-8379,1745142802466786426
336543,100,148,76,705,565,-8418,1745142802466786426
336735,94,171,63,752,537,-8492,1745142802466786426
336927,88,190,49,823,520,-8563,1745142802466786426
337119,85,211,40,861,552,-8638,1745142802466786426
337311,89,239,34,911,611,-8706,1745142802466786426
337503,105,272,30,986,696,-8819,1745142802520990670
337695,135,304,28,1073,753,-8945,1745142802520990670
337887,170,333,27,1177,771,-9115,1745142802520990670
338079,211,364,34,1220,741,-9283,1745142802520990670
338271,259,400,43,1280,664,-9462,1745142802520990670
338463,312,437,56,1343,551,-9704,1745142802520990670
338655,372,478,70,1418,464,-9933,1745142802520990670
338847,443,520,86,1548,354,-10198,1745142802520990670
339039,524,561,112,1723,234,-10497,1745142802520990670
339231,640,614,155,1931,49,-10568,1745142802520990670
339423,800,656,212,2177,-348,-10842,1745142802520990670
339615,1015,660,285,2569,-1004,-11203,1745142802520990670
339807,1295,640,411,2896,-1558,-11886,1745142802583653952
339999,1564,638,521,3188,-2334,-12903,1745142802583653952
340191,1767,635,522,2994,-2553,-13438,1745142802583653952
340383,1963,650,506,2873,-2945,-13794,1745142802583653952
340575,2175,641,448,3235,-3469,-13696,1745142802583653952
340767,2368,552,424,4354,-4869,-13353,1745142802583653952
340959,2479,383,472,5452,-6867,-13335,1745142802583653952
341151,2490,218,625,5543,-8607,-13093,1745142802583653952
341343,2364,171,844,4646,-9671,-12078,1745142802583653952
341535,2079,232,1052,4521,-10474,-11696,1745142802583653952
341727,1690,257,1198,5063,-10730,-11174,1745142802583653952
341919,1276,215,1271,6103,-10949,-12490,1745142802583653952
342111,979,123,1369,7214,-11162,-13619,1745142802641052282
342303,970,40,1608,8512,-11902,-13801,1745142802641052282
342495,1244,-137,1937,9669,-13111,-12774,1745142802641052282
342687,1635,-446,2298,10803,-14948,-12716,1745142802641052282
342879,1692,-911,2712,10325,-17240,-12531,1745142802641052282
343071,1397,-1182,3196,8118,-20177,-11968,1745142802641052282
343263,1093,-1147,3748,6006,-22911,-10596,1745142802641052282
343455,970,-823,4281,5107,-24739,-9699,1745142802641052282
343647,794,-505,4696,5778,-25525,-9319,1745142802641052282
343839,399,-274,4899,7316,-24614,-9052,1745142802641052282
344031,-280,-161,4870,9213,-22171,-9696,1745142802641052282
344223,-1117,-222,4717,10791,-19018,-10946,1745142802641052282
344415,-1855,-358,4625,11516,-15690,-11922,1745142802700569863
344607,-2248,-463,4711,11757,-12239,-12769,1745142802700569863
344799,-2275,-522,4917,11951,-8783,-13339,1745142802700569863
344991,-2014,-573,5104,12289,-5656,-13202,1745142802700569863
345183,-1629,-670,5202,12760,-3397,-12506,1745142802700569863
345375,-1268,-840,5224,12838,-2131,-11626,1745142802700569863
345567,-997,-1013,5266,12156,-1677,-10864,1745142802700569863
345759,-815,-1124,5394,11090,-1796,-10315,1745142802700569863
345951,-717,-1155,5585,10109,-2274,-9804,1745142802700569863
346143,-674,-1123,5788,9310,-2708,-9317,1745142802700569863
346335,-664,-1049,5942,8888,-2886,-8863,1745142802700569863
346527,-694,-949,6013,8744,-2766,-8501,1745142802700569863
346719,-764,-836,6015,8880,-2420,-8146,1745142802754903429
346911,-853,-726,5993,9169,-1888,-7868,1745142802754903429
347103,-932,-622,5984,9507,-1302,-7590,1745142802754903429
347295,-967,-522,6021,9765,-505,-7289,1745142802754903429
347487,-973,-416,6094,10027,263,-7015,1745142802754903429
347679,-951,-317,6166,10320,968,-6788,1745142802754903429
347871,-906,-219,6230,10504,1626,-6565,1745142802754903429
348063,-850,-112,6291,10731,2103,-6301,1745142802754903429
348255,-801,-5,6347,11075,2326,-5894,1745142802754903429
348447,-780,80,6401,11414,2348,-5313,1745142802754903429
348639,-789,140,6452,11822,2199,-4679,1745142802754903429
348831,-832,172,6492,12239,1931,-4097,1745142802754903429
349023,-919,197,6518,12592,1665,-3556,1745142802817723428
349215,-1044,217,6530,13010,1503,-3085,1745142802817723428
349407,-1208,229,6534,13506,1452,-2613,1745142802817723428
349599,-1397,227,6522,14017,1614,-2178,1745142802817723428
349791,-1597,202,6494,14504,1976,-1852,1745142802817723428
349983,-1776,154,6456,14890,2626,-1569,1745142802817723428
350175,-1920,91,6400,15175,3495,-1336,1745142802817723428
350367,-2009,33,6306,15175,4576,-1151,1745142802817723428
350559,-2028,-10,6232,15031,5837,-931,1745142802817723428
350751,-1972,-58,6170,14977,6636,-867,1745142802817723428
350943,-1860,-128,6056,14645,7623,-706,1745142802817723428
351135,-1705,-200,5999,14113,8264,-489,1745142802817723428
351327,-1516,-256,5971,13474,8666,-346,1745142802878117616
351519,-1306,-290,5944,12824,8725,-311,1745142802878117616
351711,-1103,-308,5878,12070,8735,-223,1745142802878117616
351903,-899,-316,5787,11289,8560,-125,1745142802878117616
352095,-697,-316,5667,10481,8317,11,1745142802878117616
352287,-517,-308,5524,9803,8067,6,1745142802878117616
352479,-369,-291,5365,9092,7906,-158,1745142802878117616
352671,-260,-267,5190,8408,7909,-341,1745142802878117616
352863,-198,-235,4986,7685,8044,-625,1745142802878117616
353055,-180,-200,4767,6971,8320,-982,1745142802878117616
353247,-207,-171,4537,6319,8596,-1387,1745142802878117616
353439,-257,-143,4288,5688,8804,-1664,1745142802878117616
353631,-329,-134,4023,4940,9308,-2041,1745142802932852793
353823,-425,-156,3785,4400,9415,-2375,1745142802932852793
354015,-530,-200,3488,3896,9567,-2568,1745142802932852793
354207,-644,-274,3133,3383,9743,-2812,1745142802932852793
354399,-779,-367,2773,2672,10408,-3124,1745142802932852793
354591,-949,-457,2532,2168,10226,-3284,1745142802932852793
354783,-1076,-552,2243,1528,10290,-3443,1745142802932852793
354975,-1167,-648,1982,906,10282,-3508,1745142802932852793
355167,-1219,-731,1753,310,10128,-3539,1745142802932852793
355359,-1239,-784,1540,-323,9879,-3706,1745142802932852793
355551,-1230,-793,1344,-903,9770,-3794,1745142802932852793
355743,-1191,-762,1192,-1429,9602,-4018,1745142802932852793
355935,-1108,-658,1061,-1865,9387,-4362,1745142802990219301
356127,-982,-515,901,-2211,9211,-4629,1745142802990219301
356319,-829,-376,757,-2419,9503,-4840,1745142802990219301
356511,-635,-209,694,-2422,9384,-4959,1745142802990219301
356703,-405,-35,625,-2325,9238,-5127,1745142802990219301
356895,-159,149,575,-2030,9038,-5320,1745142802990219301
357087,87,321,552,-1501,8475,-5525,1745142802990219301
357279,312,474,527,-1010,7789,-5742,1745142802990219301
357471,499,603,506,-416,6957,-6038,1745142802990219301
357663,633,682,486,221,6115,-6239,1745142802990219301
357855,711,693,472,830,5332,-6427,1745142802990219301
358047,745,644,466,1360,4721,-6665,1745142802990219301
358239,734,547,476,1766,4300,-6893,1745142803051392596
358431,677,420,498,2052,4022,-7066,1745142803051392596
358623,585,274,528,2115,3920,-7282,1745142803051392596
358815,482,128,555,1955,3980,-7474,1745142803051392596
359007,386,-4,575,1633,4152,-7618,1745142803051392596
359199,319,-112,591,1249,4427,-7718,1745142803051392596
359391,277,-196,596,895,4704,-7734,1745142803051392596
359583,251,-260,582,593,4940,-7850,1745142803051392596
359775,239,-300,557,356,5065,-7942,1745142803051392596
359967,247,-321,524,163,5072,-7977,1745142803051392596
360159,263,-328,484,0,5019,-8031,1745142803051392596
360351,278,-329,444,-152,4932,-7991,1745142803051392596
360543,291,-341,412,-510,4768,-7212,1745142803108840300
360735,329,-370,388,-176,4632,-8607,1745142803108840300
360927,312,-266,361,-440,4481,-7927,1745142803108840300
361119,319,-218,330,-602,4316,-7850,1745142803108840300
361311,311,-133,304,-956,4292,-7852,1745142803108840300
361503,287,-1,272,-1243,4097,-7564,1745142803108840300
361695,273,90,193,-970,3910,-7769,1745142803108840300
361887,211,163,61,-534,3832,-7865,1745142803108840300
362079,153,216,2,-480,3991,-7690,1745142803108840300
362271,166,265,50,-123,3858,-7640,1745142803108840300
362463,197,239,82,481,3689,-7834,1745142803108840300
362655,184,174,53,933,3505,-7904,1745142803108840300
362847,154,67,-10,1125,3390,-7920,1745142803168348142
363039,121,-5,-49,1049,3271,-7865,1745142803168348142
363231,105,-58,-54,854,3153,-7868,1745142803168348142
363423,100,-81,-28,550,3133,-7886,1745142803168348142
363615,113,-95,17,260,3149,-7907,1745142803168348142
363807,133,-100,44,62,3153,-7850,1745142803168348142
363999,155,-98,39,-75,3091,-7804,1745142803168348142
364191,182,-87,10,-207,3042,-7769,1745142803168348142
364383,213,-61,-21,-298,2935,-7748,1745142803168348142
364575,245,-26,-41,-334,2796,-7786,1745142803168348142
364767,274,4,-56,-340,2698,-7845,1745142803168348142
364959,294,26,-65,-285,2611,-7854,1745142803168348142
365151,306,37,-70,-162,2510,-7895,1745142803225736264
365343,313,44,-75,-56,2428,-7853,1745142803225736264
365535,320,46,-80,100,2370,-7866,1745142803225736264
365727,319,57,-85,116,2266,-7835,1745142803225736264
365919,316,57,-84,136,2135,-7814,1745142803225736264
366111,303,54,-82,199,1964,-7813,1745142803225736264
366303,285,43,-80,213,1843,-7860,1745142803225736264
366495,262,38,-70,218,1725,-7883,1745142803225736264
366687,232,44,-59,107,1670,-7883,1745142803225736264
366879,204,61,-36,-39,1654,-7934,1745142803225736264
367071,187,84,-10,-141,1671,-7935,1745142803225736264
367263,174,103,4,-127,1650,-7995,1745142803225736264
367455,158,123,0,-115,1657,-7965,1745142803281976114
367647,149,143,-8,-93,1607,-7922,1745142803281976114
367839,145,171,-18,-80,1574,-7892,1745142803281976114
368031,145,209,-20,-85,1580,-7952,1745142803281976114
368223,137,283,-15,305,1362,-8262,1745142803281976114
368415,119,286,-76,384,1075,-7440,1745142803281976114
368607,78,199,-144,668,1098,-7841,1745142803281976114
368799,46,162,-127,734,1116,-7853,1745142803281976114
368991,22,124,-73,767,1137,-7829,1745142803281976114
369183,1,87,-32,718,1289,-7840,1745142803281976114
369375,-26,48,-16,568,1479,-7861,1745142803281976114
369567,-43,22,-24,366,1605,-7874,1745142803281976114
369759,-39,8,-44,163,1670,-7876,1745142803343602427
369951,-19,16,-61,-10,1696,-7871,1745142803343602427
370143,11,35,-63,-98,1684,-7831,1745142803343602427
370335,42,66,-60,-106,1648,-7843,1745142803343602427
370527,69,102,-59,-53,1618,-7931,1745142803343602427
370719,92,136,-63,18,1573,-7930,1745142803343602427
370911,109,162,-74,109,1535,-7967,1745142803343602427
371103,126,173,-88,251,1483,-7978,1745142803343602427
371295,140,174,-106,381,1454,-7986,1745142803343602427
371487,149,170,-120,470,1429,-8010,1745142803343602427
371679,156,164,-125,534,1419,-8043,1745142803343602427
371871,162,155,-128,564,1385,-8100,1745142803343602427
372063,172,141,-128,551,1364,-8155,1745142803406844974
372255,187,121,-127,512,1321,-8169,1745142803406844974
372447,204,109,-127,454,1249,-8158,1745142803406844974
372639,214,103,-123,417,1138,-8172,1745142803406844974
372831,219,102,-118,401,1023,-8172,1745142803406844974
373023,220,97,-117,426,904,-8149,1745142803406844974
373215,210,87,-125,479,796,-8098,1745142803406844974
373407,191,79,-135,488,729,-8038,1745142803406844974
373599,171,78,-134,482,700,-8022,1745142803406844974
373791,157,78,-124,494,694,-8093,1745142803406844974
373983,145,76,-113,498,734,-8159,1745142803406844974
374175,133,64,-108,493,793,-8219,1745142803406844974
374367,123,52,-108,489,838,-8206,1745142803458714448
374559,113,40,-114,492,797,-8220,1745142803458714448
374751,107,35,-114,476,719,-8226,1745142803458714448
374943,102,33,-111,472,634,-8243,1745142803458714448
375135,96,29,-109,476,562,-8279,1745142803458714448
375327,83,29,-107,451,541,-8278,1745142803458714448
375519,62,31,-101,432,544,-8246,1745142803458714448
375711,41,34,-95,433,575,-8246,1745142803458714448
375903,23,39,-92,447,646,-8274,1745142803458714448
376095,12,43,-88,490,702,-8253,1745142803458714448
376287,10,39,-86,515,788,-8255,1745142803458714448
376479,17,32,-81,557,862,-8225,1745142803458714448
376671,29,20,-77,560,902,-8212,1745142803524047809
376863,42,13,-75,522,931,-8251,1745142803524047809
377055,58,7,-73,488,956,-8283,1745142803524047809
377247,77,6,-70,448,886,-8307,1745142803524047809
377439,97,7,-64,436,808,-8283,1745142803524047809
377631,115,8,-57,405,725,-8235,1745142803524047809
377823,130,13,-49,369,659,-8205,1745142803524047809
378015,140,20,-43,350,633,-8180,1745142803524047809
378207,142,31,-37,357,618,-8163,1745142803524047809
378399,142,43,-34,354,650,-8185,1745142803524047809
378591,141,54,-33,390,671,-8231,1745142803524047809
378783,144,62,-33,442,659,-8246,1745142803524047809
378975,147,64,-37,484,617,-8269,1745142803581235777
379167,147,64,-40,517,574,-8287,1745142803581235777
379359,143,60,-39,538,527,-8244,1745142803581235777
379551,134,58,-33,542,498,-8261,1745142803581235777
379743,119,53,-31,549,452,-8281,1745142803581235777
379935,101,48,-32,553,435,-8327,1745142803581235777
380127,85,42,-32,554,466,-8363,1745142803581235777
380319,74,37,-32,531,547,-8381,1745142803581235777
380511,65,34,-29,504,653,-8437,1745142803581235777
380703,63,33,-24,489,749,-8437,1745142803581235777
380895,69,32,-19,500,782,-8413,1745142803581235777
381087,81,26,-12,539,779,-8369,1745142803581235777
381279,93,19,-6,529,692,-8296,1745142803633991909
381471,100,9,-3,565,592,-8247,1745142803633991909
381663,98,-3,0,559,503,-8228,1745142803633991909
381855,84,-10,6,576,414,-8241,1745142803633991909
382047,61,-16,7,596,366,-8234,1745142803633991909
382239,31,-24,3,604,350,-8226,1745142803633991909
382431,1,-35,0,586,379,-8210,1745142803633991909
382623,-26,-44,0,543,466,-8189,1745142803633991909
382815,-47,-50,4,473,565,-8215,1745142803633991909
383007,-59,-51,10,439,628,-8182,1745142803633991909
383199,-63,-53,15,406,673,-8144,1745142803633991909
383391,-63,-53,18,378,694,-8102,1745142803633991909
383583,-59,-50,20,355,720,-8136,1745142803699164491
383775,-51,-44,21,355,765,-8191,1745142803699164491
383967,-39,-40,25,343,807,-8221,1745142803699164491
384159,-26,-37,30,375,867,-8202,1745142803699164491
384351,-12,-33,36,396,914,-8157,1745142803699164491
384543,2,-29,42,433,938,-8094,1745142803699164491
384735,17,-28,47,467,953,-8028,1745142803699164491
384927,29,-32,48,489,924,-7959,1745142803699164491
385119,38,-39,45,506,886,-7908,1745142803699164491
385311,42,-48,41,490,851,-7872,1745142803699164491
385503,40,-56,38,478,845,-7833,1745142803699164491
385695,33,-60,36,447,842,-7799,1745142803699164491
385887,22,-60,34,391,832,-7815,1745142803756290271
386079,15,-53,33,358,845,-7900,1745142803756290271
386271,15,-46,33,330,886,-7975,1745142803756290271
386463,17,-42,35,309,945,-8008,1745142803756290271
386655,18,-38,35,312,995,-8029,1745142803756290271
386847,17,-34,32,317,1000,-7994,1745142803756290271
387039,21,-27,30,325,991,-8006,1745142803756290271
387231,32,-15,32,326,978,-8016,1745142803756290271
387423,42,-2,33,345,974,-7992,1745142803756290271
387615,47,5,33,388,956,-7974,1745142803756290271
387807,48,6,32,440,952,-7990,1745142803756290271
387999,47,1,28,461,938,-7976,1745142803756290271
388191,44,-8,25,464,945,-7952,1745142803816075350
388383,40,-22,22,450,944,-7926,1745142803816075350
388575,35,-34,20,407,974,-7902,1745142803816075350
388767,27,-42,19,343,979,-7866,1745142803816075350
388959,19,-40,18,262,983,-7834,1745142803816075350
389151,10,-33,17,214,998,-7828,1745142803816075350
389343,6,-22,16,224,977,-7793,1745142803816075350
389535,3,-12,14,240,968,-7775,1745142803816075350
389727,0,-5,9,279,949,-7758,1745142803816075350
389919,-3,-1,3,330,923,-7738,1745142803816075350
390111,-2,1,0,359,946,-7757,1745142803816075350
390303,-1,3,-3,393,968,-7764,1745142803816075350
390495,-4,1,-5,389,1015,-7808,1745142803873108527
390687,-6,-2,-8,359,1044,-7840,1745142803873108527
390879,-3,-7,-10,328,1055,-7842,1745142803873108527
391071,3,-9,-10,299,1064,-7861,1745142803873108527
391263,10,-6,-8,272,1057,-7897,1745142803873108527
391455,17,3,-8,252,1066,-7946,1745142803873108527
391647,23,13,-6,269,1068,-7967,1745142803873108527
391839,29,19,-5,273,1095,-7945,1745142803873108527
392031,36,20,-3,290,1082,-7903,1745142803873108527
392223,45,20,0,300,1074,-7874,1745142803873108527
392415,54,24,2,300,1056,-7894,1745142803873108527
392607,61,28,1,325,1025,-7878,1745142803873108527
392799,63,31,-4,329,980,-7867,1745142803933008344
392991,63,32,-9,342,922,-7874,1745142803933008344
393183,62,34,-12,342,879,-7885,1745142803933008344
393375,56,36,-14,353,857,-7892,1745142803933008344
393567,47,37,-15,356,852,-7905,1745142803933008344
393759,38,38,-16,341,866,-7957,1745142803933008344
393951,30,38,-17,306,904,-7965,1745142803933008344
394143,25,40,-19,311,916,-7987,1745142803933008344
394335,27,41,-21,304,941,-8011,1745142803933008344
394527,36,46,-21,310,970,-8022,1745142803933008344
394719,48,52,-19,316,1001,-8029,1745142803933008344
394911,60,58,-18,361,989,-8043,1745142803933008344
395103,71,59,-16,402,978,-8038,1745142803990574329
395295,83,57,-13,435,948,-8069,1745142803990574329
395487,95,53,-12,463,919,-8080,1745142803990574329
395679,100,47,-11,483,868,-8036,1745142803990574329
395871,99,43,-12,494,806,-8031,1745142803990574329
396063,93,40,-14,454,740,-8041,1745142803990574329
396255,84,37,-14,431,680,-8041,1745142803990574329
396447,69,36,-13,413,668,-8053,1745142803990574329
396639,51,37,-11,416,634,-8036,1745142803990574329
396831,35,41,-7,419,618,-8053,1745142803990574329
397023,21,46,-2,439,638,-8054,1745142803990574329
397215,10,48,1,455,668,-8067,1745142803990574329
397407,0,45,5,458,722,-8054,1745142804050064879
397599,-6,41,7,455,753,-8057,1745142804050064879
397791,-10,39,7,448,790,-8037,1745142804050064879
397983,-11,38,9,427,812,-8020,1745142804050064879
398175,-12,39,10,406,818,-7999,1745142804050064879
398367,-13,42,9,418,828,-7996,1745142804050064879
398559,-14,44,8,429,830,-8024,1745142804050064879
398751,-12,43,8,431,839,-8043,1745142804050064879
398943,-10,42,5,415,843,-8044,1745142804050064879
399135,-9,41,2,415,884,-8068,1745142804050064879
399327,-7,43,0,397,931,-8104,1745142804050064879
399519,-3,46,-2,391,970,-8115,1745142804050064879
399711,6,49,-3,394,1010,-8133,1745142804107133108
399903,21,52,-5,407,1019,-8131,1745142804107133108
400095,38,54,-6,433,1023,-8127,1745142804107133108
400287,53,56,-7,453,1012,-8133,1745142804107133108
400479,65,58,-10,470,988,-8112,1745142804107133108
400671,73,56,-12,491,943,-8063,1745142804107133108
400863,79,54,-13,500,862,-8032,1745142804107133108
401055,84,50,-15,509,804,-8038,1745142804107133108
401247,84,49,-16,505,764,-8047,1745142804107133108
401439,79,46,-17,505,762,-8061,1745142804107133108
401631,69,43,-19,498,729,-8050,1745142804107133108
401823,58,41,-21,484,688,-8065,1745142804107133108
402015,49,39,-22,475,673,-8094,1745142804166776938
402207,37,41,-22,466,687,-8141,1745142804166776938
402399,23,43,-22,464,702,-8167,1745142804166776938
402591,9,42,-21,431,725,-8160,1745142804166776938
402783,1,43,-18,441,735,-8157,1745142804166776938
402975,-2,45,-15,439,747,-8150,1745142804166776938
403167,-3,49,-12,448,768,-8153,1745142804166776938
403359,-4,51,-11,458,790,-8167,1745142804166776938
403551,-2,51,-11,487,818,-8150,1745142804166776938
403743,3,49,-12,506,855,-8131,1745142804166776938
403935,9,45,-14,507,847,-8114,1745142804166776938
404127,14,43,-16,501,851,-8144,1745142804166776938
404319,20,42,-18,515,833,-8157,1745142804223948812
404511,28,42,-20,499,839,-8167,1745142804223948812
404703,34,40,-21,519,843,-8187,1745142804223948812
404895,38,37,-23,521,828,-8173,1745142804223948812
405087,38,34,-24,515,810,-8166,1745142804223948812
405279,41,35,-22,525,783,-8161,1745142804223948812
405471,47,37,-19,536,756,-8119,1745142804223948812
405663,50,38,-16,549,738,-8105,1745142804223948812
405855,49,37,-15,555,705,-8126,1745142804223948812
406047,46,35,-16,553,670,-8115,1745142804223948812
406239,41,33,-15,569,642,-8092,1745142804223948812
406431,37,35,-15,580,603,-8069,1745142804223948812
406623,29,37,-13,604,558,-8062,1745142804283968576
406815,21,37,-11,608,535,-8083,1745142804283968576
407007,18,33,-7,575,550,-8118,1745142804283968576
407199,15,27,-3,571,613,-8128,1745142804283968576
407391,16,20,2,526,712,-8148,1745142804283968576
407583,20,18,7,476,742,-8136,1745142804283968576
407775,32,20,12,460,784,-8140,1745142804283968576
407967,53,24,15,436,814,-8148,1745142804283968576
408159,77,27,17,436,813,-8123,1745142804283968576
408351,99,30,18,432,797,-8104,1745142804283968576
408543,122,35,17,439,785,-8118,1745142804283968576
408735,143,41,15,460,757,-8097,1745142804283968576
408927,161,46,14,480,728,-8096,1745142804341179460
409119,177,50,12,502,700,-8112,1745142804341179460
409311,189,51,9,526,668,-8108,1745142804341179460
409503,197,48,5,558,622,-8069,1745142804341179460
409695,197,43,2,556,584,-8058,1745142804341179460
409887,190,36,-4,540,498,-8018,1745142804341179460
410079,175,30,-11,505,408,-8020,1745142804341179460
410271,157,28,-14,487,342,-8051,1745142804341179460
410463,134,30,-16,460,296,-8090,1745142804341179460
410655,108,33,-15,456,294,-8108,1745142804341179460
410847,82,38,-12,466,316,-8156,1745142804341179460
411039,60,42,-8,511,386,-8189,1745142804341179460
411231,43,44,-4,545,461,-8186,1745142804399711269
411423,33,43,0,590,517,-8142,1745142804399711269
411615,25,42,2,659,517,-8118,1745142804399711269
411807,23,38,5,691,466,-8102,1745142804399711269
411999,23,29,7,706,437,-8094,1745142804399711269
412191,21,19,9,702,412,-8118,1745142804399711269
412383,13,7,9,660,422,-8107,1745142804399711269
412575,-1,-1,9,611,465,-8105,1745142804399711269
412767,-14,-4,10,546,488,-8075,1745142804399711269
412959,-23,-3,12,481,505,-8029,1745142804399711269
413151,-29,-1,12,469,491,-8011,1745142804399711269
413343,-32,4,11,416,485,-8013,1745142804399711269
413535,-34,11,9,442,496,-8045,1745142804458581252
413727,-35,18,6,464,543,-8045,1745142804458581252
413919,-36,26,6,498,596,-8042,1745142804458581252
414111,-35,32,7,537,626,-8032,1745142804458581252
414303,-29,34,10,584,627,-7997,1745142804458581252
414495,-15,33,13,616,609,-7976,1745142804458581252
414687,1,32,15,631,608,-7991,1745142804458581252
414879,13,31,14,628,622,-8034,1745142804458581252
415071,19,30,12,612,633,-8044,1745142804458581252
415263,20,30,11,602,630,-8042,1745142804458581252
415455,22,28,11,576,588,-8020,1745142804458581252
415647,25,25,13,533,589,-8003,1745142804458581252
415839,24,25,13,528,566,-8013,1745142804517486234
416031,15,28,12,514,545,-8031,1745142804517486234
416223,5,32,10,517,518,-8060,1745142804517486234
416415,-5,35,9,537,507,-8063,1745142804517486234
416607,-17,35,9,543,493,-8087,1745142804517486234
416799,-27,34,10,554,507,-8132,1745142804517486234
416991,-35,32,13,557,541,-8136,1745142804517486234
417183,-41,32,15,572,620,-8141,1745142804517486234
417375,-43,34,18,587,674,-8131,1745142804517486234
417567,-42,35,18,610,717,-8089,1745142804517486234
417759,-35,35,21,599,726,-8082,1745142804517486234
417951,-22,32,22,623,707,-8077,1745142804517486234
418143,-10,30,22,620,683,-8086,1745142804574853210
418335,-3,29,21,625,659,-8107,1745142804574853210
418527,-4,29,20,605,642,-8135,1745142804574853210
418719,-5,29,19,586,641,-8157,1745142804574853210
418911,-3,29,18,553,666,-8142,1745142804574853210
419103,3,30,19,562,701,-8127,1745142804574853210
419295,9,31,19,544,723,-8097,1745142804574853210
419487,15,33,17,559,722,-8103,1745142804574853210
419679,20,34,13,553,708,-8120,1745142804574853210
419871,26,33,10,580,699,-8118,1745142804574853210
420063,30,32,9,591,689,-8147,1745142804574853210
420255,26,28,8,604,662,-8136,1745142804574853210
420447,17,27,7,609,618,-8139,1745142804634647404
420639,8,27,6,603,575,-8196,1745142804634647404
420831,4,26,6,600,559,-8233,1745142804634647404
421023,0,24,7,602,581,-8250,1745142804634647404
421215,-7,23,9,605,628,-8258,1745142804634647404
421407,-13,24,9,611,669,-8252,1745142804634647404
421599,-13,26,10,609,720,-8238,1745142804634647404
421791,-8,26,9,639,726,-8229,1745142804634647404
421983,-1,23,7,660,740,-8207,1745142804634647404
422175,7,18,2,682,718,-8192,1745142804634647404
422367,13,13,-3,698,694,-8170,1745142804634647404
422559,16,6,-7,683,683,-8157,1745142804634647404
422751,16,0,-10,667,683,-8125,1745142804691775476
422943,11,-8,-15,627,660,-8082,1745142804691775476
423135,4,-13,-18,564,600,-8062,1745142804691775476
423327,-3,-14,-21,537,561,-8062,1745142804691775476
423519,-9,-12,-24,508,554,-8066,1745142804691775476
423711,-16,-6,-23,485,590,-8095,1745142804691775476
423903,-22,1,-21,483,645,-8117,1745142804691775476
424095,-22,11,-18,516,682,-8123,1745142804691775476
424287,-14,18,-15,564,703,-8130,1745142804691775476
424479,-2,22,-13,612,719,-8131,1745142804691775476
424671,14,23,-12,661,678,-8121,1745142804691775476
424863,30,21,-11,687,661,-8125,1745142804691775476
425055,42,17,-10,689,635,-8119,1745142804751419097
425247,49,10,-8,658,614,-8106,1745142804751419097
425439,49,5,-7,626,606,-8141,1745142804751419097
425631,49,1,-7,563,599,-8131,1745142804751419097
425823,46,1,-8,535,593,-8123,1745142804751419097
426015,40,4,-9,530,581,-8118,1745142804751419097
426207,34,10,-9,526,542,-8099,1745142804751419097
426399,28,15,-8,572,537,-8090,1745142804751419097
426591,23,17,-8,591,541,-8112,1745142804751419097
426783,18,16,-9,631,559,-8128,1745142804751419097
426975,15,12,-11,650,559,-8122,1745142804751419097
427167,14,9,-13,652,588,-8119,1745142804751419097
427359,14,6,-15,653,608,-8103,1745142804805205377
427551,15,2,-17,658,630,-8091,1745142804805205377
427743,15,-2,-19,640,630,-8075,1745142804805205377
427935,14,-5,-20,643,603,-8066,1745142804805205377
428127,13,-5,-22,629,568,-8059,1745142804805205377
428319,12,-5,-23,627,510,-8058,1745142804805205377
428511,10,-4,-24,617,473,-8068,1745142804805205377
428703,5,-5,-24,621,459,-8070,1745142804805205377
428895,-2,-7,-22,578,478,-8081,1745142804805205377
429087,-10,-5,-21,564,501,-8062,1745142804805205377
429279,-15,0,-21,533,511,-8061,1745142804805205377
429471,-17,4,-19,528,534,-8056,1745142804805205377
429663,-13,8,-16,530,544,-8036,1745142804863649062
429855,-5,10,-14,580,560,-8041,1745142804863649062
430047,2,14,-13,592,582,-8029,1745142804863649062
430239,5,17,-11,625,583,-8022,1745142804863649062
430431,8,19,-10,649,580,-8026,1745142804863649062
430623,15,18,-7,645,606,-8050,1745142804863649062
430815,24,16,-5,638,622,-8061,1745142804863649062
431007,28,14,-6,624,638,-8060,1745142804863649062
431199,29,13,-7,618,609,-8051,1745142804863649062
431391,29,13,-9,585,546,-8047,1745142804863649062
431583,32,14,-10,577,474,-8048,1745142804863649062
431775,32,14,-10,567,493,-8080,1745142804863649062
431967,24,16,-11,585,503,-8087,1745142804926939629
432159,15,19,-10,605,526,-8063,1745142804926939629
432351,8,20,-9,609,541,-8046,1745142804926939629
432543,9,16,-8,628,570,-8037,1745142804926939629
432735,12,9,-9,614,607,-8045,1745142804926939629
432927,14,3,-12,589,634,-8061,1745142804926939629
433119,13,2,-17,573,668,-8105,1745142804926939629
433311,14,4,-20,571,676,-8130,1745142804926939629
433503,18,9,-21,583,685,-8139,1745142804926939629
433695,23,10,-22,606,679,-8114,1745142804926939629
433887,23,9,-23,640,673,-8099,1745142804926939629
434079,22,8,-25,644,637,-8089,1745142804926939629
434271,20,7,-27,658,617,-8073,1745142804981073197
434463,19,6,-27,623,636,-8090,1745142804981073197
434655,15,2,-28,577,676,-8086,1745142804981073197
434847,11,0,-29,552,711,-8086,1745142804981073197
435039,9,0,-32,508,729,-8060,1745142804981073197
435231,12,2,-36,504,758,-8067,1745142804981073197
435423,14,6,-41,513,773,-8076,1745142804981073197
435615,17,10,-46,533,776,-8090,1745142804981073197
435807,20,14,-50,579,803,-8117,1745142804981073197
435999,25,15,-53,620,831,-8138,1745142804981073197
436191,35,15,-56,670,877,-8158,1745142804981073197
436383,49,12,-56,683,923,-8152,1745142804981073197
436575,62,7,-58,689,942,-8110,1745142805043993196
436767,71,-1,-62,676,896,-8083,1745142805043993196
436959,80,-4,-67,663,786,-8080,1745142805043993196
437151,90,-4,-71,638,682,-8093,1745142805043993196
437343,99,-1,-73,639,616,-8121,1745142805043993196
437535,97,1,-73,638,621,-8112,1745142805043993196
437727,84,0,-73,638,607,-8073,1745142805043993196
437919,72,-2,-73,650,545,-8016,1745142805043993196
438111,66,-3,-70,650,502,-7951,1745142805043993196
438303,61,0,-66,675,426,-7906,1745142805043993196
438495,50,4,-64,710,365,-7896,1745142805043993196
438687,35,6,-61,731,292,-7885,1745142805043993196
438879,22,6,-58,733,253,-7865,1745142805100876999
439071,8,3,-55,742,238,-7868,1745142805100876999
439263,-5,-2,-51,707,240,-7838,1745142805100876999
439455,-21,-6,-47,673,257,-7806,1745142805100876999
439647,-33,-7,-45,611,249,-7832,1745142805100876999
439839,-37,-4,-41,546,235,-7816,1745142805100876999
440031,-36,3,-34,494,240,-7850,1745142805100876999
440223,-36,11,-25,468,232,-7887,1745142805100876999
440415,-34,23,-14,464,220,-7907,1745142805100876999
440607,-27,36,-2,496,195,-7890,1745142805100876999
440799,-16,52,10,550,160,-7903,1745142805100876999
440991,-5,67,24,612,133,-7934,1745142805100876999
441183,5,76,37,650,109,-7963,1745142805160669057
441375,16,79,48,669,113,-7987,1745142805160669057
441567,26,78,55,686,93,-7997,1745142805160669057
441759,33,77,57,701,83,-8032,1745142805160669057
441951,33,75,56,695,84,-8084,1745142805160669057
442143,29,73,53,673,128,-8192,1745142805160669057
442335,23,68,50,639,177,-8263,1745142805160669057
442527,14,59,46,616,248,-8331,1745142805160669057
442719,7,53,43,597,304,-8373,1745142805160669057
442911,4,51,37,592,349,-8396,1745142805160669057
443103,3,49,31,609,359,-8398,1745142805160669057
443295,4,46,26,619,327,-8405,1745142805160669057
443487,8,39,20,650,311,-8396,1745142805217583329
443679,13,30,15,683,316,-8416,1745142805217583329
443871,13,21,9,685,374,-8431,1745142805217583329
444063,9,10,3,665,416,-8407,1745142805217583329
444255,8,0,-3,648,442,-8374,1745142805217583329
444447,13,-10,-9,640,412,-8356,1745142805217583329
444639,20,-16,-13,621,408,-8349,1745142805217583329
444831,23,-21,-17,605,371,-8355,1745142805217583329
445023,20,-26,-19,592,318,-8363,1745142805217583329
445215,17,-26,-18,583,276,-8352,1745142805217583329
445407,14,-23,-13,590,253,-8334,1745142805217583329
445599,12,-18,-7,621,248,-8347,1745142805217583329
445791,11,-13,0,666,239,-8351,1745142805277566270
445983,12,-9,6,699,282,-8347,1745142805277566270
446175,11,-9,11,725,322,-8326,1745142805277566270
446367,10,-12,16,745,367,-8337,1745142805277566270
446559,11,-16,22,718,369,-8326,1745142805277566270
446751,16,-18,27,692,403,-8322,1745142805277566270
446943,20,-20,32,648,457,-8355,1745142805277566270
447135,21,-21,33,633,498,-8370,1745142805277566270
447327,19,-20,32,610,521,-8355,1745142805277566270
447519,18,-18,30,604,534,-8343,1745142805277566270
447711,24,-15,28,634,574,-8312,1745142805277566270
447903,30,-13,25,675,573,-8253,1745142805277566270
448095,32,-18,23,715,550,-8192,1745142805334073566
448287,35,-26,19,736,513,-8178,1745142805334073566
448479,42,-34,19,726,515,-8149,1745142805334073566
448671,49,-40,20,710,550,-8132,1745142805334073566
448863,51,-44,20,680,596,-8131,1745142805334073566
449055,48,-48,17,643,571,-8116,1745142805334073566
449247,45,-50,14,619,515,-8085,1745142805334073566
449439,44,-49,12,594,467,-8075,1745142805334073566
449631,42,-47,9,585,466,-8087,1745142805334073566
449823,34,-46,8,572,550,-8114,1745142805334073566
450015,24,-43,6,575,656,-8117,1745142805334073566
450207,17,-39,4,601,716,-8067,1745142805334073566
450399,17,-37,0,609,718,-8029,1745142805394512389
450591,27,-37,-3,633,684,-8023,1745142805394512389
450783,40,-39,-8,641,675,-8027,1745142805394512389
450975,48,-42,-14,633,683,-7995,1745142805394512389
451167,44,-45,-20,632,675,-7984,1745142805394512389
451359,40,-46,-23,592,606,-7950,1745142805394512389
451551,42,-44,-25,563,556,-7925,1745142805394512389
451743,45,-41,-25,529,548,-7938,1745142805394512389
451935,40,-36,-26,494,594,-7951,1745142805394512389
452127,28,-31,-30,497,615,-7940,1745142805394512389
452319,17,-24,-33,509,598,-7922,1745142805394512389
452511,16,-18,-36,570,582,-7896,1745142805394512389
452703,21,-16,-37,614,575,-7870,1745142805451347912
452895,22,-19,-38,667,549,-7843,1745142805451347912
453087,19,-25,-41,682,512,-7851,1745142805451347912
453279,19,-29,-43,661,463,-7839,1745142805451347912
453471,21,-29,-43,626,431,-7868,1745142805451347912
453663,20,-28,-39,597,433,-7878,1745142805451347912
453855,20,-26,-34,557,429,-7870,1745142805451347912
454047,18,-23,-30,524,430,-7881,1745142805451347912
454239,17,-19,-26,483,394,-7892,1745142805451347912
454431,18,-13,-22,458,365,-7894,1745142805451347912
454623,20,-5,-18,435,380,-7899,1745142805451347912
454815,21,5,-14,454,408,-7953,1745142805451347912
455007,22,16,-10,491,435,-7959,1745142805511553560
455199,26,26,-8,523,459,-7962,1745142805511553560
455391,33,30,-7,591,448,-7979,1745142805511553560
455583,43,30,-7,626,434,-7978,1745142805511553560
455775,54,27,-7,616,418,-7977,1745142805511553560
455967,59,24,-9,600,401,-7979,1745142805511553560
456159,58,22,-11,573,364,-7973,1745142805511553560
456351,53,23,-13,531,316,-7988,1745142805511553560
456543,50,23,-16,518,279,-8021,1745142805511553560
456735,46,24,-18,510,274,-8063,1745142805511553560
456927,36,26,-19,514,307,-8104,1745142805511553560
457119,24,27,-20,547,322,-8126,1745142805511553560
457311,15,27,-21,561,342,-8126,1745142805564988540
457503,12,23,-20,586,345,-8122,1745142805564988540
457695,14,19,-19,603,370,-8118,1745142805564988540
457887,14,15,-20,606,394,-8109,1745142805564988540
458079,11,13,-23,622,384,-8099,1745142805564988540
458271,9,10,-27,620,404,-8110,1745142805564988540
458463,11,7,-29,593,399,-8150,1745142805564988540
458655,15,4,-32,574,411,-8189,1745142805564988540
458847,19,4,-36,551,430,-8210,1745142805564988540
459039,24,5,-39,545,427,-8196,1745142805564988540
459231,28,9,-40,535,406,-8195,1745142805564988540
459423,33,12,-41,544,360,-8203,1745142805564988540
459615,40,14,-40,544,340,-8213,1745142805628594522
459807,47,15,-38,567,347,-8223,1745142805628594522
459999,52,16,-37,568,346,-8222,1745142805628594522
460191,54,15,-33,585,345,-8206,1745142805628594522
460383,55,13,-28,610,336,-8164,1745142805628594522
460575,56,11,-25,626,322,-8130,1745142805628594522
460767,55,9,-23,635,263,-8112,1745142805628594522
460959,50,6,-20,648,213,-8090,1745142805628594522
461151,42,2,-20,657,188,-8091,1745142805628594522
461343,30,-2,-18,634,186,-8085,1745142805628594522
461535,14,-5,-17,613,177,-8090,1745142805628594522
461727,-4,-6,-19,608,197,-8106,1745142805628594522
461919,-20,-5,-19,594,225,-8130,1745142805685832437
462111,-30,-3,-19,588,273,-8172,1745142805685832437
462303,-34,0,-20,599,339,-8202,1745142805685832437
462495,-31,-2,-20,611,378,-8203,1745142805685832437
462687,-22,-6,-20,582,427,-8223,1745142805685832437
462879,-6,-8,-19,563,467,-8237,1745142805685832437
463071,13,-5,-17,559,494,-8245,1745142805685832437
463263,32,-1,-15,552,500,-8234,1745142805685832437
463455,50,4,-14,587,479,-8221,1745142805685832437
463647,64,6,-13,609,427,-8181,1745142805685832437
463839,76,4,-13,637,378,-8156,1745142805685832437
464031,78,1,-13,651,335,-8128,1745142805685832437
464223,69,-5,-14,641,297,-8117,1745142805745419601
464415,57,-7,-16,619,288,-8112,1745142805745419601
464607,45,-6,-18,596,290,-8110,1745142805745419601
464799,34,-5,-20,586,310,-8103,1745142805745419601
464991,24,-5,-21,599,341,-8068,1745142805745419601
465183,18,-6,-23,595,347,-8084,1745142805745419601
465375,17,-7,-27,588,340,-8094,1745142805745419601
465567,20,-9,-30,555,331,-8092,1745142805745419601
465759,21,-12,-33,543,348,-8092,1745142805745419601
465951,22,-14,-35,520,345,-8054,1745142805745419601
466143,22,-11,-36,522,298,-8059,1745142805745419601
466335,27,-7,-36,512,246,-8069,1745142805745419601
466527,33,-5,-36,514,230,-8097,1745142805799408066
466719,34,-5,-36,516,241,-8146,1745142805799408066
466911,32,-4,-35,510,271,-8145,1745142805799408066
467103,29,-2,-33,524,302,-8161,1745142805799408066
467295,30,3,-29,534,320,-8153,1745142805799408066
467487,33,5,-26,556,346,-8135,1745142805799408066
467679,38,4,-26,589,305,-8138,1745142805799408066
467871,42,2,-27,617,273,-8120,1745142805799408066
468063,45,0,-29,617,248,-8105,1745142805799408066
468255,43,-3,-31,623,228,-8114,1745142805799408066
468447,36,-8,-33,603,210,-8117,1745142805799408066
468639,28,-13,-37,551,240,-8092,1745142805799408066
468831,23,-17,-41,506,259,-8100,1745142805862280720
469023,19,-19,-46,451,297,-8094,1745142805862280720
469215,19,-19,-50,439,352,-8110,1745142805862280720
469407,20,-17,-54,451,358,-8093,1745142805862280720
469599,23,-15,-59,472,314,-8099,1745142805862280720
469791,30,-13,-61,530,269,-8101,1745142805862280720
469983,41,-12,-63,574,257,-8095,1745142805862280720
470175,45,-15,-63,591,277,-8080,1745142805862280720
470367,43,-20,-62,586,299,-8051,1745142805862280720
470559,41,-26,-63,545,290,-8001,1745142805862280720
470751,38,-31,-65,502,231,-7973,1745142805862280720
470943,38,-32,-69,475,169,-7976,1745142805862280720
471135,38,-28,-70,460,144,-7985,1745142805919527593
471327,34,-22,-69,449,178,-8011,1745142805919527593
471519,22,-18,-67,454,249,-8035,1745142805919527593
471711,12,-16,-65,453,316,-8039,1745142805919527593
471903,9,-15,-65,436,367,-8040,1745142805919527593
472095,12,-12,-68,446,400,-8063,1745142805919527593
472287,11,-11,-72,467,417,-8092,1745142805919527593
472479,7,-10,-80,486,428,-8091,1745142805919527593
472671,3,-12,-92,484,469,-8102,1745142805919527593
472863,0,-15,-103,436,539,-8108,1745142805919527593
473055,-2,-20,-115,426,640,-8113,1745142805919527593
473247,-3,-26,-130,392,730,-8162,1745142805919527593
473439,3,-28,-147,403,807,-8209,1745142805978210964
473631,14,-30,-166,413,879,-8235,1745142805978210964
473823,25,-34,-189,433,950,-8303,1745142805978210964
474015,30,-43,-216,442,1060,-8371,1745142805978210964
474207,24,-57,-248,433,1198,-8396,1745142805978210964
474399,12,-78,-283,397,1336,-8432,1745142805978210964
474591,-5,-102,-326,341,1477,-8464,1745142805978210964
474783,-20,-125,-375,264,1645,-8548,1745142805978210964
474975,-25,-144,-428,208,1897,-8647,1745142805978210964
475167,-28,-161,-484,153,2190,-8758,1745142805978210964
475359,-31,-176,-546,185,2399,-8476,1745142805978210964
475551,-55,-211,-615,164,2503,-7771,1745142805978210964
475743,-47,-211,-690,-53,2991,-8972,1745142806036125174
475935,-29,-213,-786,-77,3322,-9553,1745142806036125174
476127,23,-208,-891,63,3448,-9781,1745142806036125174
476319,97,-233,-994,350,3432,-9643,1745142806036125174
476511,168,-250,-1081,628,3428,-9415,1745142806036125174
476703,217,-273,-1157,808,3555,-9369,1745142806036125174
476895,256,-309,-1231,851,3779,-9391,1745142806036125174
477087,302,-361,-1309,789,4061,-9455,1745142806036125174
477279,361,-420,-1395,661,4366,-9479,1745142806036125174
477471,429,-472,-1485,515,4686,-9490,1745142806036125174
477663,500,-509,-1578,378,5006,-9486,1745142806036125174
477855,565,-530,-1671,325,5243,-9430,1745142806036125174
478047,625,-540,-1767,355,5359,-9309,1745142806096342593
478239,687,-544,-1870,458,5372,-9167,1745142806096342593
478431,748,-562,-1980,456,5218,-8492,1745142806096342593
478623,814,-578,-2092,1031,5233,-9538,1745142806096342593
478815,843,-500,-2195,1087,5076,-8760,1745142806096342593
479007,876,-491,-2286,1373,5038,-8652,1745142806096342593
479199,903,-486,-2375,1677,5010,-8535,1745142806096342593
479391,926,-497,-2469,1955,5049,-8395,1745142806096342593
479583,942,-530,-2571,2202,5077,-8147,1745142806096342593
479775,951,-573,-2675,2409,5049,-7876,1745142806096342593
479967,962,-627,-2779,2552,4982,-7656,1745142806096342593
480159,974,-678,-2876,2643,4868,-7477,1745142806096342593
480351,984,-726,-2964,2681,4717,-7338,1745142806153271187
480543,992,-777,-3045,2676,4561,-7276,1745142806153271187
480735,996,-820,-3119,2629,4442,-7232,1745142806153271187
480927,991,-858,-3184,2582,4385,-7192,1745142806153271187
481119,973,-883,-3244,2539,4361,-7173,1745142806153271187
481311,949,-892,-3305,2500,4351,-7097,1745142806153271187
481503,921,-888,-3365,2491,4386,-6948,1745142806153271187
481695,888,-878,-3426,2526,4382,-6748,1745142806153271187
481887,853,-862,-3486,2622,4326,-6549,1745142806153271187
482079,827,-844,-3545,2717,4208,-6392,1745142806153271187
482271,804,-826,-3602,2861,4120,-6207,1745142806153271187
482463,784,-814,-3660,3011,4006,-6104,1745142806153271187
482655,767,-805,-3716,3132,3936,-6011,1745142806213110224
482847,755,-805,-3768,3223,3912,-5894,1745142806213110224
483039,747,-806,-3818,3308,3939,-5810,1745142806213110224
483231,746,-809,-3868,3351,4010,-5740,1745142806213110224
483423,749,-812,-3922,3432,4135,-5616,1745142806213110224
483615,751,-813,-3984,3506,4213,-5488,1745142806213110224
483807,753,-809,-4051,3579,4220,-5305,1745142806213110224
483999,757,-810,-4116,3653,4118,-5021,1745142806213110224
484191,760,-810,-4179,3739,3938,-4762,1745142806213110224
484383,758,-823,-4239,3817,3753,-4532,1745142806213110224
484575,744,-839,-4299,3891,3546,-4306,1745142806213110224
484767,707,-862,-4367,3982,3328,-4077,1745142806213110224
484959,641,-884,-4450,4030,3055,-3827,1745142806268070607
485151,556,-898,-4537,4071,2789,-3586,1745142806268070607
485343,454,-895,-4616,4077,2492,-3467,1745142806268070607
485535,340,-873,-4682,4088,2233,-3428,1745142806268070607
485727,214,-834,-4739,4123,2151,-3390,1745142806268070607
485919,70,-781,-4793,4257,2119,-3547,1745142806268070607
486111,-69,-693,-4852,4084,2032,-2906,1745142806268070607
486303,-230,-701,-4923,4208,2030,-3056,1745142806268070607
486495,-363,-665,-4976,4196,1964,-3052,1745142806268070607
486687,-467,-615,-5013,4113,1853,-2974,1745142806268070607
486879,-548,-569,-5041,4050,1686,-2901,1745142806268070607
487071,-620,-521,-5064,3960,1465,-2948,1745142806268070607
487263,-676,-476,-5083,3850,1281,-2978,1745142806326800123
487455,-721,-433,-5098,3694,1150,-2915,1745142806326800123
487647,-757,-373,-5104,3449,1121,-2884,1745142806326800123
487839,-779,-288,-5097,3253,1159,-2885,1745142806326800123
488031,-789,-171,-5083,3181,1240,-2862,1745142806326800123
488223,-789,-26,-5063,3227,1333,-2896,1745142806326800123
488415,-773,132,-5038,3374,1397,-3124,1745142806326800123
488607,-733,286,-5008,3586,1465,-3615,1745142806326800123
488799,-665,418,-4968,3878,1525,-4085,1745142806326800123
488991,-568,525,-4918,4181,1518,-4586,1745142806326800123
489183,-442,617,-4862,4494,1459,-5040,1745142806326800123
489375,-290,690,-4799,4775,1318,-5291,1745142806326800123
489567,-124,739,-4731,5080,1109,-5424,1745142806388393519
489759,51,776,-4666,5230,879,-5631,1745142806388393519
489951,232,816,-4602,5276,719,-5926,1745142806388393519
490143,421,861,-4535,5317,557,-6217,1745142806388393519
490335,620,919,-4460,5412,365,-6432,1745142806388393519
490527,814,980,-4378,5694,96,-6734,1745142806388393519
490719,1002,1048,-4289,6103,-212,-7131,1745142806388393519
490911,1190,1107,-4185,6573,-468,-7553,1745142806388393519
491103,1377,1142,-4071,7129,-786,-7791,1745142806388393519
491295,1561,1148,-3952,7651,-1099,-7921,1745142806388393519
491487,1745,1124,-3836,8063,-1508,-8011,1745142806388393519
491679,1929,1067,-3724,8397,-2069,-7974,1745142806388393519
491871,2107,977,-3614,8672,-2834,-8007,1745142806446964859
492063,2257,849,-3508,8874,-3744,-8022,1745142806446964859
492255,2343,687,-3409,8932,-4736,-7943,1745142806446964859
492447,2354,516,-3315,8797,-5679,-7806,1745142806446964859
492639,2290,366,-3222,8595,-6597,-7805,1745142806446964859
492831,2167,234,-3128,8352,-7427,-7846,1745142806446964859
493023,1973,116,-3032,8118,-8183,-7926,1745142806446964859
493215,1723,24,-2928,7854,-8737,-8067,1745142806446964859
493407,1437,-29,-2775,7604,-9095,-8358,1745142806446964859
493599,1117,-44,-2594,7699,-9786,-8751,1745142806446964859
493791,809,-56,-2497,7775,-10276,-9126,1745142806446964859
493983,505,-84,-2444,7900,-10402,-9607,1745142806446964859
494175,150,-113,-2383,7945,-10551,-9789,1745142806505357919
494367,-173,-131,-2334,7824,-10563,-9804,1745142806505357919
494559,-473,-149,-2303,7556,-10302,-9740,1745142806505357919
494751,-749,-173,-2243,7192,-9956,-9617,1745142806505357919
494943,-1008,-221,-2150,6862,-9595,-9281,1745142806505357919
495135,-1242,-276,-2042,6456,-9214,-8965,1745142806505357919
495327,-1445,-308,-1935,6045,-8732,-8813,1745142806505357919
495519,-1609,-335,-1821,5694,-8199,-8644,1745142806505357919
495711,-1722,-356,-1702,5338,-7690,-8482,1745142806505357919
495903,-1771,-355,-1598,5017,-7080,-8477,1745142806505357919
496095,-1763,-326,-1502,4798,-6411,-8471,1745142806505357919
496287,-1716,-307,-1392,4767,-5793,-8644,1745142806505357919
496479,-1606,-277,-1279,4810,-5395,-8963,1745142806563776604
496671,-1457,-251,-1197,4948,-4965,-9369,1745142806563776604
496863,-1278,-228,-1120,5079,-4496,-9774,1745142806563776604
497055,-1089,-206,-1025,5253,-4060,-10071,1745142806563776604
497247,-899,-195,-910,5390,-3728,-10207,1745142806563776604
497439,-712,-197,-798,5379,-3541,-10195,1745142806563776604
497631,-541,-214,-700,5239,-3444,-10068,1745142806563776604
497823,-396,-236,-620,5027,-3416,-9854,1745142806563776604
498015,-283,-260,-545,4683,-3446,-9628,1745142806563776604
498207,-213,-277,-471,4375,-3589,-9388,1745142806563776604
498399,-193,-277,-415,4091,-3767,-9233,1745142806563776604
498591,-207,-250,-396,3826,-3635,-9175,1745142806563776604
498783,-280,-218,-400,3635,-3563,-8586,1745142806622134873
498975,-350,-207,-375,3574,-3704,-8615,1745142806622134873
499167,-353,-200,-330,3590,-3534,-8459,1745142806622134873
499359,-350,-189,-277,3474,-3218,-8113,1745142806622134873
499551,-361,-133,-244,3423,-2842,-8310,1745142806622134873
499743,-375,-93,-204,3674,-2634,-8626,1745142806622134873
499935,-394,-123,-137,4014,-2669,-8349,1745142806622134873
500127,-370,-171,-67,4417,-2636,-8736,1745142806622134873
500319,-359,-239,28,5102,-2792,-9342,1745142806622134873
500511,-400,-363,121,5598,-3055,-10032,1745142806622134873
500703,-378,-506,222,5538,-3042,-10250,1745142806622134873
500895,-265,-635,320,5422,-3022,-10613,1745142806622134873
501087,-165,-750,359,5317,-3174,-11231,1745142806680270227
501279,-147,-841,327,4940,-3305,-11484,1745142806680270227
501471,-201,-888,274,4220,-3222,-11243,1745142806680270227
501663,-280,-886,252,3400,-2946,-10878,1745142806680270227
501855,-357,-854,266,2699,-2559,-10408,1745142806680270227
502047,-427,-808,288,2114,-2020,-9825,1745142806680270227
502239,-490,-755,297,1631,-1395,-9227,1745142806680270227
502431,-535,-700,292,1296,-741,-8669,1745142806680270227
502623,-542,-650,264,1076,-265,-8139,1745142806680270227
502815,-516,-613,225,743,640,-7818,1745142806680270227
503007,-475,-579,250,737,848,-7594,1745142806680270227
503199,-406,-548,230,723,1032,-7519,1745142806680270227
503391,-325,-522,196,780,1058,-7532,1745142806739200991
503583,-237,-502,158,863,915,-7616,1745142806739200991
503775,-143,-490,131,841,809,-7728,1745142806739200991
503967,-55,-478,136,863,621,-7840,1745142806739200991
504159,14,-466,156,823,340,-7957,1745142806739200991
504351,63,-456,165,733,139,-8110,1745142806739200991
504543,94,-442,171,629,-59,-8264,1745142806739200991
504735,112,-428,174,537,-231,-8414,1745142806739200991
504927,119,-412,177,478,-455,-8580,1745142806739200991
505119,113,-396,176,480,-670,-8771,1745142806739200991
505311,100,-377,169,500,-827,-8942,1745142806739200991
505503,82,-357,153,531,-918,-9076,1745142806739200991
505695,61,-334,136,596,-967,-9134,1745142806797299679
505887,42,-315,122,716,-983,-9140,1745142806797299679
506079,27,-298,109,793,-968,-9108,1745142806797299679
506271,12,-281,98,909,-943,-9005,1745142806797299679
506463,-4,-271,92,991,-936,-8886,1745142806797299679
506655,-15,-263,87,1079,-914,-8733,1745142806797299679
506847,-25,-259,86,1127,-848,-8578,1745142806797299679
507039,-32,-254,87,1137,-847,-8408,1745142806797299679
507231,-34,-248,87,1107,-738,-8286,1745142806797299679
507423,-35,-243,85,1032,-650,-8204,1745142806797299679
507615,-37,-237,82,953,-507,-8165,1745142806797299679
507807,-42,-231,78,893,-375,-8132,1745142806797299679
507999,-42,-224,76,810,-324,-8122,1745142806856073101
508191,-35,-216,78,762,-303,-8155,1745142806856073101
508383,-25,-206,79,731,-276,-8196,1745142806856073101
508575,-13,-196,76,759,-257,-8255,1745142806856073101
508767,-2,-187,67,756,-281,-8306,1745142806856073101
508959,6,-178,56,788,-354,-8320,1745142806856073101
509151,15,-171,48,807,-433,-8310,1745142806856073101
509343,20,-160,41,832,-496,-8333,1745142806856073101
509535,19,-149,35,860,-576,-8375,1745142806856073101
509727,15,-140,29,876,-628,-8403,1745142806856073101
509919,14,-131,24,852,-656,-8400,1745142806856073101
510111,9,-125,20,839,-698,-8416,1745142806856073101
510303,0,-122,20,829,-733,-8380,1745142806914383141
510495,0,-120,20,810,-737,-8348,1745142806914383141
510687,-14,-116,18,787,-755,-8328,1745142806914383141
510879,-27,-111,16,725,-745,-8311,1745142806914383141
511071,-41,-104,12,667,-738,-8280,1745142806914383141
511263,-52,-98,6,641,-697,-8251,1745142806914383141
511455,-59,-90,1,610,-617,-8207,1745142806914383141
511647,-62,-83,-1,603,-536,-8124,1745142806914383141
511839,-59,-75,-1,604,-470,-8092,1745142806914383141
512031,-53,-68,-3,607,-451,-8049,1745142806914383141
512223,-43,-61,-5,624,-441,-8039,1745142806914383141
512415,-36,-54,-9,665,-443,-8057,1745142806914383141
512607,-35,-47,-16,671,-451,-8111,1745142806972598546
512799,-36,-45,-21,684,-445,-8128,1745142806972598546
512991,-36,-45,-27,707,-460,-8155,1745142806972598546
513183,-37,-45,-28,730,-462,-8182,1745142806972598546
513375,-41,-46,-33,734,-501,-8182,1745142806972598546
513567,-44,-47,-38,715,-531,-8152,1745142806972598546
513759,-44,-50,-39,690,-554,-8141,1745142806972598546
513951,-43,-51,-36,646,-598,-8129,1745142806972598546
514143,-45,-51,-37,643,-627,-8114,1745142806972598546
514335,-53,-52,-44,662,-708,-8107,1745142806972598546
514527,-64,-48,-55,647,-683,-8100,1745142806972598546
514719,-77,-47,-60,662,-659,-8108,1745142806972598546
514911,-86,-45,-61,641,-617,-8119,1745142807031264938
515103,-90,-42,-59,661,-544,-8085,1745142807031264938
515295,-91,-37,-54,673,-448,-8064,1745142807031264938
515487,-90,-35,-51,704,-371,-8055,1745142807031264938
515679,-83,-36,-56,716,-313,-8050,1745142807031264938
515871,-69,-40,-64,720,-284,-8052,1745142807031264938
516063,-54,-45,-72,697,-331,-8050,1745142807031264938
516255,-42,-49,-79,694,-380,-8052,1745142807031264938
516447,-36,-52,-81,661,-447,-8052,1745142807031264938
516639,-35,-55,-77,669,-488,-8081,1745142807031264938
516831,-39,-59,-69,663,-519,-8094,1745142807031264938
517023,-48,-66,-64,662,-535,-8103,1745142807031264938
517215,-58,-71,-66,632,-541,-8085,1745142807089431750
517407,-67,-74,-71,599,-534,-8091,1745142807089431750
517599,-76,-76,-73,574,-529,-8049,1745142807089431750
517791,-87,-80,-77,582,-506,-8007,1745142807089431750
517983,-115,-84,-81,607,-622,-7982,1745142807089431750
518175,-131,-87,-78,604,-687,-7997,1745142807089431750
518367,-152,-87,-71,571,-630,-7950,1745142807089431750
518559,-161,-85,-62,548,-413,-7960,1745142807089431750
518751,-165,-86,-63,566,-286,-8005,1745142807089431750
518943,-174,-89,-79,607,-374,-8050,1745142807089431750
519135,-178,-96,-106,623,-415,-8081,1745142807089431750
519327,-168,-94,-126,528,-201,-8151,1745142807089431750
519519,-161,-87,-91,544,-278,-8126,1745142807148162932
519711,-152,-88,-72,580,-228,-8101,1745142807148162932
519903,-142,-91,-60,609,-219,-8079,1745142807148162932
520095,-131,-92,-54,592,-208,-8059,1745142807148162932
520287,-120,-90,-55,552,-176,-8071,1745142807148162932
520479,-112,-83,-60,471,-183,-8087,1745142807148162932
520671,-104,-75,-65,444,-175,-8128,1745142807148162932
520863,-94,-68,-68,453,-194,-8131,1745142807148162932
521055,-83,-63,-67,513,-179,-8105,1745142807148162932
521247,-70,-64,-64,571,-177,-8107,1745142807148162932
521439,-59,-64,-58,600,-188,-8092,1745142807148162932
521631,-51,-68,-55,652,-203,-8100,1745142807148162932
521823,-47,-72,-52,643,-214,-8096,1745142807206278391
522015,-47,-77,-47,622,-226,-8078,1745142807206278391
522207,-49,-83,-43,641,-230,-8051,1745142807206278391
522399,-56,-91,-38,641,-250,-8045,1745142807206278391
522591,-61,-96,-33,621,-255,-8058,1745142807206278391
522783,-62,-104,-31,613,-274,-8097,1745142807206278391
522975,-62,-109,-33,593,-300,-8148,1745142807206278391
523167,-61,-111,-38,522,-343,-8201,1745142807206278391
523359,-59,-105,-42,448,-336,-8232,1745142807206278391
523551,-57,-95,-45,392,-313,-8260,1745142807206278391
523743,-57,-84,-43,384,-301,-8272,1745142807206278391
523935,-52,-75,-42,393,-289,-8262,1745142807206278391
524127,-49,-63,-43,389,-272,-8228,1745142807261641583
524319,-47,-53,-42,418,-275,-8200,1745142807261641583
524511,-48,-48,-40,475,-272,-8193,1745142807261641583
524703,-52,-48,-39,506,-284,-8203,1745142807261641583
524895,-60,-50,-39,521,-313,-8193,1745142807261641583
525087,-71,-53,-40,546,-386,-8199,1745142807261641583
525279,-88,-58,-38,594,-426,-8184,1745142807261641583
525471,-105,-67,-32,610,-347,-8141,1745142807261641583
525663,-119,-74,-24,582,-246,-8126,1745142807261641583
525855,-130,-80,-18,557,-190,-8116,1745142807261641583
526047,-127,-86,-14,495,-95,-8068,1745142807261641583
526239,-102,-80,-11,362,103,-8031,1745142807261641583
526431,-57,-66,-8,320,235,-8046,1745142807323166282
526623,-22,-53,-15,361,113,-8084,1745142807323166282
526815,-4,-44,-31,382,-53,-8122,1745142807323166282
527007,6,-36,-41,403,-250,-8124,1745142807323166282
527199,5,-30,-41,423,-400,-8167,1745142807323166282
527391,-6,-23,-34,445,-444,-8210,1745142807323166282
527583,-21,-18,-27,450,-419,-8219,1745142807323166282
527775,-30,-17,-23,451,-361,-8252,1745142807323166282
527967,-35,-16,-22,438,-308,-8262,1745142807323166282
528159,-40,-14,-23,427,-293,-8241,1745142807323166282
528351,-46,-13,-25,434,-279,-8228,1745142807323166282
528543,-52,-11,-23,411,-259,-8202,1745142807323166282
528927,-64,-6,-15,364,-192,-8104,1745142807391443522
529119,-67,1,-13,314,-215,-8066,1745142807391443522
529311,-68,10,-12,276,-193,-8030,1745142807391443522
529503,-67,22,-14,250,-186,-8015,1745142807391443522
529695,-66,34,-16,280,-175,-8045,1745142807391443522
529887,-65,43,-18,340,-151,-8055,1745142807391443522
530079,-60,46,-19,441,-132,-8082,1745142807391443522
530271,-54,44,-19,516,-124,-8112,1745142807391443522
530463,-45,37,-17,550,-146,-8105,1745142807391443522
530655,-40,34,-15,511,-156,-8098,1745142807391443522
530847,-39,33,-14,443,-224,-8077,1745142807391443522
531039,-41,24,-16,329,-265,-7872,1745142807391443522
531231,-41,-16,-26,316,-301,-7870,1745142807443407996
531423,-34,-12,-13,479,-241,-8457,1745142807443407996
531615,-69,40,-7,409,-258,-8044,1745142807443407996
531807,-74,40,-5,457,-179,-8007,1745142807443407996
531999,-70,35,-2,515,-109,-8033,1745142807443407996
532191,-65,25,1,530,-56,-8034,1745142807443407996
532383,-58,17,2,529,-6,-8064,1745142807443407996
532575,-45,8,5,516,7,-8066,1745142807443407996
532767,-29,-3,8,511,7,-8081,1745142807443407996
532959,-12,-11,11,514,-30,-8121,1745142807443407996
533151,0,-16,14,511,-48,-8116,1745142807443407996
533343,8,-21,16,496,-132,-8134,1745142807443407996
533535,6,-16,11,408,-236,-8184,1745142807503902860
533727,-2,4,2,279,-256,-8123,1745142807503902860
533919,-5,21,-1,268,-219,-8115,1745142807503902860
534111,-7,30,-3,323,-169,-8127,1745142807503902860
534303,-9,35,-3,423,-139,-8159,1745142807503902860
534495,-11,39,-5,461,-164,-8175,1745142807503902860
534687,-14,43,-5,464,-242,-8182,1745142807503902860
534879,-23,45,-5,423,-353,-8191,1745142807503902860
535071,-41,54,-5,318,-403,-8144,1745142807503902860
535263,-56,65,-2,255,-329,-8145,1745142807503902860
535455,-66,76,0,299,-226,-8132,1745142807503902860
535647,-71,81,-1,394,-126,-8130,1745142807503902860
535839,-72,78,-3,515,-52,-8119,1745142807563986425
536031,-71,69,-6,609,-22,-8100,1745142807563986425
536223,-64,57,-6,660,1,-8095,1745142807563986425
536415,-54,44,-3,651,0,-8096,1745142807563986425
536607,-44,33,4,626,-37,-8078,1745142807563986425
536799,-38,23,11,599,-66,-8064,1745142807563986425
536991,-35,13,15,580,-75,-8066,1745142807563986425
537183,-34,5,16,559,-91,-8047,1745142807563986425
537375,-35,0,14,528,-119,-8050,1745142807563986425
537567,-39,-5,11,485,-137,-8026,1745142807563986425
537759,-38,-7,13,452,-154,-8032,1745142807563986425
537951,-33,-9,15,429,-146,-8020,1745142807563986425
538143,-25,-10,16,400,-166,-8009,1745142807618574989
538335,-14,-10,16,391,-136,-8028,1745142807618574989
538527,-14,-8,17,406,-95,-8036,1745142807618574989
538719,-19,-8,23,403,-102,-8030,1745142807618574989
538911,-31,-16,45,333,-42,-7976,1745142807618574989
539103,-47,-39,93,434,-312,-7993,1745142807618574989
539295,-54,-42,92,483,-263,-8151,1745142807618574989
539487,-90,-13,71,388,-325,-8169,1745142807618574989
539679,-116,21,40,226,-352,-8112,1745142807618574989
539871,-118,48,6,259,-206,-8121,1745142807618574989
540063,-115,61,-15,390,-63,-8136,1745142807618574989
540255,-118,59,-21,550,48,-8163,1745142807618574989
540447,-128,56,-20,660,31,-8156,1745142807679048083
540639,-118,45,-17,738,6,-8229,1745142807679048083
540831,-111,39,-22,719,44,-8192,1745142807679048083
541023,-99,27,-22,659,42,-8231,1745142807679048083
541215,-84,15,-24,600,5,-8220,1745142807679048083
541407,-69,11,-29,504,-39,-8189,1745142807679048083
541599,-60,14,-32,457,-54,-8182,1745142807679048083
541791,-50,16,-29,470,-70,-8165,1745142807679048083
541983,-37,15,-25,509,-109,-8148,1745142807679048083
542175,-32,12,-22,545,-124,-8149,1745142807679048083
542367,-33,5,-20,593,-119,-8122,1745142807679048083
542559,-36,-4,-21,566,-114,-8086,1745142807679048083
542751,-41,-9,-22,485,-146,-8053,1745142807742371931
542943,-47,-6,-24,380,-118,-8023,1745142807742371931
543135,-48,-3,-24,373,-40,-8023,1745142807742371931
543327,-45,2,-26,401,21,-8036,1745142807742371931
543519,-42,5,-29,410,26,-8055,1745142807742371931
543711,-36,11,-32,414,-8,-8067,1745142807742371931
543903,-31,20,-35,386,-49,-8105,1745142807742371931
544095,-29,30,-36,348,-72,-8129,1745142807742371931
544287,-29,43,-36,317,-83,-8130,1745142807742371931
544479,-29,55,-37,349,-47,-8135,1745142807742371931
544671,-30,65,-37,427,-36,-8144,1745142807742371931
544863,-31,69,-36,486,-29,-8161,1745142807742371931
545055,-32,70,-36,516,-35,-8164,1745142807799012403
545439,-21,67,-32,581,107,-8155,1745142807799012403
545631,-8,58,-27,621,150,-8133,1745142807799012403
545823,3,51,-25,602,137,-8119,1745142807799012403
546015,12,49,-27,548,82,-8108,1745142807799012403
546207,20,46,-29,556,30,-8119,1745142807799012403
546399,25,43,-30,567,2,-8104,1745142807799012403
546591,29,37,-29,577,-4,-8107,1745142807799012403
546783,30,31,-28,601,-49,-8116,1745142807799012403
546975,30,26,-27,570,-68,-8103,1745142807799012403
547167,28,26,-26,502,-82,-8102,1745142807799012403
547359,27,29,-26,479,-95,-8119,1745142807799012403
547551,25,33,-27,445,-93,-8122,1745142807861349074
547743,22,38,-27,503,-76,-8125,1745142807861349074
547935,19,38,-27,540,-68,-8126,1745142807861349074
548127,17,35,-25,588,-51,-8124,1745142807861349074
548319,17,30,-22,636,-43,-8127,1745142807861349074
548511,16,24,-17,656,-30,-8128,1745142807861349074
548703,16,16,-14,635,-12,-8120,1745142807861349074
548895,19,10,-12,610,9,-8115,1745142807861349074
549087,24,4,-12,598,24,-8106,1745142807861349074
549279,31,-1,-13,601,57,-8106,1745142807861349074
549471,42,-7,-11,641,133,-8121,1745142807861349074
549663,59,-20,-10,726,174,-8139,1745142807861349074
549855,80,-38,-7,822,210,-8145,1745142807922642212
550047,103,-62,-3,863,191,-8149,1745142807922642212
550239,117,-85,1,868,31,-8136,1745142807922642212
550431,118,-108,1,799,-185,-8130,1745142807922642212
550623,100,-121,0,579,-411,-8063,1745142807922642212
550815,72,-109,1,207,-508,-7972,1745142807922642212
551007,39,-78,3,-49,-520,-7946,1745142807922642212
551199,3,-39,1,-153,-521,-7931,1745142807922642212
551391,-39,5,-8,-232,-493,-7918,1745142807922642212
551583,-74,52,-18,-162,-392,-7940,1745142807922642212
551775,-104,88,-25,84,-399,-7979,1745142807922642212
551967,-136,105,-32,373,-395,-8024,1745142807922642212
552159,-165,104,-32,586,-333,-8049,1745142807981321884
552351,-187,95,-26,722,-233,-8078,1745142807981321884
552543,-200,80,-21,774,-89,-8075,1745142807981321884
552735,-204,61,-15,768,37,-8078,1745142807981321884
552927,-193,42,-13,763,170,-8104,1745142807981321884
553119,-174,23,-15,764,218,-8136,1745142807981321884
553311,-155,8,-19,738,214,-8156,1745142807981321884
553503,-135,-5,-21,696,209,-8186,1745142807981321884
553695,-117,-17,-20,675,218,-8201,1745142807981321884
553887,-99,-29,-16,669,230,-8193,1745142807981321884
554079,-80,-42,-10,661,208,-8178,1745142807981321884
554271,-62,-55,-3,670,200,-8170,1745142807981321884
554463,-48,-68,1,654,158,-8161,1745142808039942442
554655,-38,-81,4,663,138,-8146,1745142808039942442
554847,-26,-93,5,646,167,-8123,1745142808039942442
555039,-16,-104,5,621,172,-8096,1745142808039942442
555231,-7,-112,6,534,67,-8076,1745142808039942442
555423,0,-111,4,429,-5,-8045,1745142808039942442
555615,7,-104,2,332,-24,-8052,1745142808039942442
555807,12,-94,0,325,2,-8056,1745142808039942442
555999,12,-85,-1,346,-11,-8092,1745142808039942442
556191,9,-78,-2,389,-29,-8104,1745142808039942442
556383,6,-74,-4,399,-62,-8103,1745142808039942442
556575,1,-66,-4,372,-50,-8113,1745142808039942442
556767,-2,-56,-3,342,-14,-8102,1745142808097421448
556959,-2,-46,-3,323,-20,-8103,1745142808097421448
557151,-2,-34,-5,311,-27,-8120,1745142808097421448
557343,-3,-23,-7,328,-44,-8121,1745142808097421448
557535,-4,-15,-7,372,-16,-8129,1745142808097421448
557727,-4,-8,-8,389,13,-8113,1745142808097421448
557919,-2,-1,-9,407,64,-8089,1745142808097421448
558111,4,1,-9,449,68,-8077,1745142808097421448
558303,8,2,-11,447,61,-8066,1745142808097421448
558495,15,2,-11,468,93,-8045,1745142808097421448
558687,26,2,-10,444,121,-8043,1745142808097421448
558879,38,6,-10,406,137,-8068,1745142808097421448
559071,48,10,-12,383,64,-8092,1745142808149319516
559263,50,15,-18,377,-3,-8100,1745142808149319516
559455,51,18,-20,404,-34,-8121,1745142808149319516
559647,48,22,-18,386,-106,-8128,1745142808149319516
559839,38,32,-15,333,-168,-8143,1745142808149319516
560031,28,41,-13,326,-134,-8118,1745142808149319516
560223,24,51,-9,329,-43,-8087,1745142808149319516
560415,21,60,-9,384,-61,-8100,1745142808149319516
560607,12,66,-13,398,-128,-8078,1745142808149319516
560799,0,71,-16,425,-173,-8073,1745142808149319516
560991,-11,74,-16,458,-147,-8052,1745142808149319516
561183,-21,72,-12,516,-134,-8068,1745142808149319516
561567,-54,65,-7,509,-222,-8124,1745142810601655499
655647,-64,55,-2,612,864,-7920,1745142810601655499
655839,-153,120,-8,549,169,-8144,1745142810601655499
656031,72,1,10,719,633,-8121,1745142810601655499
656223,132,4,12,557,516,-8015,1745142810601655499
656415,132,4,15,542,511,-8140,1745142810601655499
656607,135,37,11,633,381,-8091,1745142810601655499
656799,161,36,3,734,260,-8097,1745142810601655499
656991,138,30,1,798,200,-8187,1745142810601655499
657183,127,36,1,842,158,-8186,1745142810601655499
657375,111,21,4,789,95,-8225,1745142810601655499
657567,76,26,7,686,-19,-8293,1745142810601655499
657759,41,36,6,648,-293,-8324,1745142810660311422
657951,-20,36,3,721,-387,-8387,1745142810660311422
658143,-64,47,8,742,-93,-8464,1745142810660311422
658335,-83,60,20,724,103,-8580,1745142810660311422
658527,-119,75,17,727,14,-8698,1745142810660311422
658719,-147,102,-1,546,206,-8734,1745142810660311422
658911,-141,144,-11,260,731,-8713,1745142810660311422
659103,-102,202,-17,249,1106,-8727,1745142810660311422
659295,-40,237,-29,447,1318,-8612,1745142810660311422
659487,32,258,-41,641,1375,-8590,1745142810660311422
659679,98,256,-46,1068,1214,-8376,1745142810660311422
659871,164,220,-43,1836,895,-7229,1745142810660311422
660063,130,356,-40,1831,1050,-9192,1745142810715411700
660255,318,8,20,2456,1429,-7399,1745142810715411700
660447,405,-65,47,2315,1051,-7924,1745142810715411700
660639,467,-157,52,2018,776,-8022,1745142810715411700
660831,499,-177,122,1343,1577,-8782,1745142810715411700
661023,557,30,338,1357,-1729,-6886,1745142810715411700
661215,93,-124,78,1327,-3966,-8745,1745142810715411700
661407,-321,-94,-25,-1077,-3710,-6234,1745142810715411700
661599,-471,-128,-3,-1045,-2817,-7699,1745142810715411700
661791,-545,-30,44,-1127,-1221,-7783,1745142810715411700
661983,-569,102,25,-715,302,-7802,1745142810715411700
662175,-519,173,-62,-215,1620,-7787,1745142810715411700
662367,-423,214,-135,374,2165,-7913,1745142810776496090
662559,-289,223,-206,893,2273,-7976,1745142810776496090
662751,-148,207,-217,1291,2007,-8059,1745142810776496090
662943,-37,157,-172,1591,1544,-8051,1745142810776496090
663135,34,98,-108,1684,1056,-8015,1745142810776496090
663327,71,40,-56,1579,704,-7963,1745142810776496090
663519,87,1,-22,1307,427,-7930,1745142810776496090
663711,91,-19,-9,1011,239,-7949,1745142810776496090
663903,85,-22,-14,740,118,-7990,1745142810776496090
664095,70,-12,-27,570,4,-8023,1745142810776496090
664287,49,6,-41,512,-32,-8045,1745142810776496090
664479,27,26,-50,539,10,-8080,1745142810776496090
664671,6,45,-54,639,75,-8097,1745142810835339562
664863,-14,54,-52,742,191,-8110,1745142810835339562
665055,-27,57,-50,861,318,-8104,1745142810835339562
665247,-32,51,-46,949,412,-8101,1745142810835339562
665439,-31,42,-42,991,477,-8071,1745142810835339562
665631,-24,31,-40,1005,495,-8050,1745142810835339562
665823,-15,20,-37,1008,478,-8023,1745142810835339562
666015,-8,13,-38,990,442,-8022,1745142810835339562
666207,-5,7,-38,959,382,-8023,1745142810835339562
666399,-5,5,-39,919,347,-8015,1745142810835339562
666591,-7,3,-37,913,302,-8015,1745142810835339562
666783,-10,1,-37,890,302,-8017,1745142810835339562
666975,-13,0,-36,894,297,-8049,1745142810891680871
667167,-15,-2,-35,855,325,-8058,1745142810891680871
667359,-16,-4,-34,826,335,-8071,1745142810891680871
667551,-14,-6,-35,812,356,-8097,1745142810891680871
667743,-12,-5,-37,772,359,-8095,1745142810891680871
667935,-9,-5,-38,756,386,-8106,1745142810891680871
668127,-8,-3,-39,749,362,-8101,1745142810891680871
668319,-6,2,-39,754,356,-8083,1745142810891680871
668511,-4,8,-39,755,376,-8072,1745142810891680871
668703,-3,13,-39,779,363,-8077,1745142810891680871
668895,-2,18,-40,828,356,-8105,1745142810891680871
669087,0,22,-43,837,356,-8120,1745142810891680871
669279,3,25,-45,860,344,-8119,1745142810952049382
669471,8,30,-47,871,329,-8139,1745142810952049382
669663,15,37,-49,878,321,-8171,1745142810952049382
669855,17,43,-52,892,308,-8227,1745142810952049382
670047,16,48,-54,905,303,-8246,1745142810952049382
670239,16,55,-57,898,292,-8220,1745142810952049382
670431,16,62,-60,911,279,-8262,1745142810952049382
670623,14,69,-63,901,281,-8273,1745142810952049382
670815,13,81,-68,920,283,-8252,1745142810952049382
671007,14,94,-74,906,254,-8298,1745142810952049382
671199,17,109,-80,928,262,-8385,1745142810952049382
671391,27,123,-87,962,272,-8420,1745142810952049382
671583,37,136,-94,-43,-1,-1,1745142811010608066
671775,44,144,-100,1001,254,-8461,1745142811010608066
671967,47,151,-104,1005,219,-8444,1745142811010608066
672159,49,159,-104,988,192,-8398,1745142811010608066
672351,48,164,-102,988,164,-8363,1745142811010608066
672543,47,170,-99,977,134,-8333,1745142811010608066
672735,50,178,-95,977,128,-8332,1745142811010608066
672927,58,190,-97,976,107,-8279,1745142811010608066
673119,72,210,-103,995,92,-8313,1745142811010608066
673311,84,235,-111,1035,31,-8431,1745142811010608066
673503,93,262,-119,1072,4,-8538,1745142811010608066
673695,100,290,-122,1127,-8,-8646,1745142811010608066
673887,115,317,-120,1219,-40,-8731,1745142811068893418
674079,137,340,-115,1355,-94,-8806,1745142811068893418
674271,162,361,-111,1467,-152,-8865,1745142811068893418
674463,187,379,-107,1595,-210,-8935,1745142811068893418
674655,210,398,-101,1692,-263,-9001,1745142811068893418
674847,230,417,-90,1788,-343,-9067,1745142811068893418
675039,251,436,-77,1906,-504,-9217,1745142811068893418
675231,296,452,-59,2104,-768,-9006,1745142811068893418
675423,356,506,-31,2305,-911,-8158,1745142811068893418
675615,281,576,19,2478,-1531,-8728,1745142811068893418
675807,321,605,69,2730,-2114,-9137,1745142811068893418
675999,372,588,128,2924,-2412,-9498,1745142811068893418
676191,371,604,182,3221,-2590,-9687,1745142811127558195
676383,368,619,178,3390,-2565,-9618,1745142811127558195
676575,384,638,154,3464,-2549,-9658,1745142811127558195
676767,424,655,161,3620,-2645,-9814,1745142811127558195
676959,474,663,206,3839,-2962,-9791,1745142811127558195
677151,541,668,268,4046,-3185,-9515,1745142811127558195
677343,575,687,344,4437,-3283,-9466,1745142811127558195
677535,541,722,430,5179,-4009,-9301,1745142811127558195
677727,499,708,519,5771,-4813,-9158,1745142811127558195
677919,500,649,660,6276,-5589,-9191,1745142811127558195
678111,505,579,817,6480,-5871,-9102,1745142811127558195
678303,475,535,962,6451,-5788,-9079,1745142811127558195
678495,443,511,1077,6291,-5470,-9114,1745142811185597665
678687,436,503,1168,6061,-5110,-9232,1745142811185597665
678879,483,495,1256,5962,-4816,-9465,1745142811185597665
679071,585,484,1372,6084,-4721,-9681,1745142811185597665
679263,737,462,1525,6405,-4834,-9861,1745142811185597665
679455,904,419,1709,6750,-5217,-9954,1745142811185597665
679647,1049,377,1897,6970,-5725,-10162,1745142811185597665
679839,1170,338,2069,7056,-6284,-10231,1745142811185597665
680031,1263,310,2231,7027,-6905,-10237,1745142811185597665
680223,1283,288,2390,6972,-7771,-10288,1745142811185597665
680415,1231,266,2551,6821,-8660,-10265,1745142811185597665
680607,1124,272,2707,6523,-9263,-10153,1745142811185597665
680799,977,305,2854,6174,-9608,-10005,1745142811244240567
680991,783,361,2982,5886,-9728,-9884,1745142811244240567
681183,558,421,3086,5697,-9604,-9711,1745142811244240567
681375,319,470,3172,5641,-9272,-9485,1745142811244240567
681567,82,508,3244,5683,-8749,-9236,1745142811244240567
681759,-131,535,3316,5799,-8126,-9059,1745142811244240567
681951,-303,545,3400,5976,-7430,-8877,1745142811244240567
682143,-427,535,3492,6182,-6748,-8748,1745142811244240567
682335,-502,505,3595,6348,-6110,-8642,1745142811244240567
682527,-529,461,3712,6451,-5524,-8578,1745142811244240567
682719,-513,412,3838,6549,-5018,-8615,1745142811244240567
682911,-464,358,3964,6610,-4596,-8580,1745142811244240567
683103,-403,303,4079,6636,-4259,-8595,1745142811301634417
683295,-344,255,4182,6574,-3987,-8607,1745142811301634417
683487,-286,222,4279,6565,-3807,-8680,1745142811301634417
683679,-229,204,4371,6593,-3724,-8725,1745142811301634417
683871,-180,194,4453,6664,-3655,-8665,1745142811301634417
684063,-146,185,4527,6752,-3620,-8538,1745142811301634417
684255,-130,175,4590,6746,-3470,-8353,1745142811301634417
684447,-133,165,4640,6775,-3309,-8207,1745142811301634417
684639,-163,156,4669,6765,-3069,-8148,1745142811301634417
684831,-224,149,4691,6755,-2826,-8135,1745142811301634417
685023,-295,149,4713,6713,-2549,-8136,1745142811301634417
685215,-370,155,4739,6730,-2235,-8167,1745142811301634417
685407,-450,167,4764,6749,-1887,-8185,1745142811361208613
685599,-531,181,4792,6801,-1564,-8233,1745142811361208613
685791,-611,195,4824,6896,-1221,-8359,1745142811361208613
685983,-694,212,4857,6954,-876,-8492,1745142811361208613
686175,-769,241,4892,6970,-482,-8509,1745142811361208613
686367,-833,276,4927,7052,-124,-8486,1745142811361208613
686559,-885,305,4955,7141,214,-8245,1745142811361208613
686751,-926,314,4977,7306,399,-8168,1745142811361208613
686943,-945,312,4993,7364,624,-7935,1745142811361208613
687135,-959,311,5017,7365,785,-7680,1745142811361208613
687327,-947,315,5046,7378,954,-7402,1745142811361208613
687519,-914,319,5066,7470,1116,-7124,1745142811361208613
687711,-873,309,5068,7602,1279,-6882,1745142811419757036
687903,-823,289,5052,7736,1451,-6673,1745142811419757036
688095,-758,265,5025,7750,1656,-6518,1745142811419757036
688287,-679,250,4993,7749,1947,-6467,1745142811419757036
688479,-601,243,4958,7760,2246,-6399,1745142811419757036
688671,-531,241,4920,7783,2523,-6324,1745142811419757036
688863,-473,246,4879,7803,2752,-6279,1745142811419757036
689055,-428,254,4838,7797,2921,-6225,1745142811419757036
689247,-404,269,4799,7690,3014,-6165,1745142811419757036
689439,-399,291,4777,7531,3159,-6051,1745142811419757036
689631,-419,321,4776,7328,3125,-6041,1745142811419757036
689823,-459,351,4772,7074,3070,-5945,1745142811419757036
690015,-511,381,4765,6809,2930,-5823,1745142811478006765
690207,-577,415,4748,6577,2787,-5692,1745142811478006765
690399,-666,454,4715,6390,2605,-5562,1745142811478006765
690591,-773,498,4671,6248,2426,-5408,1745142811478006765
690783,-885,537,4626,6170,2259,-5162,1745142811478006765
690975,-1003,562,4575,6134,2094,-4882,1745142811478006765
691167,-1107,573,4523,6102,2003,-4650,1745142811478006765
691359,-1186,578,4461,6058,2055,-4517,1745142811478006765
691551,-1251,588,4379,5973,2270,-4566,1745142811478006765
691743,-1308,606,4278,5855,2535,-4801,1745142811478006765
691935,-1337,624,4151,5753,2876,-5130,1745142811478006765
692127,-1332,631,4029,5605,3370,-5361,1745142811478006765
692319,-1287,625,3933,5482,3696,-5545,1745142811536562688
692511,-1202,607,3813,5325,3891,-5647,1745142811536562688
692703,-1091,575,3677,5030,4294,-5602,1745142811536562688
692895,-980,536,3600,4793,4364,-5451,1745142811536562688
693087,-862,490,3525,4566,4316,-5383,1745142811536562688
693279,-746,446,3435,4314,4203,-5363,1745142811536562688
693471,-646,402,3335,3983,4106,-5362,1745142811536562688
693663,-564,355,3246,3697,3826,-5338,1745142811536562688
693855,-489,311,3123,3355,3670,-5362,1745142811536562688
694047,-434,275,3000,2989,3608,-5428,1745142811536562688
694239,-396,243,2893,2644,3532,-5481,1745142811536562688
694431,-372,219,2785,2335,3454,-5537,1745142811536562688
694623,-364,195,2677,2081,3391,-5597,1745142811599757736
694815,-368,177,2570,1871,3348,-5711,1745142811599757736
695007,-387,160,2475,1675,3340,-5738,1745142811599757736
695199,-406,148,2394,1555,3166,-5645,1745142811599757736
695391,-423,133,2292,1424,3093,-5545,1745142811599757736
695583,-432,120,2183,1283,3031,-5521,1745142811599757736
695775,-431,101,2071,1160,2907,-5616,1745142811599757736
695967,-418,72,1944,1021,2904,-5847,1745142811599757736
696159,-401,44,1833,850,2955,-6049,1745142811599757736
696351,-382,23,1740,714,2972,-6222,1745142811599757736
696543,-370,12,1643,537,3093,-6421,1745142811599757736
696735,-364,14,1553,418,3250,-6548,1745142811599757736
696927,-367,32,1485,366,3218,-6601,1745142811655615663
697311,-356,66,1338,371,3012,-6683,1745142811655615663
697503,-348,72,1272,414,2847,-6750,1745142811655615663
697695,-345,69,1210,425,2724,-6861,1745142811655615663
697887,-351,65,1151,389,2644,-7011,1745142811655615663
698079,-358,64,1100,327,2581,-7171,1745142811655615663
698271,-360,64,1056,299,2557,-7294,1745142811655615663
698463,-354,65,1010,244,2576,-7374,1745142811655615663
698655,-341,68,966,184,2641,-7463,1745142811655615663
698847,-322,73,923,126,2701,-7463,1745142811655615663
699039,-299,80,879,105,2680,-7441,1745142811655615663
699231,-272,90,835,109,2584,-7412,1745142811655615663
699423,-238,104,795,164,2397,-7361,1745142811718605973
699615,-202,110,758,190,2227,-7265,1745142811718605973
699807,-176,95,721,242,2086,-7247,1745142811718605973
699999,-164,79,687,375,2018,-7545,1745142811718605973
700191,-174,111,658,359,1938,-7473,1745142811718605973
700383,-183,121,626,336,1859,-7368,1745142811718605973
700575,-183,105,592,304,1836,-7407,1745142811718605973
700767,-182,92,559,246,1857,-7484,1745142811718605973
700959,-182,81,525,163,1891,-7560,1745142811718605973
701151,-185,79,492,60,1938,-7639,1745142811718605973
701343,-181,80,464,5,1961,-7689,1745142811718605973
701535,-172,84,438,-33,1960,-7742,1745142811718605973
701727,-160,93,415,-52,1929,-7738,1745142811780543949
701919,-152,105,393,-11,1864,-7734,1745142811780543949
702111,-144,119,371,41,1831,-7787,1745142811780543949
702303,-136,133,346,97,1767,-7805,1745142811780543949
702495,-127,144,319,179,1712,-7785,1745142811780543949
702687,-118,150,291,237,1616,-7840,1745142811780543949
702879,-108,150,262,302,1565,-7854,1745142811780543949
703071,-94,146,233,337,1505,-7893,1745142811780543949
703263,-79,139,201,354,1493,-7936,1745142811780543949
703455,-66,131,165,328,1433,-7982,1745142811780543949
703647,-52,125,129,305,1333,-7976,1745142811780543949
703839,-34,121,95,269,1195,-7952,1745142811780543949
704031,-12,121,72,261,1064,-7964,1745142811832159936
704223,7,128,54,257,924,-7990,1745142811832159936
704415,23,140,42,272,790,-8041,1745142811832159936
704607,35,150,34,279,674,-8077,1745142811832159936
704799,49,154,26,294,560,-8116,1745142811832159936
704991,65,153,21,320,501,-8144,1745142811832159936
705183,78,151,19,330,491,-8192,1745142811832159936
705375,89,150,20,349,504,-8215,1745142811832159936
705567,99,151,22,370,514,-8215,1745142811832159936
705759,114,153,23,395,487,-8215,1745142811832159936
705951,128,157,24,450,408,-8245,1745142811832159936
706143,142,157,24,526,308,-8265,1745142811832159936
706335,150,151,22,594,207,-8317,1745142811897428610
706527,148,140,16,637,93,-8338,1745142811897428610
706719,134,120,11,666,-6,-8342,1745142811897428610
706911,110,95,8,652,-101,-8334,1745142811897428610
707103,81,73,7,632,-178,-8327,1745142811897428610
707295,46,58,7,578,-208,-8303,1745142811897428610
707487,10,50,10,511,-225,-8282,1745142811897428610
707679,-27,48,12,472,-204,-8285,1745142811897428610
707871,-59,50,15,433,-191,-8279,1745142811897428610
708063,-83,53,17,401,-149,-8304,1745142811897428610
708255,-103,58,20,405,-106,-8310,1745142811897428610
708447,-120,65,23,447,-56,-8324,1745142811897428610
708639,-131,70,27,493,-40,-8289,1745142811949090482
708639,-131,70,27,493,-40,-8289,1745142811949090482
709023,-133,61,33,585,54,-8170,1745142811949090482
709215,-131,54,38,621,86,-8137,1745142811949090482
709407,-129,49,42,629,141,-8078,1745142811949090482
709599,-124,45,44,619,199,-8079,1745142811949090482
709791,-119,41,42,611,240,-8120,1745142811949090482
709983,-111,36,37,595,304,-8068,1745142811949090482
710175,-100,31,31,559,273,-8048,1745142811949090482
710367,-86,27,26,529,231,-8084,1745142811949090482
710559,-71,26,20,516,205,-8096,1745142811949090482
710751,-60,31,16,482,170,-8131,1745142811949090482
710943,-53,37,11,473,149,-8148,1745142812014341709
711135,-51,44,7,496,130,-8164,1745142812014341709
711327,-45,47,3,470,125,-8163,1745142812014341709
711519,-36,49,1,482,167,-8178,1745142812014341709
711711,-29,51,1,479,196,-8171,1745142812014341709
711903,-28,55,-2,493,239,-8180,1745142812014341709
712095,-25,60,-5,523,223,-8195,1745142812014341709
712287,-17,64,-6,564,211,-8165,1745142812014341709
712479,-10,66,-6,609,206,-8160,1745142812014341709
712671,-7,65,-6,641,173,-8171,1745142812014341709
712863,-10,62,-8,669,166,-8148,1745142812014341709
713055,-16,56,-11,677,134,-8176,1745142812014341709
713247,-22,51,-17,675,99,-8221,1745142812072904039
713631,-30,39,-25,623,161,-8245,1745142812072904039
713823,-35,30,-32,556,220,-8202,1745142812072904039
714015,-40,23,-41,527,247,-8135,1745142812072904039
714207,-41,19,-50,505,265,-8067,1745142812072904039
714399,-37,19,-59,492,251,-8005,1745142812072904039
714591,-32,23,-69,497,233,-8013,1745142812072904039
714783,-26,28,-82,526,209,-7996,1745142812072904039
714975,-22,30,-96,587,197,-7962,1745142812072904039
715167,-19,29,-111,627,153,-7966,1745142812072904039
715359,-18,26,-124,642,95,-8009,1745142812072904039
715551,-19,22,-132,671,95,-8049,1745142812072904039
715743,-22,18,-141,677,56,-8057,1745142812136347782
715935,-29,13,-148,668,15,-8038,1745142812136347782
716127,-31,8,-153,646,-43,-8026,1745142812136347782
716319,-29,8,-153,634,-92,-7979,1745142812136347782
716511,-29,12,-149,594,-141,-7998,1745142812136347782
716703,-30,21,-143,592,-127,-8040,1745142812136347782
716895,-26,30,-137,591,-156,-8095,1745142812136347782
717087,-17,39,-129,615,-109,-8072,1745142812136347782
717279,-9,47,-123,630,-109,-8083,1745142812136347782
717471,1,52,-117,674,-123,-8103,1745142812136347782
717663,13,56,-112,690,-130,-8146,1745142812136347782
717855,29,57,-110,701,-178,-8190,1745142812136347782
718047,42,55,-108,676,-184,-8221,1745142812194358502
718239,53,53,-105,669,-209,-8238,1745142812194358502
718431,62,51,-102,666,-215,-8220,1745142812194358502
718623,67,51,-99,666,-230,-8202,1745142812194358502
718815,74,54,-97,646,-244,-8166,1745142812194358502
719007,80,56,-95,654,-241,-8123,1745142812194358502
719199,87,55,-97,672,-278,-8103,1745142812194358502
719391,94,54,-100,700,-311,-8057,1745142812194358502
719583,101,51,-104,725,-381,-8053,1745142812194358502
719775,103,46,-108,760,-438,-8073,1745142812194358502
719967,99,40,-111,781,-465,-8089,1745142812194358502
720159,86,29,-115,770,-484,-8075,1745142812194358502
720351,68,17,-117,746,-546,-8066,1745142812252992706
720543,46,5,-117,703,-601,-8006,1745142812252992706
720735,22,-4,-116,660,-633,-7944,1745142812252992706
720927,-4,-7,-112,623,-659,-7939,1745142812252992706
721119,-32,-4,-107,567,-668,-7953,1745142812252992706
721311,-56,3,-101,536,-605,-7940,1745142812252992706
721503,-74,13,-93,534,-541,-7953,1745142812252992706
721695,-85,26,-86,548,-432,-7966,1745142812252992706
721887,-90,39,-79,593,-319,-7953,1745142812252992706
722079,-84,53,-73,641,-223,-7953,1745142812252992706
722271,-69,62,-70,719,-163,-7942,1745142812252992706
722463,-44,67,-68,779,-176,-7937,1745142812252992706
722655,-14,65,-69,847,-170,-7916,1745142812311216445
722847,12,58,-71,872,-176,-7875,1745142812311216445
723039,32,49,-74,856,-198,-7840,1745142812311216445
723231,45,40,-75,807,-199,-7849,1745142812311216445
723423,52,37,-75,722,-216,-7842,1745142812311216445
723615,58,39,-74,645,-243,-7875,1745142812311216445
723807,61,42,-74,582,-232,-7902,1745142812311216445
723999,59,49,-76,543,-254,-7888,1745142812311216445
724191,54,60,-77,548,-294,-7923,1745142812311216445
724383,50,74,-76,587,-384,-7961,1745142812311216445
724575,50,87,-73,622,-437,-8014,1745142812311216445
724767,50,99,-69,689,-442,-8069,1745142812311216445
724959,46,106,-64,745,-391,-8131,1745142812370019866
725151,43,109,-60,810,-309,-8186,1745142812370019866
725343,49,111,-55,844,-239,-8186,1745142812370019866
725535,63,108,-52,886,-220,-8185,1745142812370019866
725727,82,101,-51,916,-237,-8193,1745142812370019866
725919,103,92,-51,912,-253,-8206,1745142812370019866
726111,120,80,-53,892,-316,-8203,1745142812370019866
726303,130,70,-55,831,-361,-8182,1745142812370019866
726495,134,63,-56,809,-427,-8151,1745142812370019866
726687,131,60,-54,759,-506,-8142,1745142812370019866
726879,126,62,-55,741,-542,-8138,1745142812370019866
727071,118,64,-56,727,-582,-8171,1745142812370019866
727263,107,64,-61,730,-584,-8181,1745142812428233241
727455,94,63,-65,768,-622,-8174,1745142812428233241
727647,78,60,-69,771,-637,-8190,1745142812428233241
727839,63,57,-72,801,-644,-8216,1745142812428233241
728031,51,55,-71,801,-632,-8243,1745142812428233241
728223,37,52,-68,798,-592,-8264,1745142812428233241
728415,25,49,-66,826,-576,-8278,1745142812428233241
728607,18,46,-63,829,-549,-8288,1745142812428233241
728799,19,44,-60,842,-524,-8292,1745142812428233241
728991,24,42,-57,850,-525,-8303,1745142812428233241
729183,32,37,-56,846,-514,-8311,1745142812428233241
729375,39,35,-58,854,-524,-8301,1745142812428233241
729567,42,31,-60,854,-572,-8301,1745142812486952235
729759,45,27,-61,842,-598,-8291,1745142812486952235
729951,45,25,-61,847,-634,-8277,1745142812486952235
730143,42,24,-60,859,-622,-8259,1745142812486952235
730335,36,22,-59,863,-580,-8202,1745142812486952235
730527,29,20,-58,851,-588,-8176,1745142812486952235
730719,22,17,-59,825,-600,-8152,1745142812486952235
730911,20,14,-58,816,-625,-8128,1745142812486952235
731103,21,11,-58,808,-636,-8119,1745142812486952235
731295,17,10,-57,804,-631,-8120,1745142812486952235
731487,11,11,-56,782,-651,-8161,1745142812486952235
731679,6,15,-54,809,-649,-8172,1745142812486952235
731871,3,17,-51,815,-669,-8176,1745142812545489565
732063,0,15,-47,833,-685,-8142,1745142812545489565
732255,-2,12,-43,829,-672,-8138,1745142812545489565
732447,-3,13,-40,853,-635,-8122,1745142812545489565
732639,-4,15,-36,863,-616,-8113,1745142812545489565
732831,-5,16,-32,879,-616,-8099,1745142812545489565
733023,-6,15,-29,883,-618,-8070,1745142812545489565
733215,-3,13,-26,869,-614,-8063,1745142812545489565
733407,0,10,-24,855,-627,-8095,1745142812545489565
733599,0,8,-22,840,-610,-8090,1745142812545489565
733791,-4,7,-21,816,-597,-8099,1745142812545489565
733983,-9,8,-21,796,-561,-8084,1745142812545489565
734175,-15,10,-19,775,-545,-8072,1745142812600229013
734367,-18,13,-18,782,-513,-8071,1745142812600229013
734559,-18,15,-19,777,-536,-8089,1745142812600229013
734751,-15,15,-20,800,-547,-8062,1745142812600229013
734943,-11,15,-20,802,-549,-8051,1745142812600229013
735135,-9,17,-19,841,-570,-8053,1745142812600229013
735327,-11,19,-17,850,-573,-8040,1745142812600229013
735519,-11,19,-14,867,-540,-8062,1745142812600229013
735711,-9,17,-12,845,-534,-8031,1745142812600229013
735903,-8,15,-11,852,-524,-8019,1745142812600229013
736095,-9,14,-11,841,-558,-8027,1745142812600229013
736287,-9,14,-12,821,-588,-8024,1745142812600229013
736479,-12,14,-14,812,-600,-8046,1745142812662044386
736671,-17,14,-16,781,-582,-8065,1745142812662044386
736863,-24,15,-17,745,-546,-8061,1745142812662044386
737055,-28,15,-17,737,-522,-8073,1745142812662044386
737247,-28,16,-16,716,-487,-8061,1745142812662044386
737439,-25,17,-15,706,-446,-8060,1745142812662044386
737631,-21,18,-13,725,-396,-8072,1745142812662044386
737823,-15,20,-12,749,-390,-8058,1745142812662044386
738015,-6,22,-10,767,-395,-8062,1745142812662044386
738207,2,23,-7,806,-406,-8083,1745142812662044386
738399,7,24,-3,807,-409,-8105,1745142812662044386
738591,9,25,0,833,-446,-8132,1745142812662044386
738783,10,24,1,835,-488,-8146,1745142812720409009
738975,12,23,1,829,-515,-8146,1745142812720409009
739167,11,22,2,829,-531,-8150,1745142812720409009
739359,9,21,2,816,-540,-8161,1745142812720409009
739551,5,21,1,807,-509,-8152,1745142812720409009
739743,0,20,1,795,-475,-8152,1745142812720409009
739935,-5,20,0,780,-442,-8136,1745142812720409009
740127,-8,19,0,801,-428,-8078,1745142812720409009
740319,-9,19,2,801,-423,-8032,1745142812720409009
740511,-9,16,3,808,-406,-8024,1745142812720409009
740703,-10,14,1,790,-386,-8019,1745142812720409009
740895,-10,14,0,791,-400,-8001,1745142812720409009
741087,-12,11,-3,809,-431,-7989,1745142812775944127
741279,-16,11,-5,802,-492,-7981,1745142812775944127
741471,-19,11,-6,815,-525,-7996,1745142812775944127
741663,-25,11,-5,801,-553,-8039,1745142812775944127
741855,-33,9,-4,797,-519,-8064,1745142812775944127
742047,-39,7,-1,780,-477,-8077,1745142812775944127
742239,-40,7,4,753,-421,-8087,1745142812775944127
742431,-37,10,11,739,-361,-8088,1745142812775944127
742623,-30,16,16,749,-304,-8091,1745142812775944127
742815,-18,21,20,759,-302,-8088,1745142812775944127
743007,-6,25,22,815,-323,-8082,1745142812775944127
743199,4,25,22,850,-350,-8066,1745142812775944127
743391,10,22,20,856,-388,-8046,1745142812837086016
743583,9,19,20,856,-409,-8049,1745142812837086016
743775,3,16,19,836,-413,-8053,1745142812837086016
743967,-5,14,17,818,-409,-8050,1745142812837086016
744159,-12,14,14,784,-392,-8023,1745142812837086016
744351,-18,15,11,775,-346,-8036,1745142812837086016
744543,-22,18,8,760,-327,-8065,1745142812837086016
744735,-21,21,5,769,-282,-8084,1745142812837086016
744927,-17,25,4,790,-243,-8107,1745142812837086016
745119,-9,26,1,836,-229,-8116,1745142812837086016
745311,2,23,0,866,-239,-8123,1745142812837086016
745503,13,19,0,881,-270,-8118,1745142812837086016
745695,23,15,-2,866,-279,-8099,1745142812895840792
745887,29,11,-2,868,-294,-8097,1745142812895840792
746079,32,8,-4,845,-308,-8072,1745142812895840792
746271,31,7,-6,852,-322,-8049,1745142812895840792
746463,28,6,-7,829,-354,-8043,1745142812895840792
746655,26,8,-7,832,-386,-8025,1745142812895840792
746847,23,9,-7,832,-367,-7994,1745142812895840792
747039,13,8,-8,840,-367,-7972,1745142812895840792
747231,2,8,-9,827,-381,-8003,1745142812895840792
747423,-6,8,-10,805,-431,-8008,1745142812895840792
747615,-10,10,-10,799,-429,-8024,1745142812895840792
747807,-15,12,-10,804,-416,-8020,1745142812895840792
747999,-22,15,-10,785,-373,-8053,1745142812954350987
748191,-27,19,-10,806,-322,-8043,1745142812954350987
748383,-27,22,-8,811,-285,-8051,1745142812954350987
748575,-22,23,-8,827,-250,-8059,1745142812954350987
748767,-14,24,-8,848,-222,-8041,1745142812954350987
748959,-5,26,-8,871,-244,-8051,1745142812954350987
749151,2,25,-9,879,-267,-8075,1745142812954350987
749343,8,24,-10,897,-287,-8069,1745142812954350987
749535,12,23,-11,882,-299,-8092,1745142812954350987
749727,16,23,-14,886,-300,-8110,1745142812954350987
749919,18,24,-16,870,-309,-8107,1745142812954350987
750111,19,24,-19,911,-355,-8084,1745142812954350987
750303,18,21,-22,889,-399,-8079,1745142813012384311
750495,18,17,-24,901,-417,-8044,1745142813012384311
750687,17,14,-23,890,-407,-8019,1745142813012384311
750879,11,12,-22,874,-416,-8016,1745142813012384311
751071,3,11,-20,862,-408,-8024,1745142813012384311
751263,-3,11,-17,845,-422,-7996,1745142813012384311
751455,-5,11,-14,848,-436,-8014,1745142813012384311
751647,-9,10,-12,870,-461,-8023,1745142813012384311
751839,-14,11,-13,869,-467,-8065,1745142813012384311
752031,-18,12,-13,863,-482,-8113,1745142813012384311
752223,-22,14,-12,847,-460,-8153,1745142813012384311
752415,-24,15,-10,836,-413,-8154,1745142813012384311
752607,-25,17,-10,843,-344,-8146,1745142813071002838
752799,-24,18,-10,851,-305,-8127,1745142813071002838
752991,-17,21,-12,861,-307,-8102,1745142813071002838
753183,-9,21,-14,875,-303,-8082,1745142813071002838
753375,0,19,-18,871,-309,-8062,1745142813071002838
753567,4,18,-21,887,-327,-8055,1745142813071002838
753759,5,18,-26,903,-343,-8039,1745142813071002838
753951,5,17,-28,887,-395,-8045,1745142813071002838
754143,7,16,-28,894,-411,-8052,1745142813071002838
754335,8,16,-27,896,-406,-8077,1745142813071002838
754527,7,15,-27,873,-428,-8097,1745142813071002838
754719,4,16,-26,876,-425,-8114,1745142813071002838
754911,4,17,-25,883,-435,-8095,1745142813131664419
755103,6,18,-24,896,-432,-8081,1745142813131664419
755295,6,19,-22,908,-420,-8097,1745142813131664419
755487,6,19,-21,925,-425,-8097,1745142813131664419
755679,8,18,-20,929,-395,-8103,1745142813131664419
755871,10,15,-20,936,-362,-8095,1745142813131664419
756063,12,12,-22,923,-350,-8071,1745142813131664419
756255,14,10,-24,921,-359,-8081,1745142813131664419
756447,19,9,-27,915,-376,-8082,1745142813131664419
756639,22,7,-29,918,-398,-8081,1745142813131664419
756831,21,4,-34,912,-420,-8078,1745142813131664419
757023,17,1,-37,895,-439,-8081,1745142813131664419
757215,13,-1,-37,865,-452,-8087,1745142813186419752
757407,9,-1,-35,836,-444,-8087,1745142813186419752
757599,6,4,-32,844,-440,-8089,1745142813186419752
757791,4,12,-31,839,-441,-8097,1745142813186419752
757983,3,19,-28,897,-461,-8091,1745142813186419752
758175,3,21,-27,944,-518,-8075,1745142813186419752
758367,1,18,-27,967,-584,-8084,1745142813186419752
758559,0,13,-23,970,-625,-8092,1745142813186419752
758751,-2,8,-19,944,-602,-8116,1745142813186419752
758943,-8,6,-15,897,-522,-8124,1745142813186419752
759135,-14,6,-10,868,-466,-8110,1745142813186419752
759327,-14,10,-6,853,-431,-8094,1745142813186419752
759519,-9,16,-1,869,-443,-8093,1745142813246598213
759711,0,20,-1,896,-454,-8104,1745142813246598213
759903,6,19,-1,938,-475,-8085,1745142813246598213
760095,6,15,-6,943,-458,-8096,1745142813246598213
760287,3,9,-11,917,-458,-8116,1745142813246598213
760479,1,7,-13,903,-420,-8145,1745142813246598213
760671,0,8,-15,874,-401,-8137,1745142813246598213
760863,2,9,-17,891,-380,-8142,1745142813246598213
761055,7,8,-18,884,-357,-8131,1745142813246598213
761247,14,8,-19,902,-346,-8103,1745142813246598213
761439,21,8,-22,917,-365,-8082,1745142813246598213
761631,27,7,-24,935,-370,-8065,1745142813246598213
761823,33,5,-25,944,-403,-8060,1745142813305931577
762015,39,3,-25,956,-427,-8060,1745142813305931577
762207,42,2,-24,955,-475,-8054,1745142813305931577
762399,39,-1,-24,942,-499,-8049,1745142813305931577
762591,34,-4,-24,934,-519,-8049,1745142813305931577
762783,28,-8,-25,887,-513,-8058,1745142813305931577
762975,21,-9,-28,852,-538,-8078,1745142813305931577
763167,14,-9,-30,809,-549,-8080,1745142813305931577
763359,9,-7,-32,806,-552,-8098,1745142813305931577
763551,2,-1,-31,814,-542,-8075,1745142813305931577
763743,-6,5,-30,845,-565,-8062,1745142813305931577
763935,-13,9,-29,890,-587,-8075,1745142813305931577
764127,-17,10,-26,905,-604,-8064,1745142813362096064
764319,-18,8,-22,938,-564,-8081,1745142813362096064
764511,-21,4,-18,942,-491,-8087,1745142813362096064
764703,-24,1,-14,912,-475,-8089,1745142813362096064
764895,-22,-1,-11,911,-456,-8088,1745142813362096064
765087,-14,0,-7,920,-466,-8096,1745142813362096064
765279,-4,-1,-6,895,-494,-8101,1745142813362096064
765471,3,-3,-5,885,-487,-8113,1745142813362096064
765663,6,-4,-7,860,-471,-8131,1745142813362096064
765855,5,-1,-9,865,-465,-8139,1745142813362096064
766047,6,2,-10,850,-449,-8124,1745142813362096064
766239,9,4,-11,852,-447,-8107,1745142813362096064
766431,13,5,-13,879,-440,-8096,1745142813421918434
766623,14,5,-14,879,-437,-8062,1745142813421918434
766815,16,3,-18,883,-456,-8054,1745142813421918434
767007,16,0,-19,900,-491,-8034,1745142813421918434
767199,15,-3,-21,893,-536,-8028,1745142813421918434
767391,11,-6,-23,896,-558,-8034,1745142813421918434
767583,4,-8,-23,891,-550,-8048,1745142813421918434
767775,-3,-9,-23,867,-550,-8043,1745142813421918434
767967,-11,-11,-23,862,-540,-8046,1745142813421918434
768159,-17,-13,-22,856,-553,-8045,1745142813421918434
768351,-21,-14,-21,860,-558,-8037,1745142813421918434
768543,-24,-14,-19,851,-550,-8036,1745142813421918434
768735,-29,-14,-18,841,-530,-8025,1745142813480294515
768927,-31,-12,-15,835,-500,-8023,1745142813480294515
769119,-29,-8,-11,827,-465,-8044,1745142813480294515
769311,-26,-4,-8,840,-433,-8041,1745142813480294515
769503,-19,-1,-6,849,-419,-8050,1745142813480294515
769695,-10,0,-5,866,-421,-8057,1745142813480294515
769887,0,0,-5,879,-433,-8063,1745142813480294515
770079,7,0,-4,865,-452,-8062,1745142813480294515
770271,11,-1,-4,845,-489,-8061,1745142813480294515
770463,14,-2,-3,811,-510,-8055,1745142813480294515
770655,15,-2,-1,794,-508,-8040,1745142813480294515
770847,13,2,3,791,-518,-8019,1745142813480294515
771039,9,8,5,793,-520,-8010,1745142813538595337
771231,6,11,7,826,-504,-8017,1745142813538595337
771423,6,12,7,862,-496,-8013,1745142813538595337
771615,6,12,7,892,-473,-8028,1745142813538595337
771807,5,10,6,916,-474,-8040,1745142813538595337
771999,2,9,6,924,-476,-8055,1745142813538595337
772191,2,7,6,925,-483,-8087,1745142813538595337
772383,1,5,6,915,-470,-8107,1745142813538595337
772575,0,3,6,904,-451,-8101,1745142813538595337
772767,-1,-1,3,878,-441,-8076,1745142813538595337
772959,-2,-2,2,851,-460,-8057,1745142813538595337
773151,-2,-2,0,822,-471,-8045,1745142813538595337
773343,-2,-2,0,817,-470,-8059,1745142813597264332
773535,-5,-2,0,823,-468,-8048,1745142813597264332
773727,-8,0,-1,820,-468,-8038,1745142813597264332
773919,-9,1,0,822,-457,-8062,1745142813597264332
774111,-10,3,0,834,-457,-8075,1745142813597264332
774303,-10,2,0,860,-430,-8073,1745142813597264332
774495,-10,1,-1,850,-417,-8074,1745142813597264332
774687,-11,-1,-2,845,-411,-8079,1745142813597264332
774879,-11,0,-2,846,-383,-8073,1745142813597264332
775071,-11,-1,-3,854,-403,-8063,1745142813597264332
775263,-12,-1,-5,853,-431,-8028,1745142813597264332
775455,-13,-1,-7,875,-453,-8014,1745142813597264332
775647,-14,-1,-8,865,-471,-7999,1745142813655356406
775839,-15,1,-8,855,-447,-8041,1745142813655356406
776031,-18,3,-9,854,-420,-8091,1745142813655356406
776223,-20,4,-12,844,-371,-8088,1745142813655356406
776415,-16,5,-14,831,-361,-8065,1745142813655356406
776607,-8,4,-14,835,-370,-8050,1745142813655356406
776799,2,3,-14,848,-431,-8043,1745142813655356406
776991,12,4,-13,867,-446,-8062,1745142813655356406
777183,17,4,-13,854,-448,-8071,1745142813655356406
777375,16,4,-12,862,-417,-8086,1745142813655356406
777567,12,4,-11,864,-421,-8087,1745142813655356406
777759,10,4,-9,859,-451,-8076,1745142813655356406
777951,10,3,-6,871,-506,-8055,1745142813713956287
778143,10,1,-6,887,-533,-8065,1745142813713956287
778335,8,0,-6,870,-556,-8087,1745142813713956287
778527,0,-1,-8,852,-521,-8107,1745142813713956287
778719,-10,-3,-10,853,-477,-8097,1745142813713956287
778911,-19,-2,-10,833,-468,-8085,1745142813713956287
779103,-23,-1,-8,828,-463,-8072,1745142813713956287
779295,-23,2,-7,844,-463,-8051,1745142813713956287
779487,-22,4,-8,876,-457,-8057,1745142813713956287
779679,-23,3,-11,890,-438,-8071,1745142813713956287
779871,-25,0,-14,894,-425,-8083,1745142813713956287
780063,-23,-3,-15,872,-393,-8076,1745142813713956287
780255,-17,-4,-14,862,-384,-8068,1745142813769370364
780447,-9,-3,-12,836,-369,-8037,1745142813769370364
780639,-2,-1,-12,819,-372,-8056,1745142813769370364
780831,4,1,-13,818,-397,-8046,1745142813769370364
781023,7,4,-14,848,-449,-8047,1745142813769370364
781215,10,6,-14,848,-493,-8048,1745142813769370364
781407,11,7,-14,846,-499,-8083,1745142813769370364
781599,7,6,-13,842,-497,-8101,1745142813769370364
781791,0,5,-12,838,-467,-8087,1745142813769370364
781983,-4,4,-11,832,-458,-8088,1745142813769370364
782175,-5,5,-8,833,-445,-8097,1745142813769370364
782367,-3,7,-6,853,-450,-8072,1745142813769370364
782559,-3,8,-5,888,-464,-8068,1745142813830534024
782751,-4,7,-6,926,-496,-8067,1745142813830534024
782943,-4,4,-4,925,-528,-8087,1745142813830534024
783135,-4,1,-2,920,-502,-8093,1745142813830534024
783327,-7,-4,1,887,-452,-8103,1745142813830534024
783519,-10,-8,2,836,-372,-8100,1745142813830534024
783711,-10,-8,1,805,-369,-8077,1745142813830534024
783903,-3,-6,-1,790,-379,-8064,1745142813830534024
784095,5,-3,-4,813,-408,-8064,1745142813830534024
784287,10,-1,-9,847,-452,-8055,1745142813830534024
784479,8,2,-14,871,-460,-8062,1745142813830534024
784671,1,2,-18,869,-464,-8059,1745142813830534024
784863,-5,-1,-19,873,-459,-8045,1745142813889458069
785055,-10,-5,-20,861,-445,-8035,1745142813889458069
785247,-12,-7,-20,830,-429,-8024,1745142813889458069
785439,-14,-7,-21,821,-421,-8015,1745142813889458069
785631,-15,-5,-21,803,-452,-8011,1745142813889458069
785823,-15,-3,-21,822,-453,-8004,1745142813889458069
786015,-15,0,-18,833,-464,-8024,1745142813889458069
786207,-15,1,-15,841,-454,-8027,1745142813889458069
786399,-13,2,-13,860,-469,-8012,1745142813889458069
786591,-10,3,-11,865,-505,-8040,1745142813889458069
786783,-7,4,-9,861,-500,-8060,1745142813889458069
786975,-4,5,-8,858,-468,-8056,1745142813889458069
787167,-4,5,-8,847,-457,-8064,1745142813947740922
787359,-3,5,-8,848,-431,-8071,1745142813947740922
787551,0,6,-6,835,-405,-8089,1745142813947740922
787743,5,8,-5,836,-403,-8082,1745142813947740922
787935,13,9,-4,853,-387,-8092,1745142813947740922
788127,17,8,-5,854,-370,-8082,1745142813947740922
788319,22,7,-6,861,-409,-8055,1745142813947740922
788511,25,7,-7,869,-434,-8051,1745142813947740922
788703,27,3,-8,863,-488,-8040,1745142813947740922
788895,26,-2,-10,862,-536,-8027,1745142813947740922
789087,21,-5,-12,831,-579,-8036,1745142813947740922
789279,12,-5,-13,818,-613,-8048,1745142813947740922
789471,3,-2,-13,789,-595,-8073,1745142814006492781
789663,-8,2,-12,787,-557,-8093,1745142814006492781
789855,-17,4,-11,779,-498,-8088,1745142814006492781
790047,-22,6,-8,803,-461,-8064,1745142814006492781
790239,-20,6,-7,812,-439,-8065,1745142814006492781
790431,-14,7,-6,842,-429,-8065,1745142814006492781
790623,-7,6,-7,867,-425,-8055,1745142814006492781
790815,-2,4,-9,897,-432,-8065,1745142814006492781
791007,0,4,-9,910,-465,-8070,1745142814006492781
791199,5,1,-9,915,-467,-8079,1745142814006492781
791391,9,-3,-8,897,-467,-8094,1745142814006492781
791583,9,-6,-8,869,-449,-8077,1745142814006492781
791775,6,-7,-6,843,-451,-8076,1745142814064418294
791967,3,-4,-8,825,-459,-8051,1745142814064418294
792159,1,-3,-11,815,-509,-8068,1745142814064418294
792351,1,-2,-14,807,-537,-8068,1745142814064418294
792543,-1,-2,-17,817,-539,-8062,1745142814064418294
792735,-7,-2,-19,825,-541,-8047,1745142814064418294
792927,-14,-2,-20,809,-512,-8043,1745142814064418294
793119,-18,-3,-20,818,-484,-8046,1745142814064418294
793311,-19,-3,-19,804,-446,-8049,1745142814064418294
793503,-18,-2,-19,822,-427,-8050,1745142814064418294
793695,-15,-2,-19,830,-412,-8058,1745142814064418294
793887,-11,-2,-19,848,-419,-8071,1745142814064418294
794079,-6,-3,-19,843,-417,-8091,1745142814123748533
794271,-3,-2,-18,853,-438,-8080,1745142814123748533
794463,0,-3,-19,868,-466,-8076,1745142814123748533
794655,4,-4,-18,856,-481,-8064,1745142814123748533
794847,7,-6,-18,841,-491,-8067,1745142814123748533
795039,8,-8,-17,797,-488,-8055,1745142814123748533
795231,6,-8,-15,780,-503,-8046,1745142814123748533
795423,4,-5,-13,754,-514,-8022,1745142814123748533
795615,1,-1,-12,747,-537,-8020,1745142814123748533
795807,0,5,-10,773,-556,-8030,1745142814123748533
795999,-2,12,-8,807,-551,-8016,1745142814123748533
796191,-5,14,-7,853,-560,-8030,1745142814123748533
796383,-10,15,-6,891,-549,-8022,1745142814181888054
796575,-14,12,-4,925,-549,-8004,1745142814181888054
796767,-16,8,-2,918,-544,-8008,1745142814181888054
796959,-14,4,-1,904,-537,-8013,1745142814181888054
797151,-12,0,-1,864,-510,-7993,1745142814181888054
797343,-13,-1,-1,831,-503,-8000,1745142814181888054
797535,-16,-1,-1,795,-478,-7992,1745142814181888054
797727,-16,1,1,784,-475,-7993,1745142814181888054
797919,-13,5,3,759,-461,-8004,1745142814181888054
798111,-12,9,4,778,-454,-8011,1745142814181888054
798303,-12,13,4,802,-449,-8016,1745142814181888054
798495,-13,15,2,802,-440,-8048,1745142814181888054
798687,-9,16,1,834,-436,-8061,1745142814240055544
798879,-4,16,-1,842,-390,-8033,1745142814240055544
799071,-1,13,-2,843,-385,-8017,1745142814240055544
799263,1,12,-4,855,-373,-7992,1745142814240055544
799455,4,10,-5,846,-396,-7990,1745142814240055544
799647,6,9,-8,831,-414,-7977,1745142814240055544
799839,5,8,-10,832,-428,-7981,1745142814240055544
800031,3,5,-13,822,-437,-7966,1745142814240055544
800223,-2,5,-16,788,-438,-7972,1745142814240055544
800415,-7,8,-15,781,-449,-7984,1745142814240055544
800607,-11,12,-14,776,-441,-7975,1745142814240055544
800799,-13,16,-13,784,-458,-7988,1745142814240055544
800991,-14,18,-13,805,-473,-7991,1745142814297998035
801183,-15,18,-14,819,-465,-7998,1745142814297998035
801375,-15,19,-15,825,-475,-8007,1745142814297998035
801567,-14,20,-14,830,-478,-7998,1745142814297998035
801759,-12,22,-11,829,-485,-8019,1745142814297998035
801951,-7,23,-8,829,-470,-8021,1745142814297998035
802143,-2,24,-3,818,-422,-8015,1745142814297998035
802335,4,28,0,837,-387,-8022,1745142814297998035
802527,10,31,2,824,-366,-8035,1745142814297998035
802719,18,32,3,848,-386,-8024,1745142814297998035
802911,27,29,3,854,-423,-8028,1745142814297998035
803103,32,27,2,849,-482,-8063,1745142814297998035
803295,32,27,0,862,-519,-8070,1745142814356934163
803487,28,26,-3,832,-512,-8084,1745142814356934163
803679,18,26,-6,827,-501,-8091,1745142814356934163
803871,5,26,-9,854,-497,-8086,1745142814356934163
804063,-2,25,-10,860,-495,-8081,1745142814356934163
804255,-5,24,-11,857,-487,-8075,1745142814356934163
804447,-7,22,-13,879,-460,-8080,1745142814356934163
804639,-11,18,-16,880,-457,-8076,1745142814356934163
804831,-15,13,-18,868,-460,-8079,1745142814356934163
805023,-16,9,-19,865,-450,-8059,1745142814356934163
805215,-16,8,-18,858,-461,-8046,1745142814356934163
805407,-17,7,-17,840,-479,-8025,1745142814356934163
805599,-20,8,-17,840,-483,-8030,1745142814415633731
805791,-22,10,-17,852,-492,-8025,1745142814415633731
805983,-24,13,-16,851,-470,-8054,1745142814415633731
806175,-26,16,-16,850,-439,-8092,1745142814415633731
806367,-25,17,-17,864,-408,-8078,1745142814415633731
806559,-21,17,-17,841,-391,-8090,1745142814415633731
806751,-14,17,-17,838,-397,-8086,1745142814415633731
806943,-3,18,-16,851,-402,-8085,1745142814415633731
807135,6,21,-15,855,-397,-8090,1745142814415633731
807327,11,22,-15,871,-399,-8065,1745142814415633731
807519,14,20,-15,868,-422,-8041,1745142814415633731
807711,18,19,-12,873,-480,-8045,1745142814415633731
807903,23,21,-8,871,-504,-8024,1745142814474024656
808095,23,23,-4,896,-504,-8027,1745142814474024656
808287,18,24,-3,902,-497,-8041,1745142814474024656
808479,10,24,-4,905,-500,-8032,1745142814474024656
808671,5,21,-4,903,-510,-8047,1745142814474024656
808863,4,19,-5,889,-505,-8049,1745142814474024656
809055,2,18,-6,878,-482,-8065,1745142814474024656
809247,0,18,-8,866,-455,-8082,1745142814474024656
809439,-3,19,-11,858,-418,-8075,1745142814474024656
809631,-4,19,-13,873,-417,-8070,1745142814474024656
809823,-2,19,-15,868,-432,-8068,1745142814474024656
810015,2,19,-17,877,-454,-8056,1745142814474024656
810207,7,21,-18,886,-454,-8081,1745142814532482664
810399,9,21,-16,903,-450,-8075,1745142814532482664
810591,10,21,-17,903,-466,-8094,1745142814532482664
810783,11,18,-16,880,-467,-8082,1745142814532482664
810975,13,17,-15,872,-467,-8067,1745142814532482664
811167,15,17,-14,848,-486,-8064,1745142814532482664
811359,14,19,-13,861,-523,-8058,1745142814532482664
811551,10,21,-14,892,-546,-8070,1745142814532482664
811743,5,24,-15,906,-556,-8086,1745142814532482664
811935,0,23,-14,923,-546,-8102,1745142814532482664
812127,-5,22,-15,929,-522,-8112,1745142814532482664
812319,-8,18,-15,918,-459,-8124,1745142814532482664
812511,-8,14,-14,896,-438,-8109,1745142814596359893
812703,-6,12,-13,884,-407,-8089,1745142814596359893
812895,1,13,-11,862,-414,-8088,1745142814596359893
813087,8,14,-10,888,-456,-8076,1745142814596359893
813279,14,16,-10,898,-481,-8086,1745142814596359893
813471,18,17,-9,923,-501,-8077,1745142814596359893
813663,17,16,-8,933,-521,-8088,1745142814596359893
813855,14,15,-7,931,-528,-8092,1745142814596359893
814047,12,13,-7,910,-539,-8090,1745142814596359893
814239,9,13,-7,922,-532,-8092,1745142814596359893
814431,4,13,-9,906,-527,-8093,1745142814596359893
814623,-2,13,-12,908,-522,-8097,1745142814596359893
814815,-7,11,-13,910,-540,-8081,1745142814648079056
815007,-10,10,-14,894,-527,-8079,1745142814648079056
815199,-12,10,-14,885,-511,-8086,1745142814648079056
815391,-14,10,-13,866,-475,-8100,1745142814648079056
815583,-14,12,-12,882,-445,-8114,1745142814648079056
815775,-9,12,-11,882,-433,-8100,1745142814648079056
815967,-2,12,-8,896,-423,-8082,1745142814648079056
816159,6,13,-6,937,-443,-8061,1745142814648079056
816351,11,15,-4,962,-452,-8052,1745142814648079056
816543,13,15,-3,990,-514,-8055,1745142814648079056
816735,11,14,-3,1015,-565,-8048,1745142814648079056
816927,9,10,-4,998,-592,-8060,1745142814648079056
817119,4,6,-4,977,-567,-8080,1745142814708769752
817311,-5,3,-4,917,-556,-8075,1745142814708769752
817503,-13,1,-4,867,-487,-8078,1745142814708769752
817695,-14,2,-5,826,-443,-8085,1745142814708769752
817887,-10,7,-5,791,-417,-8090,1745142814708769752
818079,-5,12,-4,818,-432,-8071,1745142814708769752
818271,3,16,-6,842,-437,-8087,1745142814708769752
818463,12,18,-8,877,-453,-8101,1745142814708769752
818655,19,19,-9,885,-436,-8085,1745142814708769752
818847,22,18,-10,928,-418,-8079,1745142814708769752
819039,24,18,-10,927,-417,-8086,1745142814708769752
819231,25,17,-9,963,-443,-8083,1745142814708769752
819423,27,14,-10,976,-475,-8080,1745142814766854221
