timestamp,gyr_x,gyr_y,gyr_z,acc_x,acc_y,acc_z,pkt_time_ns
100960,149,-148,24,-463,1283,-7435,1745145108784237118
101152,-52,-11,2,-331,1089,-8152,1745145108784237118
101344,-18,-32,10,-590,1221,-7855,1745145108784237118
101536,-66,-24,20,-547,1292,-8005,1745145108784237118
101728,-74,-14,22,-447,1523,-8000,1745145108784237118
101920,-73,-28,20,-425,1622,-8032,1745145108784237118
102112,-87,-25,16,-474,1513,-8063,1745145108784237118
102304,-89,-15,9,-561,1419,-8099,1745145108784237118
102496,-118,-10,8,-616,1405,-8119,1745145108784237118
102688,-141,7,10,-567,1450,-8116,1745145108784237118
102880,-147,15,8,-526,1484,-8148,1745145108784237118
103072,-161,23,5,-530,1532,-8206,1745145108784237118
103264,-160,47,2,-638,1647,-8339,1745145108835070717
103456,-145,71,-2,-673,1758,-8466,1745145108835070717
103648,-108,91,-14,-577,1940,-8588,1745145108835070717
103840,-45,109,-23,-473,2207,-8691,1745145108835070717
104032,15,121,-17,-406,2359,-8714,1745145108835070717
104224,85,133,-5,-299,2582,-8648,1745145108835070717
104416,159,151,6,-316,2647,-8585,1745145108835070717
104608,105,178,2,-779,1693,-7833,1745145108835070717
104800,333,212,28,-18,3715,-8588,1745145108835070717
104992,358,182,6,64,2583,-8065,1745145108835070717
105184,397,205,-13,448,2117,-8781,1745145108835070717
105376,424,397,73,189,1902,-9321,1745145108835070717
105568,371,439,172,-190,1022,-5353,1745145108895614330
105760,232,30,55,450,-865,-6898,1745145108895614330
105952,69,2,-7,-431,-907,-7570,1745145108895614330
106144,-60,46,15,-1026,-628,-7645,1745145108895614330
106336,-162,70,28,-1226,47,-7574,1745145108895614330
106528,-202,112,5,-1050,811,-7906,1745145108895614330
106720,-229,122,-45,-769,1412,-7873,1745145108895614330
106912,-193,128,-82,-480,1847,-7842,1745145108895614330
107104,-139,109,-94,-335,2108,-7801,1745145108895614330
107296,-86,90,-67,-321,2172,-7776,1745145108895614330
107488,-40,69,-32,-353,2004,-7753,1745145108895614330
107680,1,52,-18,-428,1814,-7756,1745145108895614330
107872,27,47,-19,-476,1595,-7781,1745145108953578071
108064,40,46,-26,-492,1426,-7822,1745145108953578071
108256,40,46,-30,-458,1287,-7860,1745145108953578071
108448,28,48,-31,-431,1201,-7905,1745145108953578071
108640,14,46,-29,-389,1200,-7941,1745145108953578071
108832,-2,46,-28,-392,1250,-7961,1745145108953578071
109024,-15,46,-29,-380,1334,-7980,1745145108953578071
109216,-22,45,-31,-360,1396,-7988,1745145108953578071
109408,-26,44,-34,-350,1480,-7980,1745145108953578071
109600,-28,45,-37,-304,1539,-7996,1745145108953578071
109792,-27,43,-38,-275,1587,-8007,1745145108953578071
109984,-25,42,-39,-241,1615,-8017,1745145108953578071
110176,-22,40,-42,-247,1613,-8028,1745145109015278550
110368,-20,38,-44,-237,1615,-8038,1745145109015278550
110560,-20,37,-47,-239,1560,-8049,1745145109015278550
110752,-22,38,-48,-247,1526,-8065,1745145109015278550
110944,-23,39,-50,-261,1483,-8058,1745145109015278550
111136,-26,42,-52,-274,1449,-8069,1745145109015278550
111328,-28,46,-56,-280,1419,-8074,1745145109015278550
111520,-30,50,-60,-302,1406,-8089,1745145109015278550
111712,-31,53,-64,-304,1379,-8085,1745145109015278550
111904,-32,57,-69,-331,1380,-8066,1745145109015278550
112096,-34,61,-73,-357,1366,-8036,1745145109015278550
112288,-36,65,-76,-364,1363,-8019,1745145109015278550
112480,-38,69,-79,-385,1364,-7985,1745145109071860949
112672,-39,71,-82,-388,1366,-7940,1745145109071860949
112864,-41,74,-87,-413,1397,-7891,1745145109071860949
113056,-43,76,-90,-415,1417,-7880,1745145109071860949
113248,-45,78,-93,-407,1447,-7874,1745145109071860949
113440,-47,79,-95,-425,1460,-7890,1745145109071860949
113632,-45,80,-97,-442,1485,-7910,1745145109071860949
113824,-42,80,-100,-443,1497,-7918,1745145109071860949
114016,-37,83,-102,-439,1508,-7932,1745145109071860949
114208,-33,87,-102,-437,1509,-7934,1745145109071860949
114400,-31,91,-102,-431,1520,-7950,1745145109071860949
114592,-28,95,-102,-439,1531,-7955,1745145109071860949
114784,-25,98,-102,-408,1530,-7942,1745145109132242169
114976,-22,102,-101,-419,1533,-7943,1745145109132242169
115168,-20,105,-100,-406,1546,-7952,1745145109132242169
115360,-17,111,-98,-386,1541,-7975,1745145109132242169
115552,-14,115,-97,-358,1555,-7992,1745145109132242169
115744,-12,119,-97,-342,1556,-8004,1745145109132242169
115936,-9,122,-97,-326,1551,-8003,1745145109132242169
116128,-7,125,-97,-292,1543,-8002,1745145109132242169
116320,-5,127,-96,-271,1533,-7991,1745145109132242169
116512,-4,130,-95,-257,1540,-8000,1745145109132242169
116704,-4,129,-93,-237,1538,-8007,1745145109132242169
116896,-4,131,-94,-239,1541,-8001,1745145109132242169
117088,-4,133,-93,-232,1544,-7985,1745145109189566020
117280,-5,134,-92,-212,1536,-7984,1745145109189566020
117472,-7,136,-90,-214,1546,-7971,1745145109189566020
117664,-8,136,-89,-191,1583,-7979,1745145109189566020
117856,-7,136,-88,-191,1586,-8003,1745145109189566020
118048,-4,133,-84,-187,1611,-8017,1745145109189566020
118240,-1,134,-80,-196,1625,-8033,1745145109189566020
118432,0,134,-76,-200,1641,-8046,1745145109189566020
118624,2,134,-72,-205,1630,-8052,1745145109189566020
118816,6,134,-68,-211,1596,-8030,1745145109189566020
119008,8,135,-64,-185,1543,-8005,1745145109189566020
119200,9,134,-59,-174,1512,-7964,1745145109189566020
119392,6,132,-55,-167,1485,-7940,1745145109249497816
119584,1,131,-52,-157,1477,-7912,1745145109249497816
119776,-2,131,-49,-140,1470,-7890,1745145109249497816
119968,-4,130,-47,-152,1489,-7886,1745145109249497816
120160,-4,127,-45,-148,1509,-7908,1745145109249497816
120352,-2,124,-43,-169,1542,-7933,1745145109249497816
120544,1,121,-42,-193,1577,-7961,1745145109249497816
120736,5,119,-42,-211,1607,-7972,1745145109249497816
120928,10,118,-42,-217,1623,-7976,1745145109249497816
121120,12,117,-40,-216,1602,-7984,1745145109249497816
121312,16,117,-38,-178,1591,-7979,1745145109249497816
121504,18,117,-36,-126,1562,-7967,1745145109249497816
121696,19,118,-33,-86,1541,-7970,1745145109306166257
121888,17,118,-31,-35,1531,-7979,1745145109306166257
122080,11,117,-28,-7,1532,-8003,1745145109306166257
122272,5,117,-27,16,1517,-8032,1745145109306166257
122464,2,116,-25,15,1501,-8056,1745145109306166257
122656,-1,119,-22,7,1485,-8094,1745145109306166257
122848,-6,120,-21,32,1485,-8143,1745145109306166257
123040,-17,125,-19,39,1478,-8224,1745145109306166257
123232,-31,132,-18,29,1461,-8267,1745145109306166257
123424,-46,143,-19,-3,1445,-8294,1745145109306166257
123616,-63,157,-21,-26,1444,-8330,1745145109306166257
123808,-78,175,-21,-13,1435,-8362,1745145109306166257
124000,-91,194,-23,11,1444,-8383,1745145109361084818
124192,-102,215,-27,25,1455,-8404,1745145109361084818
124384,-112,237,-32,33,1464,-8450,1745145109361084818
124576,-124,261,-38,23,1456,-8481,1745145109361084818
124768,-137,286,-46,5,1463,-8535,1745145109361084818
124960,-150,313,-54,32,1452,-8585,1745145109361084818
125152,-165,343,-63,55,1455,-8651,1745145109361084818
125344,-183,377,-71,31,1475,-8764,1745145109361084818
125536,-195,417,-82,10,1486,-8901,1745145109361084818
125728,-193,465,-94,-16,1488,-8998,1745145109361084818
125920,-175,523,-106,20,1487,-9110,1745145109361084818
126112,-147,588,-120,94,1457,-9254,1745145109361084818
126304,-111,662,-136,153,1461,-9408,1745145109424675070
126496,-70,741,-153,189,1431,-9591,1745145109424675070
126688,-29,825,-174,298,1369,-9882,1745145109424675070
126880,14,900,-194,575,1245,-10198,1745145109424675070
127072,45,958,-203,924,1053,-10441,1745145109424675070
127264,82,1016,-196,1386,668,-10708,1745145109424675070
127456,140,1038,-169,2094,-43,-10604,1745145109424675070
127648,217,1027,-133,2580,-570,-11003,1745145109424675070
127840,270,1072,-87,2615,-817,-10926,1745145109424675070
128032,328,1109,-28,2727,-1108,-10363,1745145109424675070
128224,380,1054,45,3163,-1513,-10619,1745145109424675070
128416,424,968,156,3525,-2088,-10869,1745145109424675070
128608,447,896,216,4239,-3225,-10470,1745145109483536824
128800,405,781,116,4745,-3365,-10198,1745145109483536824
128992,356,725,96,4925,-3542,-10597,1745145109483536824
129184,329,659,82,4858,-3437,-10359,1745145109483536824
129376,267,586,41,4999,-3389,-10745,1745145109483536824
129568,178,493,25,5310,-3670,-11354,1745145109483536824
129760,73,395,81,5458,-4169,-11115,1745145109483536824
129952,-97,387,263,5757,-5100,-11326,1745145109483536824
130144,-137,301,472,5575,-5854,-11623,1745145109483536824
130336,-98,221,682,4829,-6094,-11620,1745145109483536824
130528,-107,275,892,4057,-6058,-11413,1745145109483536824
130720,-215,422,1122,3839,-5890,-10546,1745145109483536824
130912,-462,615,1464,4789,-6645,-9873,1745145109540461096
131104,-688,642,1953,6082,-7988,-9730,1745145109540461096
131296,-704,509,2464,6725,-8844,-10351,1745145109540461096
131488,-596,377,2869,6899,-9075,-11418,1745145109540461096
131680,-499,316,3143,7041,-9241,-11817,1745145109540461096
131872,-451,271,3348,7300,-9764,-12005,1745145109540461096
132064,-393,189,3577,7580,-10465,-12160,1745145109540461096
132256,-307,90,3841,7647,-10916,-12114,1745145109540461096
132448,-223,25,4063,7526,-10843,-11999,1745145109540461096
132640,-185,9,4183,7382,-10241,-12011,1745145109540461096
132832,-175,27,4242,7526,-9146,-11980,1745145109540461096
133024,-154,56,4325,8038,-7926,-11875,1745145109540461096
133216,-89,52,4467,8719,-6654,-11682,1745145109600121280
133408,6,9,4643,9393,-5556,-11495,1745145109600121280
133600,97,-62,4817,9987,-4661,-11401,1745145109600121280
133792,178,-135,4981,10200,-3909,-11144,1745145109600121280
133984,268,-185,5151,10156,-3337,-10931,1745145109600121280
134176,357,-223,5339,10012,-2914,-10799,1745145109600121280
134368,424,-239,5539,9842,-2603,-10662,1745145109600121280
134560,469,-235,5737,9773,-2393,-10459,1745145109600121280
134752,480,-202,5916,9785,-2289,-10209,1745145109600121280
134944,452,-142,6071,9863,-2207,-10040,1745145109600121280
135136,393,-56,6209,10029,-2075,-9799,1745145109600121280
135328,308,48,6334,10326,-1923,-9452,1745145109600121280
135520,194,157,6437,10735,-1755,-8986,1745145109658553975
135712,60,255,6520,11292,-1585,-8431,1745145109658553975
135904,-85,327,6586,11957,-1387,-7804,1745145109658553975
136096,-239,362,6624,12730,-1119,-7211,1745145109658553975
136288,-401,361,6629,13493,-818,-6638,1745145109658553975
136480,-550,332,6609,14200,-444,-6192,1745145109658553975
136672,-687,275,6574,14951,13,-6062,1745145109658553975
136864,-803,194,6528,15502,669,-5803,1745145109658553975
137056,-895,109,6488,15848,1438,-5787,1745145109658553975
137248,-945,17,6444,16146,2137,-5737,1745145109658553975
137440,-952,-80,6372,16244,2998,-5797,1745145109658553975
137632,-935,-174,6319,16193,3816,-5942,1745145109658553975
137824,-873,-254,6287,16051,4390,-5951,1745145109717460156
138016,-796,-314,6249,15698,5103,-5941,1745145109717460156
138208,-737,-352,6264,15246,5736,-5891,1745145109717460156
138400,-720,-372,6333,14816,5973,-5608,1745145109717460156
138592,-723,-383,6392,14423,5962,-5321,1745145109717460156
138784,-749,-382,6418,13962,5892,-5115,1745145109717460156
138976,-802,-365,6450,13488,5596,-4785,1745145109717460156
139168,-874,-336,6458,13118,5289,-4401,1745145109717460156
139360,-966,-305,6431,12757,5041,-3918,1745145109717460156
139552,-1075,-267,6373,12467,4884,-3614,1745145109717460156
139744,-1187,-237,6283,12178,4800,-3442,1745145109717460156
139936,-1284,-225,6176,11912,4771,-3161,1745145109717460156
140128,-1348,-225,6049,11743,4797,-2797,1745145109773938442
140320,-1370,-236,5905,11541,4947,-2596,1745145109773938442
140512,-1366,-278,5740,11222,5331,-2582,1745145109773938442
140704,-1337,-301,5562,10771,5760,-2659,1745145109773938442
140896,-1275,-312,5380,10363,6156,-2716,1745145109773938442
141088,-1181,-325,5195,9916,6548,-2797,1745145109773938442
141280,-1052,-350,5020,9377,7031,-2855,1745145109773938442
141472,-917,-383,4883,8737,7426,-2881,1745145109773938442
141664,-791,-399,4750,8008,7802,-3042,1745145109773938442
141856,-678,-393,4633,7219,7818,-3160,1745145109773938442
142048,-570,-375,4483,6288,7958,-3278,1745145109773938442
142240,-476,-346,4325,5510,7919,-3443,1745145109773938442
142432,-410,-333,4152,4826,7771,-3660,1745145109833409149
142624,-373,-316,3962,4211,7634,-3766,1745145109833409149
142816,-368,-280,3762,3595,7540,-4030,1745145109833409149
143008,-379,-241,3565,3033,7517,-4313,1745145109833409149
143200,-413,-201,3359,2527,7581,-4560,1745145109833409149
143392,-469,-159,3145,2089,7608,-4800,1745145109833409149
143584,-533,-132,2923,1727,7582,-4876,1745145109833409149
143776,-590,-120,2695,1398,7562,-4938,1745145109833409149
143968,-634,-122,2454,1156,7547,-4963,1745145109833409149
144160,-659,-137,2194,951,7445,-5000,1745145109833409149
144352,-652,-167,1929,782,7181,-5041,1745145109833409149
144544,-614,-211,1676,646,6818,-5000,1745145109833409149
144736,-557,-248,1449,740,6532,-5529,1745145109892646993
144928,-508,-201,1269,706,6109,-5380,1745145109892646993
145120,-465,-174,1117,795,5673,-5313,1745145109892646993
145312,-424,-161,993,963,5246,-5445,1745145109892646993
145504,-395,-150,895,1150,4847,-5464,1745145109892646993
145696,-372,-148,808,1341,4460,-5452,1745145109892646993
145888,-350,-153,734,1457,4159,-5598,1745145109892646993
146080,-322,-153,671,1514,3921,-5766,1745145109892646993
146272,-294,-160,623,1564,3657,-5803,1745145109892646993
146464,-261,-178,592,1593,3430,-5912,1745145109892646993
146656,-233,-194,583,1497,3256,-6148,1745145109892646993
146848,-206,-201,596,1358,3173,-6369,1745145109892646993
147040,-189,-193,620,1207,3156,-6560,1745145109948415338
147232,-184,-170,644,1085,3110,-6712,1745145109948415338
147424,-182,-148,668,997,3034,-6732,1745145109948415338
147616,-174,-131,695,925,2964,-6748,1745145109948415338
147808,-156,-115,723,863,2968,-6769,1745145109948415338
148000,-135,-94,744,801,2929,-6729,1745145109948415338
148192,-113,-74,761,776,2877,-6726,1745145109948415338
148384,-90,-57,773,803,2806,-6742,1745145109948415338
148576,-68,-49,775,855,2680,-6754,1745145109948415338
148768,-53,-48,765,912,2558,-6736,1745145109948415338
148960,-46,-50,736,934,2451,-6712,1745145109948415338
149152,-45,-54,690,915,2394,-6679,1745145109948415338
149344,-45,-62,632,849,2329,-6711,1745145110008769214
149536,-48,-71,565,740,2298,-6816,1745145110008769214
149728,-54,-75,495,634,2268,-6878,1745145110008769214
149920,-61,-74,427,532,2271,-6971,1745145110008769214
150112,-71,-63,366,429,2283,-7088,1745145110008769214
150304,-88,-44,314,378,2304,-7142,1745145110008769214
150496,-107,-18,275,361,2308,-7214,1745145110008769214
150688,-123,12,250,409,2252,-7280,1745145110008769214
150880,-131,38,237,516,2172,-7276,1745145110008769214
151072,-137,58,228,652,2130,-7286,1745145110008769214
151264,-138,69,222,763,2086,-7352,1745145110008769214
151456,-143,73,210,857,2047,-7395,1745145110008769214
151648,-146,68,191,908,1963,-7378,1745145110066769986
151840,-143,55,167,916,1889,-7359,1745145110066769986
152032,-134,41,140,904,1800,-7309,1745145110066769986
152224,-127,30,113,861,1714,-7291,1745145110066769986
152416,-126,18,87,835,1597,-7263,1745145110066769986
152608,-126,6,64,790,1488,-7225,1745145110066769986
152800,-124,0,41,714,1386,-7245,1745145110066769986
152992,-118,-3,17,647,1301,-7300,1745145110066769986
153184,-109,1,-7,541,1260,-7391,1745145110066769986
153376,-97,6,-23,467,1226,-7486,1745145110066769986
153568,-80,20,-36,436,1197,-7598,1745145110066769986
153760,-65,43,-49,439,1172,-7660,1745145110066769986
153952,-47,67,-53,477,1115,-7679,1745145110126835010
154144,-24,88,-50,588,1056,-7718,1745145110126835010
154336,-2,109,-46,703,981,-7751,1745145110126835010
154528,27,126,-46,810,965,-7822,1745145110126835010
154720,58,140,-50,898,950,-7861,1745145110126835010
154912,89,151,-59,972,938,-7869,1745145110126835010
155104,121,160,-67,994,932,-7923,1745145110126835010
155296,154,165,-67,996,896,-7969,1745145110126835010
155488,189,167,-64,975,834,-7988,1745145110126835010
155680,226,167,-67,970,782,-8017,1745145110126835010
155872,260,166,-72,950,689,-8050,1745145110126835010
156064,290,166,-79,975,612,-8096,1745145110126835010
156256,316,165,-86,1001,487,-8146,1745145110182808717
156448,334,163,-92,1024,393,-8254,1745145110182808717
156640,346,161,-96,1047,329,-8301,1745145110182808717
156832,354,158,-99,1073,269,-8344,1745145110182808717
157024,357,151,-102,1131,200,-8356,1745145110182808717
157216,356,141,-106,1196,145,-8347,1745145110182808717
157408,350,127,-113,1239,86,-8370,1745145110182808717
157600,337,112,-120,1262,-5,-8326,1745145110182808717
157792,320,96,-126,1264,-77,-8344,1745145110182808717
157984,299,82,-127,1250,-147,-8349,1745145110182808717
158176,275,72,-127,1208,-176,-8349,1745145110182808717
158368,248,65,-129,1168,-203,-8382,1745145110182808717
158560,214,61,-131,1154,-230,-8440,1745145110243222645
158752,179,58,-131,1167,-289,-8438,1745145110243222645
158944,149,50,-129,1204,-344,-8411,1745145110243222645
159136,122,42,-126,1238,-375,-8376,1745145110243222645
159328,96,37,-123,1255,-389,-8319,1745145110243222645
159520,73,36,-121,1256,-381,-8292,1745145110243222645
159712,55,37,-121,1279,-382,-8301,1745145110243222645
159904,43,36,-121,1279,-392,-8303,1745145110243222645
160096,41,33,-122,1276,-389,-8339,1745145110243222645
160288,40,29,-127,1253,-336,-8363,1745145110243222645
160480,38,26,-133,1224,-300,-8354,1745145110243222645
160672,37,25,-137,1214,-294,-8376,1745145110243222645
160864,42,24,-139,1187,-295,-8389,1745145110299672025
161056,54,22,-138,1170,-267,-8399,1745145110299672025
161248,72,23,-135,1156,-247,-8402,1745145110299672025
161440,87,24,-134,1157,-239,-8399,1745145110299672025
161632,99,24,-133,1198,-246,-8392,1745145110299672025
161824,109,19,-133,1234,-284,-8384,1745145110299672025
162016,117,12,-134,1274,-335,-8357,1745145110299672025
162208,125,3,-132,1313,-404,-8321,1745145110299672025
162400,135,-5,-132,1299,-451,-8299,1745145110299672025
162592,138,-13,-136,1272,-472,-8282,1745145110299672025
162784,135,-22,-144,1233,-496,-8257,1745145110299672025
162976,127,-28,-151,1197,-547,-8277,1745145110299672025
163168,119,-31,-152,1167,-626,-8311,1745145110360001057
163360,117,-33,-146,1167,-705,-8332,1745145110360001057
163552,115,-32,-139,1165,-696,-8358,1745145110360001057
163744,108,-31,-135,1145,-691,-8403,1745145110360001057
163936,97,-29,-137,1114,-687,-8407,1745145110360001057
164128,92,-25,-144,1108,-653,-8388,1745145110360001057
164320,91,-23,-147,1124,-651,-8345,1745145110360001057
164512,89,-26,-145,1175,-690,-8269,1745145110360001057
164704,84,-35,-142,1229,-794,-8226,1745145110360001057
164896,79,-48,-135,1258,-898,-8184,1745145110360001057
165088,76,-58,-124,1246,-928,-8146,1745145110360001057
165280,71,-63,-117,1167,-874,-8152,1745145110360001057
165472,60,-60,-117,1093,-801,-8172,1745145110417464386
165664,43,-55,-120,1077,-800,-8125,1745145110417464386
165856,25,-55,-121,1110,-853,-8053,1745145110417464386
166048,12,-61,-115,1184,-926,-8042,1745145110417464386
166240,4,-66,-103,1231,-985,-8023,1745145110417464386
166432,1,-67,-93,1232,-951,-8045,1745145110417464386
166624,-5,-64,-88,1189,-874,-8098,1745145110417464386
166816,-12,-59,-90,1115,-798,-8103,1745145110417464386
167008,-17,-57,-95,1067,-735,-8037,1745145110417464386
167200,-14,-58,-96,1044,-723,-8003,1745145110417464386
167392,-7,-56,-89,1027,-723,-7976,1745145110417464386
167584,4,-52,-79,1034,-710,-7948,1745145110417464386
167776,12,-46,-70,1021,-693,-7990,1745145110476813844
167968,17,-39,-64,1012,-663,-8013,1745145110476813844
168160,22,-35,-59,1028,-665,-7992,1745145110476813844
168352,28,-32,-56,1025,-664,-7985,1745145110476813844
168544,33,-31,-55,1022,-676,-7983,1745145110476813844
168736,38,-26,-53,1000,-681,-7977,1745145110476813844
168928,43,-21,-53,981,-694,-8011,1745145110476813844
169120,45,-18,-53,963,-693,-8024,1745145110476813844
169312,44,-16,-54,960,-721,-7988,1745145110476813844
169504,43,-12,-54,977,-743,-7990,1745145110476813844
169696,37,-5,-52,990,-729,-8002,1745145110476813844
169888,32,2,-50,1013,-706,-8035,1745145110476813844
170080,27,4,-49,1041,-703,-8045,1745145110534020457
170272,23,2,-48,1039,-669,-7997,1745145110534020457
170464,23,-3,-51,1029,-642,-8009,1745145110534020457
170656,21,-6,-55,1026,-595,-7999,1745145110534020457
170848,15,-8,-59,1007,-600,-7967,1745145110534020457
171040,10,-11,-59,1035,-641,-7928,1745145110534020457
171232,2,-20,-58,1066,-705,-7906,1745145110534020457
171424,-3,-28,-57,1078,-761,-7909,1745145110534020457
171616,-6,-29,-56,1067,-737,-7938,1745145110534020457
171808,-10,-26,-56,1013,-693,-7974,1745145110534020457
172000,-15,-21,-57,943,-624,-7991,1745145110534020457
172192,-17,-16,-58,925,-569,-8014,1745145110534020457
172384,-16,-13,-58,918,-540,-8007,1745145110593802671
172576,-8,-13,-56,958,-545,-7969,1745145110593802671
172768,3,-12,-50,993,-554,-7990,1745145110593802671
172960,16,-10,-45,1033,-558,-7972,1745145110593802671
173152,25,-8,-43,1061,-547,-7983,1745145110593802671
173344,31,-6,-42,1035,-528,-7975,1745145110593802671
173536,38,-4,-44,1022,-523,-7936,1745145110593802671
173728,43,-4,-46,1029,-534,-7918,1745145110593802671
173920,47,-6,-46,1039,-585,-7922,1745145110593802671
174112,50,-7,-46,1032,-625,-7923,1745145110593802671
174304,52,-5,-46,987,-634,-7929,1745145110593802671
174496,51,-1,-47,967,-624,-7959,1745145110593802671
174688,45,5,-50,948,-632,-7947,1745145110650570069
174880,39,9,-52,942,-649,-7942,1745145110650570069
175072,35,10,-53,975,-688,-7950,1745145110650570069
175264,33,9,-52,992,-745,-7949,1745145110650570069
175456,34,10,-50,1010,-759,-7981,1745145110650570069
175648,35,15,-49,970,-736,-8012,1745145110650570069
175840,34,20,-47,980,-698,-8029,1745145110650570069
176032,34,23,-46,976,-655,-8033,1745145110650570069
176224,35,24,-42,1003,-650,-8031,1745145110650570069
176416,39,21,-35,1058,-656,-8012,1745145110650570069
176608,47,16,-27,1074,-671,-8032,1745145110650570069
176800,54,11,-21,1073,-690,-8057,1745145110650570069
176992,57,8,-17,1036,-695,-8055,1745145110709927236
177184,60,7,-15,1029,-698,-8068,1745145110709927236
177376,58,6,-13,1028,-734,-8063,1745145110709927236
177568,52,7,-10,1047,-773,-8068,1745145110709927236
177760,46,9,-5,1039,-807,-8078,1745145110709927236
177952,41,10,-2,1024,-789,-8092,1745145110709927236
178144,35,10,-2,959,-768,-8088,1745145110709927236
178336,30,13,-4,930,-718,-8106,1745145110709927236
178528,25,18,-4,925,-692,-8118,1745145110709927236
178720,21,24,-1,937,-679,-8103,1745145110709927236
178912,19,26,2,991,-689,-8082,1745145110709927236
179104,17,25,7,1032,-675,-8109,1745145110709927236
179296,16,24,10,1028,-655,-8085,1745145110770157362
179488,20,23,11,1024,-621,-8083,1745145110770157362
179680,24,23,10,1017,-581,-8100,1745145110770157362
179872,26,23,7,1024,-592,-8107,1745145110770157362
180064,29,21,5,1035,-594,-8135,1745145110770157362
180256,33,18,7,1034,-608,-8146,1745145110770157362
180448,37,16,8,1048,-598,-8162,1745145110770157362
180640,38,16,9,1043,-595,-8178,1745145110770157362
180832,39,16,8,1029,-589,-8196,1745145110770157362
181024,40,14,6,1014,-575,-8176,1745145110770157362
181216,43,12,5,997,-566,-8161,1745145110770157362
181408,46,12,4,1009,-573,-8160,1745145110770157362
181600,45,14,5,1043,-568,-8161,1745145110826526483
181792,43,14,5,1081,-583,-8115,1745145110826526483
181984,39,10,5,1128,-606,-8067,1745145110826526483
182176,36,0,4,1164,-636,-8040,1745145110826526483
182368,37,-11,2,1150,-648,-8029,1745145110826526483
182560,37,-19,-2,1117,-657,-8035,1745145110826526483
182752,32,-22,-6,1077,-653,-8047,1745145110826526483
182944,23,-23,-9,1047,-654,-8040,1745145110826526483
183136,13,-24,-8,1011,-654,-8055,1745145110826526483
183328,8,-23,-4,1001,-656,-8056,1745145110826526483
183520,4,-20,0,1029,-653,-8065,1745145110826526483
183712,1,-16,5,1051,-652,-8070,1745145110826526483
183904,-1,-11,5,1065,-620,-8072,1745145110886548643
184096,-5,-8,4,1070,-578,-8062,1745145110886548643
184288,-5,-7,1,1064,-560,-8046,1745145110886548643
184480,-3,-8,-3,1062,-543,-8041,1745145110886548643
184672,2,-6,-4,1052,-557,-8034,1745145110886548643
184864,10,-4,-4,1045,-580,-8034,1745145110886548643
185056,15,-1,-5,1057,-600,-8050,1745145110886548643
185248,17,0,-7,1051,-574,-8067,1745145110886548643
185440,16,2,-11,1038,-577,-8050,1745145110886548643
185632,16,1,-15,1033,-594,-8035,1745145110886548643
185824,17,-2,-16,1021,-613,-8042,1745145110886548643
186016,22,-2,-18,983,-613,-8051,1745145110886548643
186208,23,-1,-19,985,-623,-8040,1745145110941010802
186400,20,-2,-18,996,-617,-8017,1745145110941010802
186592,14,-3,-17,1018,-649,-8006,1745145110941010802
186784,10,-4,-14,1063,-665,-8007,1745145110941010802
186976,9,-5,-12,1085,-697,-8017,1745145110941010802
187168,7,-9,-11,1109,-720,-8001,1745145110941010802
187360,3,-14,-13,1092,-714,-7997,1745145110941010802
187552,0,-19,-15,1067,-713,-7983,1745145110941010802
187744,1,-21,-17,1018,-721,-7989,1745145110941010802
187936,1,-20,-17,986,-729,-8003,1745145110941010802
188128,-2,-18,-17,961,-747,-8004,1745145110941010802
188320,-7,-15,-16,959,-734,-8025,1745145110941010802
188512,-12,-8,-12,960,-747,-8025,1745145111003515387
188704,-16,-3,-7,979,-713,-8003,1745145111003515387
188896,-16,1,-3,1002,-694,-8001,1745145111003515387
189088,-13,4,1,1016,-686,-7998,1745145111003515387
189280,-8,7,4,1034,-671,-8022,1745145111003515387
189472,-1,9,5,1029,-646,-8019,1745145111003515387
189664,6,11,6,1027,-618,-8031,1745145111003515387
189856,12,10,7,1013,-611,-8004,1745145111003515387
190048,17,7,9,1027,-633,-7980,1745145111003515387
190240,21,2,11,1013,-662,-7957,1745145111003515387
190432,25,1,11,1005,-711,-7945,1745145111003515387
190624,26,0,12,990,-725,-7959,1745145111003515387
190816,23,1,11,978,-743,-7987,1745145111060906269
191008,18,3,11,975,-742,-7984,1745145111060906269
191200,13,4,10,996,-739,-8004,1745145111060906269
191392,8,4,9,1004,-722,-7997,1745145111060906269
191584,4,4,8,990,-696,-8036,1745145111060906269
191776,2,5,7,993,-677,-8047,1745145111060906269
191968,2,7,7,988,-641,-8050,1745145111060906269
192160,6,8,10,982,-613,-8039,1745145111060906269
192352,9,9,13,1013,-606,-8014,1745145111060906269
192544,11,8,16,1048,-624,-8003,1745145111060906269
192736,15,5,20,1069,-671,-7980,1745145111060906269
192928,20,1,23,1051,-668,-7955,1745145111060906269
193120,23,-1,21,1022,-669,-7980,1745145111118912458
193312,22,0,16,971,-681,-8008,1745145111118912458
193504,19,2,14,934,-678,-8007,1745145111118912458
193696,16,7,13,937,-687,-8026,1745145111118912458
193888,12,12,17,941,-696,-8047,1745145111118912458
194080,8,18,21,968,-689,-8044,1745145111118912458
194272,5,24,23,992,-649,-8052,1745145111118912458
194464,6,27,23,1019,-582,-8043,1745145111118912458
194656,8,26,21,1042,-560,-8015,1745145111118912458
194848,14,20,18,1081,-559,-7994,1745145111118912458
195040,23,13,17,1098,-585,-7977,1745145111118912458
195232,31,6,16,1103,-587,-7982,1745145111118912458
195424,35,3,14,1080,-602,-8016,1745145111179052117
195616,33,0,12,1052,-610,-8004,1745145111179052117
195808,28,-3,9,1012,-603,-7962,1745145111179052117
196000,21,-8,5,987,-665,-7912,1745145111179052117
196192,13,-12,3,970,-709,-7935,1745145111179052117
196384,6,-9,4,962,-749,-7957,1745145111179052117
196576,-2,2,5,930,-720,-7988,1745145111179052117
196768,-13,15,6,916,-675,-8024,1745145111179052117
196960,-24,25,7,960,-646,-8010,1745145111179052117
197152,-29,29,8,984,-633,-8001,1745145111179052117
197344,-25,30,10,1023,-602,-8006,1745145111179052117
197536,-14,32,11,1040,-595,-8025,1745145111179052117
197728,-1,32,10,1057,-564,-8051,1745145111236546852
197920,10,32,7,1056,-558,-8044,1745145111236546852
198112,19,31,5,1046,-547,-8070,1745145111236546852
198304,27,30,5,1013,-552,-8092,1745145111236546852
198496,34,31,6,1004,-548,-8082,1745145111236546852
198688,40,33,9,1015,-540,-8078,1745145111236546852
198880,42,31,8,1029,-589,-8062,1745145111236546852
199072,44,26,8,1045,-642,-8056,1745145111236546852
199264,43,24,7,1057,-658,-8051,1745145111236546852
199456,40,23,6,1061,-654,-8048,1745145111236546852
199648,34,23,5,1075,-651,-8018,1745145111236546852
199840,27,22,0,1109,-650,-8032,1745145111236546852
200032,22,18,-5,1096,-681,-8040,1745145111295896779
200224,23,12,-9,1085,-681,-8031,1745145111295896779
200416,24,8,-14,1054,-662,-8045,1745145111295896779
200608,21,7,-19,1028,-662,-8045,1745145111295896779
200800,15,6,-20,1042,-698,-8060,1745145111295896779
200992,12,6,-21,1041,-741,-8076,1745145111295896779
201184,9,6,-19,1050,-755,-8062,1745145111295896779
201376,6,8,-17,1049,-772,-8095,1745145111295896779
201568,4,8,-18,1071,-789,-8073,1745145111295896779
201760,4,7,-19,1064,-800,-8075,1745145111295896779
201952,6,6,-20,1058,-804,-8085,1745145111295896779
202144,6,6,-19,1055,-802,-8091,1745145111295896779
202336,7,5,-18,1038,-809,-8118,1745145111353094433
202528,7,5,-14,1031,-827,-8127,1745145111353094433
202720,8,6,-9,1025,-834,-8126,1745145111353094433
202912,8,9,-4,1039,-835,-8144,1745145111353094433
203104,7,13,1,1038,-837,-8154,1745145111353094433
203296,8,16,5,1039,-832,-8157,1745145111353094433
203488,10,18,10,1053,-823,-8159,1745145111353094433
203680,13,16,13,1082,-828,-8142,1745145111353094433
203872,18,17,17,1087,-849,-8139,1745145111353094433
204064,23,15,21,1068,-821,-8148,1745145111353094433
204256,29,15,24,1033,-809,-8167,1745145111353094433
204448,35,13,26,1019,-801,-8170,1745145111353094433
204640,41,10,26,1017,-817,-8159,1745145111412756701
204832,46,9,27,1041,-835,-8160,1745145111412756701
205024,51,10,30,1059,-842,-8177,1745145111412756701
205216,54,9,34,1067,-838,-8184,1745145111412756701
205408,52,5,35,1076,-845,-8161,1745145111412756701
205600,48,1,34,1084,-845,-8144,1745145111412756701
205792,42,-4,35,1105,-863,-8119,1745145111412756701
205984,35,-9,35,1134,-877,-8098,1745145111412756701
206176,28,-14,35,1131,-892,-8106,1745145111412756701
206368,19,-18,35,1092,-875,-8079,1745145111412756701
206560,8,-21,34,1072,-857,-8051,1745145111412756701
206752,-3,-25,34,1044,-846,-8036,1745145111412756701
206944,-13,-27,34,1003,-828,-8005,1745145111466755791
207136,-20,-25,36,986,-791,-7998,1745145111466755791
207328,-29,-21,37,978,-748,-8003,1745145111466755791
207520,-39,-19,37,1004,-741,-7976,1745145111466755791
207712,-49,-18,37,1016,-717,-7922,1745145111466755791
207904,-56,-21,34,1045,-737,-7900,1745145111466755791
208096,-61,-21,31,1003,-716,-7887,1745145111466755791
208288,-62,-19,28,998,-683,-7875,1745145111466755791
208480,-63,-14,24,966,-630,-7888,1745145111466755791
208672,-62,-9,20,956,-616,-7884,1745145111466755791
208864,-58,-5,21,947,-580,-7869,1745145111466755791
209056,-48,0,23,945,-546,-7873,1745145111466755791
209248,-34,6,28,946,-495,-7901,1745145111528643559
209440,-20,14,31,959,-455,-7917,1745145111528643559
209632,-8,19,33,986,-451,-7893,1745145111528643559
209824,4,20,35,1048,-481,-7886,1745145111528643559
210016,18,18,37,1077,-557,-7881,1745145111528643559
210208,31,15,37,1096,-571,-7880,1745145111528643559
210400,37,14,33,1069,-581,-7881,1745145111528643559
210592,33,14,25,1050,-602,-7869,1745145111528643559
210784,23,13,18,1042,-635,-7858,1745145111528643559
210976,11,12,14,1016,-665,-7889,1745145111528643559
211168,0,13,11,998,-658,-7873,1745145111528643559
211360,-11,17,9,956,-626,-7894,1745145111528643559
211744,-30,26,1,926,-538,-7951,1745145111593329166
211936,-29,28,-1,934,-514,-7981,1745145111593329166
212128,-21,29,0,981,-488,-7953,1745145111593329166
212320,-10,29,2,1013,-478,-7968,1745145111593329166
212512,3,27,4,1043,-481,-7969,1745145111593329166
212704,18,25,4,1070,-486,-7969,1745145111593329166
212896,34,23,3,1055,-491,-7970,1745145111593329166
213088,44,20,1,1062,-500,-7955,1745145111593329166
213280,50,18,-1,1036,-535,-7976,1745145111593329166
213472,52,17,-4,1025,-586,-7978,1745145111593329166
213664,51,16,-5,1017,-652,-7988,1745145111593329166
213856,48,17,-5,993,-679,-8010,1745145111593329166
214048,41,19,-7,977,-693,-8019,1745145111646878937
214240,30,23,-10,970,-687,-8006,1745145111646878937
214432,17,28,-11,981,-689,-8010,1745145111646878937
214624,10,31,-11,985,-684,-8021,1745145111646878937
214816,6,32,-9,1024,-666,-7987,1745145111646878937
215008,6,31,-8,1058,-653,-8004,1745145111646878937
215200,4,29,-9,1088,-640,-8017,1745145111646878937
215392,5,27,-10,1093,-637,-8018,1745145111646878937
215584,7,26,-11,1086,-615,-8007,1745145111646878937
215776,8,23,-14,1073,-597,-8006,1745145111646878937
215968,8,22,-15,1052,-614,-8020,1745145111646878937
216160,7,21,-15,1052,-615,-8021,1745145111646878937
216352,6,20,-15,1049,-648,-7997,1745145111710348409
216544,4,18,-16,1070,-692,-8002,1745145111710348409
216736,1,17,-18,1065,-719,-8011,1745145111710348409
216928,2,21,-20,1021,-695,-8041,1745145111710348409
217120,2,27,-23,976,-656,-8076,1745145111710348409
217312,1,32,-26,958,-615,-8058,1745145111710348409
217504,1,34,-28,977,-593,-8057,1745145111710348409
217696,6,35,-25,998,-618,-8072,1745145111710348409
217888,18,35,-21,1029,-628,-8083,1745145111710348409
218080,31,36,-17,1050,-611,-8099,1745145111710348409
218272,38,36,-16,1098,-617,-8102,1745145111710348409
218464,42,34,-18,1106,-608,-8094,1745145111710348409
218656,47,31,-21,1106,-621,-8078,1745145111767776114
218848,52,27,-21,1120,-664,-8081,1745145111767776114
219040,57,23,-23,1144,-709,-8078,1745145111767776114
219232,57,18,-26,1124,-734,-8080,1745145111767776114
219424,51,13,-31,1084,-749,-8095,1745145111767776114
219616,41,11,-37,1013,-743,-8072,1745145111767776114
219808,32,10,-42,960,-742,-8062,1745145111767776114
220000,22,11,-44,928,-748,-8085,1745145111767776114
220192,13,17,-44,952,-773,-8109,1745145111767776114
220384,6,23,-40,1023,-786,-8107,1745145111767776114
220576,1,26,-34,1105,-800,-8107,1745145111767776114
220768,-3,28,-29,1178,-779,-8100,1745145111767776114
220960,-3,25,-29,1191,-761,-8106,1745145111827455308
221152,0,20,-32,1182,-733,-8073,1745145111827455308
221344,8,13,-37,1136,-693,-8067,1745145111827455308
221536,15,7,-40,1074,-681,-8046,1745145111827455308
221728,18,1,-41,1054,-718,-8032,1745145111827455308
221920,18,-1,-36,1047,-753,-8041,1745145111827455308
222112,15,0,-30,1048,-796,-8067,1745145111827455308
222304,11,4,-24,1027,-787,-8090,1745145111827455308
222496,6,8,-23,1020,-740,-8074,1745145111827455308
222688,1,12,-24,1035,-728,-8080,1745145111827455308
222880,-2,13,-27,1074,-761,-8059,1745145111827455308
223072,-1,10,-29,1120,-771,-8064,1745145111827455308
223264,5,7,-31,1125,-785,-8053,1745145111884587807
223456,9,6,-32,1097,-749,-8069,1745145111884587807
223648,9,7,-37,1064,-708,-8077,1745145111884587807
223840,6,8,-43,1056,-711,-8058,1745145111884587807
224032,2,6,-45,1055,-737,-8048,1745145111884587807
224224,0,2,-44,1071,-792,-8078,1745145111884587807
224416,0,0,-39,1067,-830,-8093,1745145111884587807
224608,0,2,-38,1070,-830,-8106,1745145111884587807
224800,-4,5,-40,1050,-806,-8113,1745145111884587807
224992,-10,7,-42,1045,-779,-8102,1745145111884587807
225184,-14,9,-44,1056,-780,-8084,1745145111884587807
225376,-13,8,-42,1060,-760,-8065,1745145111884587807
225568,-10,6,-41,1072,-751,-8058,1745145111943172584
225760,-10,5,-41,1088,-761,-8049,1745145111943172584
225952,-11,0,-42,1117,-799,-8014,1745145111943172584
226144,-10,-4,-45,1137,-850,-8020,1745145111943172584
226336,-8,-7,-48,1111,-842,-8023,1745145111943172584
226528,-10,-8,-50,1080,-828,-8021,1745145111943172584
226720,-16,-6,-54,1020,-797,-8036,1745145111943172584
226912,-19,-7,-58,990,-792,-8032,1745145111943172584
227104,-20,-8,-60,1003,-816,-7996,1745145111943172584
227296,-18,-9,-59,1025,-853,-7992,1745145111943172584
227488,-18,-8,-56,1054,-881,-7998,1745145111943172584
227680,-20,-5,-53,1059,-882,-7986,1745145111943172584
227872,-22,-2,-51,1079,-884,-8005,1745145112002838133
228064,-23,2,-50,1057,-866,-8023,1745145112002838133
228256,-20,4,-49,1053,-837,-8030,1745145112002838133
228448,-15,8,-47,1046,-801,-8037,1745145112002838133
228640,-7,10,-45,1036,-763,-8024,1745145112002838133
228832,4,11,-42,1047,-753,-8032,1745145112002838133
229024,13,10,-37,1097,-787,-8017,1745145112002838133
229216,18,7,-34,1115,-816,-7993,1745145112002838133
229408,22,3,-32,1125,-863,-8003,1745145112002838133
229600,24,-1,-31,1128,-905,-7993,1745145112002838133
229792,25,-4,-30,1098,-921,-7976,1745145112002838133
229984,23,-4,-30,1043,-921,-7984,1745145112002838133
230176,17,0,-29,1016,-878,-8022,1745145112059959538
230368,8,3,-28,998,-860,-8030,1745145112059959538
230560,2,6,-27,1004,-839,-8023,1745145112059959538
230752,-3,10,-26,1033,-824,-8052,1745145112059959538
230944,-4,13,-24,1069,-831,-8062,1745145112059959538
231136,-2,13,-26,1096,-804,-8057,1745145112059959538
231328,1,9,-29,1108,-790,-8040,1745145112059959538
231520,5,3,-34,1103,-771,-8013,1745145112059959538
231712,11,-1,-37,1086,-770,-7975,1745145112059959538
231904,16,-3,-36,1096,-793,-7989,1745145112059959538
232096,19,-4,-34,1098,-828,-7995,1745145112059959538
232288,20,-6,-32,1091,-847,-8004,1745145112059959538
232480,17,-8,-32,1083,-859,-7988,1745145112119743367
232672,9,-9,-34,1060,-856,-7988,1745145112119743367
232864,0,-7,-36,1033,-863,-7969,1745145112119743367
233056,-11,-6,-36,1029,-894,-7965,1745145112119743367
233248,-24,-5,-37,1025,-900,-7990,1745145112119743367
233440,-33,-2,-36,1011,-904,-8011,1745145112119743367
233632,-35,4,-35,988,-866,-8015,1745145112119743367
233824,-32,13,-33,986,-784,-8027,1745145112119743367
234016,-28,22,-33,989,-672,-8025,1745145112119743367
234208,-23,26,-32,1007,-613,-7986,1745145112119743367
234400,-13,24,-30,1097,-591,-7954,1745145112119743367
234592,1,16,-28,1157,-632,-7948,1745145112119743367
234784,16,5,-27,1214,-695,-7933,1745145112178931629
234976,28,-3,-29,1213,-731,-7940,1745145112178931629
235168,31,-8,-36,1184,-745,-7958,1745145112178931629
235360,26,-9,-46,1097,-761,-7941,1745145112178931629
235552,17,-9,-52,1045,-799,-7938,1745145112178931629
235744,7,-8,-55,1014,-841,-7921,1745145112178931629
235936,-1,-5,-54,976,-861,-7941,1745145112178931629
236128,-10,2,-52,982,-814,-7948,1745145112178931629
236320,-22,11,-53,1001,-775,-7956,1745145112178931629
236512,-35,18,-54,1045,-744,-7927,1745145112178931629
236704,-41,18,-54,1098,-735,-7892,1745145112178931629
236896,-39,12,-54,1160,-755,-7883,1745145112178931629
237088,-35,7,-57,1149,-751,-7884,1745145112234937315
237280,-34,3,-63,1121,-754,-7886,1745145112234937315
237472,-39,1,-69,1102,-750,-7871,1745145112234937315
237664,-50,1,-75,1072,-739,-7874,1745145112234937315
237856,-62,4,-77,1045,-771,-7884,1745145112234937315
238048,-76,7,-80,1059,-778,-7853,1745145112234937315
238240,-93,7,-84,1081,-810,-7824,1745145112234937315
238432,-117,9,-91,1074,-822,-7810,1745145112234937315
238624,-145,11,-103,1057,-827,-7781,1745145112234937315
238816,-174,14,-116,1012,-795,-7761,1745145112234937315
239008,-203,16,-130,964,-746,-7792,1745145112234937315
239200,-231,21,-143,916,-699,-7799,1745145112234937315
239392,-252,32,-154,871,-595,-7921,1745145112295324055
239584,-262,47,-162,851,-452,-8026,1745145112295324055
239776,-259,61,-168,882,-327,-8113,1745145112295324055
239968,-243,70,-173,926,-198,-8151,1745145112295324055
240160,-220,75,-177,974,-61,-8189,1745145112295324055
240352,-189,78,-179,1007,43,-8235,1745145112295324055
240544,-151,79,-183,1058,119,-8268,1745145112295324055
240736,-109,74,-188,1096,149,-8300,1745145112295324055
240928,-67,63,-196,1128,151,-8335,1745145112295324055
241120,-27,54,-205,1122,174,-8346,1745145112295324055
241312,13,47,-216,1104,225,-8340,1745145112295324055
241504,52,42,-224,1060,299,-8359,1745145112295324055
241696,88,37,-234,1038,331,-8359,1745145112352536085
241888,121,30,-244,1024,375,-8376,1745145112352536085
242080,155,20,-253,1032,399,-8377,1745145112352536085
242272,187,10,-263,1030,437,-8361,1745145112352536085
242464,214,-1,-278,1021,476,-8357,1745145112352536085
242656,234,-11,-295,1001,479,-8365,1745145112352536085
242848,250,-22,-315,998,484,-8359,1745145112352536085
243040,260,-32,-337,984,514,-8353,1745145112352536085
243232,266,-38,-360,991,546,-8347,1745145112352536085
243424,268,-41,-383,1013,542,-8326,1745145112352536085
243616,266,-47,-403,1041,552,-8324,1745145112352536085
243808,265,-58,-423,1017,564,-8339,1745145112352536085
244000,264,-71,-444,923,643,-8379,1745145112410153787
244192,267,-82,-465,776,770,-8396,1745145112410153787
244384,268,-87,-486,652,940,-8405,1745145112410153787
244576,263,-85,-502,583,1063,-8385,1745145112410153787
244768,251,-80,-514,619,1147,-8321,1745145112410153787
244960,230,-79,-523,707,1231,-8223,1745145112410153787
245152,198,-80,-533,837,1333,-8114,1745145112410153787
245344,158,-87,-552,936,1507,-7966,1745145112410153787
245536,112,-93,-583,1021,1766,-7844,1745145112410153787
245728,61,-92,-628,1086,2042,-7758,1745145112410153787
245920,6,-92,-683,1167,2319,-7717,1745145112410153787
246112,-41,-96,-746,1241,2557,-7689,1745145112410153787
246304,-77,-108,-816,1297,2813,-7622,1745145112470616829
246496,-105,-126,-899,1367,3098,-7629,1745145112470616829
246688,-130,-144,-994,1391,3353,-7650,1745145112470616829
246880,-149,-167,-1100,1357,3612,-7630,1745145112470616829
247072,-157,-197,-1218,1300,3872,-7550,1745145112470616829
247264,-157,-227,-1344,1206,4143,-7489,1745145112470616829
247456,-149,-253,-1472,1131,4373,-7432,1745145112470616829
247648,-135,-272,-1598,1133,4526,-7356,1745145112470616829
247840,-112,-288,-1718,1257,4601,-7265,1745145112470616829
248032,-82,-303,-1831,1448,4627,-7195,1745145112470616829
248224,-51,-316,-1942,1686,4653,-7119,1745145112470616829
248416,-23,-328,-2055,1919,4719,-7022,1745145112470616829
248608,3,-340,-2176,2150,4792,-6915,1745145112527784327
248800,19,-343,-2312,2322,4972,-6784,1745145112527784327
248992,34,-346,-2436,2426,5228,-6619,1745145112527784327
249184,62,-364,-2538,2644,5313,-6596,1745145112527784327
249376,84,-375,-2650,2911,5350,-6497,1745145112527784327
249568,106,-380,-2763,3226,5334,-6433,1745145112527784327
249760,124,-393,-2878,3610,5264,-6369,1745145112527784327
249952,136,-406,-3003,3967,5197,-6283,1745145112527784327
250144,134,-416,-3131,4193,5200,-6191,1745145112527784327
250336,128,-429,-3257,4450,5184,-6231,1745145112527784327
250528,109,-434,-3385,4689,5111,-6264,1745145112527784327
250720,79,-436,-3510,4881,5023,-6186,1745145112527784327
250912,46,-447,-3631,5041,4868,-6068,1745145112587838779
251104,11,-466,-3746,5133,4721,-5953,1745145112587838779
251296,-25,-486,-3857,5167,4612,-5804,1745145112587838779
251488,-59,-496,-3970,5133,4543,-5654,1745145112587838779
251680,-101,-495,-4087,5117,4463,-5471,1745145112587838779
251872,-156,-484,-4200,5136,4410,-5285,1745145112587838779
252064,-209,-468,-4299,5199,4354,-5213,1745145112587838779
252256,-258,-435,-4394,5323,4365,-5107,1745145112587838779
252448,-305,-380,-4483,5516,4458,-5014,1745145112587838779
252640,-357,-314,-4568,5743,4583,-4869,1745145112587838779
252832,-401,-244,-4644,5977,4745,-4785,1745145112587838779
253024,-426,-172,-4711,6189,4997,-4626,1745145112587838779
253216,-418,-123,-4745,6393,5130,-4572,1745145112642444426
253408,-381,-90,-4779,6661,5397,-4515,1745145112642444426
253600,-338,-59,-4813,6899,5501,-4334,1745145112642444426
253792,-284,-53,-4847,7109,5485,-4130,1745145112642444426
253984,-222,-69,-4882,7265,5334,-3834,1745145112642444426
254176,-151,-91,-4918,7302,5073,-3803,1745145112642444426
254368,-67,-98,-4943,7190,4816,-3849,1745145112642444426
254560,23,-77,-4957,6988,4603,-3834,1745145112642444426
254752,106,-37,-4963,6813,4392,-3946,1745145112642444426
254944,167,22,-4968,6610,4225,-4149,1745145112642444426
255136,217,97,-4974,6488,4086,-4289,1745145112642444426
255328,262,178,-4986,6449,3945,-4412,1745145112642444426
255520,307,258,-5002,6523,3724,-4494,1745145112701565084
255712,351,322,-5020,6627,3455,-4594,1745145112701565084
255904,399,368,-5034,6707,3117,-4616,1745145112701565084
256096,454,397,-5042,6734,2719,-4533,1745145112701565084
256288,511,410,-5048,6677,2328,-4607,1745145112701565084
256480,560,420,-5052,6533,1968,-4794,1745145112701565084
256672,603,437,-5047,6292,1697,-4982,1745145112701565084
256864,653,466,-5029,5982,1512,-5175,1745145112701565084
257056,708,504,-5004,5712,1374,-5366,1745145112701565084
257248,768,543,-4974,5541,1269,-5610,1745145112701565084
257440,838,588,-4932,5508,1174,-5915,1745145112701565084
257632,912,643,-4875,5612,1092,-6223,1745145112701565084
257824,980,697,-4805,5866,955,-6614,1745145112764298833
258016,1052,730,-4720,6177,755,-6996,1745145112764298833
258208,1142,738,-4628,6538,498,-7354,1745145112764298833
258400,1259,715,-4533,6826,178,-7741,1745145112764298833
258592,1398,659,-4441,7069,-282,-8094,1745145112764298833
258784,1549,592,-4358,7188,-728,-8353,1745145112764298833
258976,1690,515,-4275,7215,-1264,-8460,1745145112764298833
259168,1809,423,-4200,7232,-1841,-8554,1745145112764298833
259360,1862,318,-4134,7153,-2470,-8419,1745145112764298833
259552,1860,186,-4068,6988,-3111,-8190,1745145112764298833
259744,1804,43,-4002,6730,-3743,-7871,1745145112764298833
259936,1714,-64,-3951,6240,-4108,-7445,1745145112764298833
260128,1600,-123,-3892,5755,-4455,-7470,1745145112819653797
260320,1459,-145,-3807,5456,-4832,-8076,1745145112819653797
260512,1277,-134,-3674,5387,-5197,-8787,1745145112819653797
260704,1051,-128,-3477,5601,-5501,-9334,1745145112819653797
260896,811,-132,-3272,6195,-6151,-10009,1745145112819653797
261088,604,-90,-3193,6773,-6605,-10752,1745145112819653797
261280,414,-18,-3194,6719,-6391,-10696,1745145112819653797
261472,266,-5,-3150,6706,-6370,-10735,1745145112819653797
261664,149,-23,-3121,6614,-6325,-10772,1745145112819653797
261856,46,-54,-3099,6399,-6299,-10700,1745145112819653797
262048,-55,-104,-3071,6093,-6267,-10496,1745145112819653797
262240,-162,-161,-3032,5708,-6241,-10221,1745145112819653797
262432,-280,-220,-2968,5244,-6159,-9821,1745145112880345690
262624,-398,-272,-2873,4666,-5969,-9506,1745145112880345690
262816,-509,-288,-2758,4119,-5723,-9381,1745145112880345690
263008,-605,-288,-2629,3654,-5350,-9166,1745145112880345690
263200,-683,-254,-2497,3451,-5008,-9268,1745145112880345690
263392,-755,-198,-2359,3575,-4789,-9730,1745145112880345690
263584,-823,-147,-2218,4023,-4631,-10072,1745145112880345690
263776,-871,-113,-2084,4582,-4439,-10301,1745145112880345690
263968,-890,-89,-1965,5056,-4192,-10463,1745145112880345690
264160,-874,-71,-1865,5401,-3888,-10539,1745145112880345690
264352,-817,-70,-1787,5567,-3615,-10603,1745145112880345690
264544,-722,-86,-1723,5602,-3405,-10615,1745145112880345690
264736,-612,-111,-1671,5497,-3228,-10593,1745145112937234754
264928,-508,-141,-1628,5285,-3119,-10529,1745145112937234754
265120,-420,-169,-1586,5011,-3111,-10391,1745145112937234754
265312,-349,-195,-1535,4704,-3140,-10205,1745145112937234754
265504,-301,-218,-1476,4345,-3212,-9971,1745145112937234754
265696,-276,-238,-1408,3964,-3288,-9771,1745145112937234754
265888,-279,-247,-1334,3548,-3298,-9552,1745145112937234754
266080,-301,-239,-1264,3157,-3258,-9397,1745145112937234754
266272,-339,-216,-1196,2782,-3185,-9318,1745145112937234754
266464,-380,-184,-1128,2560,-3126,-9250,1745145112937234754
266656,-415,-142,-1059,2468,-3062,-9251,1745145112937234754
266848,-440,-90,-987,2471,-3033,-9390,1745145112937234754
267040,-451,-26,-908,2499,-2874,-9741,1745145112997216289
267232,-422,83,-826,2498,-2239,-10166,1745145112997216289
267424,-389,193,-754,2857,-1726,-9994,1745145112997216289
267616,-330,223,-683,3461,-1726,-10205,1745145112997216289
267808,-163,197,-584,3937,-1855,-10444,1745145112997216289
268000,111,142,-488,4172,-1672,-10190,1745145112997216289
268192,409,96,-439,4279,-1391,-10105,1745145112997216289
268384,601,-7,-418,4647,-1995,-9944,1745145112997216289
268576,673,-186,-375,5102,-3294,-9706,1745145112997216289
268768,695,-425,-312,5513,-4401,-10296,1745145112997216289
268960,540,-657,-250,5244,-5244,-10158,1745145112997216289
269152,252,-749,-166,4581,-5985,-10631,1745145112997216289
269344,1,-764,-53,3628,-5964,-10446,1745145113054182800
269536,-145,-719,27,2605,-5111,-10288,1745145113054182800
269728,-289,-682,54,1810,-4202,-9852,1745145113054182800
269920,-426,-650,23,1278,-3517,-9425,1745145113054182800
270112,-516,-587,-34,891,-3009,-8938,1745145113054182800
270304,-566,-482,-65,607,-2502,-8462,1745145113054182800
270496,-613,-373,-51,458,-1955,-7931,1745145113054182800
270688,-652,-293,-4,387,-1294,-7422,1745145113054182800
270880,-680,-236,44,414,-604,-6938,1745145113054182800
271072,-695,-187,62,409,61,-6698,1745145113054182800
271264,-688,-135,42,420,659,-6558,1745145113054182800
271456,-671,-105,11,354,1193,-6271,1745145113054182800
271648,-660,-116,24,297,1415,-6170,1745145113113960691
271840,-637,-156,80,276,1445,-6204,1745145113113960691
272032,-590,-196,130,314,1539,-6395,1745145113113960691
272224,-551,-206,136,308,1805,-6594,1745145113113960691
272416,-525,-194,105,293,2227,-6831,1745145113113960691
272608,-502,-180,43,366,2653,-7128,1745145113113960691
272800,-470,-173,-35,518,3007,-7418,1745145113113960691
272992,-422,-175,-102,637,3379,-7669,1745145113113960691
273184,-352,-196,-129,756,3672,-7890,1745145113113960691
273376,-261,-242,-118,957,3744,-8248,1745145113113960691
273568,-168,-286,-97,1117,3611,-8482,1745145113113960691
273760,-69,-339,-58,1224,3267,-8674,1745145113113960691
273952,21,-390,-10,1273,2807,-8862,1745145113172079223
274144,87,-429,38,1200,2304,-9029,1745145113172079223
274336,127,-454,77,1071,1812,-9101,1745145113172079223
274528,143,-465,103,860,1373,-9162,1745145113172079223
274720,140,-457,113,634,974,-9191,1745145113172079223
274912,122,-438,112,446,686,-9157,1745145113172079223
275104,88,-406,106,328,450,-9149,1745145113172079223
275296,41,-370,102,246,275,-9088,1745145113172079223
275488,-16,-332,102,187,128,-8994,1745145113172079223
275680,-74,-296,104,161,63,-8925,1745145113172079223
275872,-125,-265,108,174,53,-8812,1745145113172079223
276064,-170,-238,114,188,135,-8699,1745145113172079223
276256,-208,-218,116,198,231,-8603,1745145113231273474
276448,-241,-205,113,200,383,-8503,1745145113231273474
276640,-264,-193,104,169,539,-8407,1745145113231273474
276832,-277,-185,93,153,694,-8360,1745145113231273474
277024,-279,-181,80,148,814,-8320,1745145113231273474
277216,-266,-176,67,114,935,-8302,1745145113231273474
277408,-246,-170,61,127,1045,-8304,1745145113231273474
277600,-225,-164,61,158,1128,-8326,1745145113231273474
277792,-209,-160,63,208,1173,-8347,1745145113231273474
277984,-191,-157,65,287,1181,-8363,1745145113231273474
278176,-177,-157,68,347,1179,-8371,1745145113231273474
278368,-166,-156,70,372,1180,-8358,1745145113231273474
278560,-157,-154,70,366,1197,-8314,1745145113288287276
278752,-150,-155,69,330,1204,-8288,1745145113288287276
278944,-145,-153,67,302,1213,-8251,1745145113288287276
279136,-142,-150,67,275,1204,-8215,1745145113288287276
279328,-144,-145,69,246,1200,-8157,1745145113288287276
279520,-148,-141,72,214,1218,-8116,1745145113288287276
279712,-151,-134,71,170,1244,-8076,1745145113288287276
279904,-152,-124,66,151,1256,-8078,1745145113288287276
280096,-145,-116,56,134,1264,-8061,1745145113288287276
280288,-131,-106,45,144,1266,-8063,1745145113288287276
280480,-116,-95,34,170,1222,-8093,1745145113288287276
280672,-101,-88,27,181,1180,-8123,1745145113288287276
280864,-88,-81,23,199,1142,-8152,1745145113348395581
281056,-76,-77,22,202,1101,-8150,1745145113348395581
281248,-64,-75,22,227,1050,-8168,1745145113348395581
281440,-59,-74,21,230,995,-8179,1745145113348395581
281632,-59,-71,19,205,963,-8196,1745145113348395581
281824,-58,-67,16,144,960,-8216,1745145113348395581
282016,-58,-62,13,120,961,-8203,1745145113348395581
282208,-62,-53,10,89,988,-8177,1745145113348395581
282400,-66,-48,9,76,1012,-8161,1745145113348395581
282592,-70,-44,9,90,1023,-8138,1745145113348395581
282784,-74,-38,7,87,1084,-8117,1745145113348395581
282976,-76,-34,8,98,1132,-8094,1745145113348395581
283168,-78,-29,9,102,1178,-8074,1745145113404802410
283360,-78,-27,10,109,1218,-8055,1745145113404802410
283552,-75,-26,12,127,1253,-8018,1745145113404802410
283744,-71,-25,13,112,1337,-8008,1745145113404802410
283936,-66,-25,14,119,1374,-7982,1745145113404802410
284128,-58,-24,15,115,1376,-7955,1745145113404802410
284320,-49,-25,14,137,1360,-7940,1745145113404802410
284512,-36,-28,13,156,1311,-7971,1745145113404802410
284704,-24,-28,17,187,1267,-8005,1745145113404802410
284896,-18,-27,21,189,1234,-8044,1745145113404802410
285088,-16,-26,25,190,1220,-8104,1745145113404802410
285280,-19,-23,29,177,1179,-8131,1745145113404802410
285472,-24,-19,33,177,1173,-8149,1745145113465122119
285664,-27,-16,34,160,1189,-8150,1745145113465122119
285856,-29,-14,35,152,1211,-8132,1745145113465122119
286048,-32,-13,36,150,1226,-8096,1745145113465122119
286240,-34,-12,35,138,1250,-8063,1745145113465122119
286432,-33,-10,35,128,1239,-8026,1745145113465122119
286624,-29,-11,34,126,1259,-8000,1745145113465122119
286816,-22,-14,32,139,1237,-7980,1745145113465122119
287008,-15,-16,29,138,1210,-7981,1745145113465122119
287200,-10,-18,26,143,1171,-7992,1745145113465122119
287392,-8,-17,24,147,1131,-8000,1745145113465122119
287584,-6,-20,21,143,1118,-8017,1745145113465122119
287776,-5,-20,19,118,1119,-8029,1745145113522550396
287968,-6,-20,17,93,1127,-8050,1745145113522550396
288160,-8,-20,17,106,1142,-8062,1745145113522550396
288352,-13,-17,18,86,1171,-8070,1745145113522550396
288544,-19,-14,20,76,1180,-8076,1745145113522550396
288736,-24,-12,24,96,1195,-8090,1745145113522550396
288928,-29,-11,27,144,1228,-8074,1745145113522550396
289120,-33,-13,28,156,1234,-8052,1745145113522550396
289312,-37,-15,28,149,1247,-8028,1745145113522550396
289504,-36,-19,27,136,1272,-8008,1745145113522550396
289696,-33,-24,25,136,1295,-7995,1745145113522550396
289888,-26,-29,23,124,1290,-7984,1745145113522550396
290080,-19,-33,19,106,1270,-7986,1745145113581400640
290272,-13,-35,17,107,1244,-8010,1745145113581400640
290464,-6,-37,15,107,1196,-8028,1745145113581400640
290656,-1,-39,12,112,1166,-8043,1745145113581400640
290848,0,-39,10,129,1113,-8063,1745145113581400640
291040,-1,-39,7,136,1114,-8064,1745145113581400640
291232,-5,-38,7,129,1091,-8069,1745145113581400640
291424,-13,-39,6,120,1104,-8064,1745145113581400640
291616,-21,-40,7,108,1121,-8071,1745145113581400640
291808,-29,-41,4,96,1146,-8052,1745145113581400640
292000,-34,-42,3,97,1145,-8051,1745145113581400640
292192,-40,-44,2,97,1175,-8033,1745145113581400640
292384,-44,-47,2,70,1198,-8016,1745145113640579162
292576,-46,-50,3,54,1221,-8010,1745145113640579162
292768,-46,-52,4,52,1232,-8001,1745145113640579162
292960,-44,-56,3,44,1241,-7991,1745145113640579162
293152,-41,-59,2,54,1225,-7998,1745145113640579162
293344,-38,-60,3,71,1216,-8014,1745145113640579162
293536,-40,-59,3,93,1154,-8086,1745145113640579162
293728,-114,-40,-10,-112,390,-7992,1745145113640579162
293920,-225,-10,-44,-298,-495,-8072,1745145113640579162
294112,-355,43,-80,-633,-100,-8059,1745145113640579162
294304,-416,112,-75,-636,936,-8080,1745145113640579162
294496,-407,151,-37,-418,1700,-7853,1745145113640579162
294688,-371,162,-21,-48,1646,-7979,1745145113697619422
294880,-350,151,-41,211,1697,-8025,1745145113697619422
295072,-323,126,-68,458,1932,-8062,1745145113697619422
295264,-286,85,-82,639,1902,-7992,1745145113697619422
295456,-241,43,-83,549,1938,-7918,1745145113697619422
295648,-188,12,-68,378,1939,-7900,1745145113697619422
295840,-141,-12,-48,295,1849,-7917,1745145113697619422
296032,-95,-36,-31,291,1732,-7961,1745145113697619422
296224,-68,-56,-25,302,1564,-7994,1745145113697619422
296416,-46,-68,-25,224,1563,-8011,1745145113697619422
296608,-17,-75,-22,139,1712,-7991,1745145113697619422
296800,24,-83,-13,118,1830,-8016,1745145113697619422
296992,61,-93,-9,160,1810,-8050,1745145113757603562
297184,86,-104,-12,182,1712,-8069,1745145113757603562
297376,104,-113,-17,156,1610,-8063,1745145113757603562
297568,121,-115,-20,112,1475,-8057,1745145113757603562
297760,131,-116,-20,37,1387,-8054,1745145113757603562
297952,136,-110,-21,-2,1247,-8050,1745145113757603562
298144,132,-106,-20,-39,1165,-8083,1745145113757603562
298336,136,-98,-21,-146,1166,-8018,1745145113757603562
298528,143,-93,-20,-65,1251,-8139,1745145113757603562
298720,118,-77,-21,-17,1240,-8113,1745145113757603562
298912,101,-70,-25,14,1223,-8097,1745145113757603562
299104,90,-65,-29,40,1199,-8135,1745145113757603562
299296,48,-58,-35,118,967,-8124,1745145113816135579
299488,-1,-54,-47,94,783,-8070,1745145113816135579
299680,-36,-51,-52,22,876,-8087,1745145113816135579
299872,-55,-46,-49,-17,1049,-8054,1745145113816135579
300064,-65,-48,-45,42,1226,-8077,1745145113816135579
300256,-69,-56,-45,91,1414,-8082,1745145113816135579
300448,-66,-56,-47,10,1542,-8024,1745145113816135579
300640,-38,-52,-49,-120,1676,-8032,1745145113816135579
300832,-14,-47,-51,-127,1644,-8046,1745145113816135579
301024,1,-44,-53,-57,1532,-8061,1745145113816135579
301216,6,-42,-55,18,1417,-8058,1745145113816135579
301408,11,-38,-51,15,1377,-8035,1745145113816135579
301600,13,-36,-46,-4,1334,-8043,1745145113874100675
301792,11,-32,-43,-32,1308,-8060,1745145113874100675
301984,8,-30,-42,-74,1282,-8046,1745145113874100675
302176,6,-26,-42,-91,1275,-8020,1745145113874100675
302368,5,-22,-41,-98,1260,-8019,1745145113874100675
302560,2,-16,-40,-86,1266,-7994,1745145113874100675
302752,-2,-12,-38,-135,1299,-7921,1745145113874100675
302944,5,-9,-34,-175,1409,-7846,1745145113874100675
303136,22,-7,-27,-170,1470,-7758,1745145113874100675
303328,65,-22,-11,-90,1553,-7703,1745145113874100675
303520,70,-30,-2,123,1547,-7994,1745145113874100675
303712,64,-25,-4,116,1621,-7866,1745145113874100675
303904,76,-43,16,-46,1702,-7779,1745145113937832905
304096,63,-83,91,-193,1568,-7664,1745145113937832905
304288,61,-134,174,286,707,-8205,1745145113937832905
304480,60,-86,66,86,1029,-8268,1745145113937832905
304672,28,-35,7,-46,1004,-7994,1745145113937832905
304864,6,-34,-10,-116,1083,-7996,1745145113937832905
305056,-9,-29,-20,-42,1101,-8003,1745145113937832905
305248,-18,-39,-21,27,1158,-7961,1745145113937832905
305440,-29,-49,-16,145,1207,-7959,1745145113937832905
305632,-39,-72,-11,241,1253,-7952,1745145113937832905
305824,-43,-94,-10,275,1289,-7942,1745145113937832905
306016,-44,-116,-14,217,1316,-7944,1745145113937832905
306208,-48,-123,-22,-47,1225,-7912,1745145113996229507
306400,-57,-110,-35,-356,1177,-7899,1745145113996229507
306592,-61,-91,-38,-484,1215,-7915,1745145113996229507
306784,-66,-67,-32,-533,1219,-7918,1745145113996229507
306976,-73,-44,-19,-388,1326,-7931,1745145113996229507
307168,-71,-35,-7,-165,1514,-7955,1745145113996229507
307360,-57,-40,3,70,1670,-7964,1745145113996229507
307552,-37,-55,6,191,1700,-7989,1745145113996229507
307744,-16,-73,3,198,1599,-8008,1745145113996229507
307936,-3,-88,-7,100,1459,-8041,1745145113996229507
308128,2,-95,-17,-34,1329,-8065,1745145113996229507
308320,-7,-90,-22,-191,1177,-8115,1745145113996229507
309472,-170,17,1,-77,1227,-8142,1745145116113088763
389728,318,-135,56,-164,2031,-8000,1745145116113088763
389920,261,-211,57,24,761,-8496,1745145116113088763
390112,97,-143,35,-161,1096,-8237,1745145116113088763
390304,58,-164,32,-310,1226,-8144,1745145116113088763
390496,32,-152,29,-370,1426,-8261,1745145116113088763
390688,1,-112,24,-387,1404,-8235,1745145116113088763
390880,-24,-110,11,-418,1308,-8290,1745145116113088763
391072,-75,-89,3,-452,1355,-8234,1745145116113088763
391264,-94,-70,5,-485,1499,-8160,1745145116113088763
391456,-111,-60,11,-470,1600,-8110,1745145116113088763
391648,-129,-31,16,-466,1646,-8063,1745145116113088763
391840,-139,-14,15,-496,1669,-8009,1745145116171132920
392032,-152,5,12,-559,1720,-8025,1745145116171132920
392224,-151,38,10,-633,1828,-8131,1745145116171132920
392416,-135,72,12,-705,2051,-8276,1745145116171132920
392608,-103,120,16,-744,2295,-8409,1745145116171132920
392800,-63,173,14,-729,2410,-8441,1745145116171132920
392992,-23,217,3,-653,2520,-8408,1745145116171132920
393184,-63,232,-9,-490,2412,-8591,1745145116171132920
393376,111,292,6,-462,3236,-7983,1745145116171132920
393568,159,288,18,-164,2648,-7983,1745145116171132920
393760,197,302,-10,91,2369,-8126,1745145116171132920
393952,224,265,-31,230,1875,-7808,1745145116171132920
394144,202,241,-45,513,1000,-7995,1745145116228971142
394336,140,353,-18,407,12,-7221,1745145116228971142
394528,-131,339,-93,-284,-975,-6385,1745145116228971142
394720,-130,127,-72,-435,-338,-6742,1745145116228971142
394912,-141,1,-25,-370,356,-7215,1745145116228971142
395104,-158,61,11,-312,1671,-8405,1745145116228971142
395296,-227,200,32,-411,2021,-7791,1745145116228971142
395488,-182,211,-15,-240,2511,-7829,1745145116228971142
395680,-123,209,-52,-17,2654,-8007,1745145116228971142
395872,-64,201,-85,209,2618,-8120,1745145116228971142
396064,-25,175,-97,355,2511,-8095,1745145116228971142
396256,7,135,-81,385,2336,-8004,1745145116228971142
396448,33,89,-51,335,2173,-7913,1745145116287768522
396640,50,54,-24,199,1981,-7877,1745145116287768522
396832,67,35,-13,4,1826,-7839,1745145116287768522
397024,76,32,-14,-147,1677,-7826,1745145116287768522
397216,76,40,-22,-254,1549,-7828,1745145116287768522
397408,69,55,-32,-294,1466,-7848,1745145116287768522
397600,53,71,-40,-254,1413,-7904,1745145116287768522
397792,35,87,-39,-187,1422,-7939,1745145116287768522
397984,17,98,-34,-100,1512,-7958,1745145116287768522
398176,2,103,-28,-27,1630,-7964,1745145116287768522
398368,-7,101,-24,42,1726,-7977,1745145116287768522
398560,-9,95,-24,78,1802,-7952,1745145116287768522
398752,-6,85,-27,100,1867,-7947,1745145116346302622
398944,2,75,-30,82,1874,-7911,1745145116346302622
399136,10,65,-32,64,1871,-7891,1745145116346302622
399328,15,56,-32,56,1832,-7873,1745145116346302622
399520,19,50,-32,29,1797,-7856,1745145116346302622
399712,22,46,-33,-11,1762,-7853,1745145116346302622
399904,25,45,-34,-21,1737,-7864,1745145116346302622
400096,28,45,-35,-27,1706,-7878,1745145116346302622
400288,28,46,-38,-7,1685,-7913,1745145116346302622
400480,29,46,-38,-11,1677,-7939,1745145116346302622
400672,27,44,-39,12,1654,-7978,1745145116346302622
400864,25,42,-40,19,1652,-7979,1745145116346302622
401056,20,38,-40,17,1641,-7981,1745145116402563931
401248,13,34,-40,20,1650,-7961,1745145116402563931
401440,6,31,-40,1,1649,-7947,1745145116402563931
401632,-1,29,-39,-15,1656,-7926,1745145116402563931
401824,-7,27,-40,-16,1654,-7912,1745145116402563931
402016,-13,26,-40,0,1672,-7904,1745145116402563931
402208,-18,25,-41,13,1679,-7875,1745145116402563931
402400,-22,21,-41,10,1691,-7876,1745145116402563931
402592,-26,18,-41,28,1719,-7876,1745145116402563931
402784,-28,14,-42,23,1729,-7888,1745145116402563931
402976,-29,10,-42,34,1744,-7896,1745145116402563931
403168,-28,4,-43,28,1764,-7919,1745145116402563931
403360,-27,-2,-45,27,1755,-7928,1745145116463098795
403552,-25,-5,-46,1,1746,-7900,1745145116463098795
403744,-25,-10,-47,-29,1737,-7895,1745145116463098795
403936,-25,-13,-46,-24,1719,-7898,1745145116463098795
404128,-26,-17,-45,-46,1716,-7882,1745145116463098795
404320,-27,-18,-43,-49,1695,-7875,1745145116463098795
404512,-30,-19,-42,-61,1695,-7878,1745145116463098795
404704,-33,-20,-42,-68,1698,-7888,1745145116463098795
404896,-35,-20,-42,-63,1706,-7898,1745145116463098795
405088,-37,-20,-41,-54,1720,-7900,1745145116463098795
405280,-37,-20,-40,-56,1738,-7894,1745145116463098795
405472,-36,-20,-41,-28,1759,-7906,1745145116463098795
405664,-35,-19,-44,-17,1780,-7899,1745145116520415198
405856,-33,-18,-47,-25,1801,-7912,1745145116520415198
406048,-30,-17,-47,-50,1827,-7907,1745145116520415198
406240,-25,-19,-44,-44,1843,-7912,1745145116520415198
406432,-18,-20,-41,-28,1831,-7939,1745145116520415198
406624,-13,-18,-42,-32,1805,-7930,1745145116520415198
406816,-10,-15,-44,-46,1812,-7955,1745145116520415198
407008,-7,-14,-42,-37,1792,-7975,1745145116520415198
407200,-4,-12,-41,-29,1769,-8021,1745145116520415198
407392,-2,-12,-41,-23,1768,-8043,1745145116520415198
407584,-3,-12,-42,-26,1753,-8050,1745145116520415198
407776,-4,-14,-43,-24,1742,-8038,1745145116520415198
407968,-5,-13,-45,-47,1705,-8001,1745145116579341691
408160,-8,-10,-46,-60,1657,-7970,1745145116579341691
408352,-12,-7,-46,-75,1627,-7940,1745145116579341691
408544,-19,-3,-44,-90,1630,-7929,1745145116579341691
408736,-28,3,-41,-98,1621,-7895,1745145116579341691
408928,-36,6,-42,-118,1651,-7866,1745145116579341691
409120,-40,11,-44,-89,1684,-7840,1745145116579341691
409312,-38,16,-45,-76,1725,-7852,1745145116579341691
409504,-32,20,-44,-63,1805,-7868,1745145116579341691
409696,-23,19,-44,-54,1861,-7906,1745145116579341691
409888,-12,15,-44,-37,1933,-7956,1745145116579341691
410080,-2,10,-45,-34,1966,-8014,1745145116579341691
410272,7,8,-46,-35,1969,-8013,1745145116637571889
410464,13,8,-45,-57,1929,-7997,1745145116637571889
410656,18,8,-43,-57,1873,-7966,1745145116637571889
410848,22,9,-39,-65,1795,-7945,1745145116637571889
411040,21,11,-36,-47,1744,-7924,1745145116637571889
411232,19,13,-34,-40,1692,-7930,1745145116637571889
411424,15,17,-32,-8,1657,-7921,1745145116637571889
411616,12,22,-30,5,1638,-7916,1745145116637571889
411808,10,23,-30,9,1632,-7919,1745145116637571889
412000,9,21,-28,31,1645,-7953,1745145116637571889
412192,11,18,-27,34,1666,-8002,1745145116637571889
412384,10,16,-27,33,1680,-8022,1745145116637571889
412576,7,14,-26,20,1697,-8012,1745145116699730123
412768,-1,13,-24,-37,1722,-7993,1745145116699730123
412960,-9,12,-22,-82,1730,-7935,1745145116699730123
413152,-13,11,-18,-87,1726,-7927,1745145116699730123
413344,-14,11,-14,-88,1746,-7923,1745145116699730123
413536,-14,16,-11,-68,1765,-7891,1745145116699730123
413728,-14,20,-10,-55,1789,-7879,1745145116699730123
413920,-13,23,-8,-48,1832,-7911,1745145116699730123
414112,-11,24,-9,-48,1854,-7917,1745145116699730123
414304,-4,24,-8,-51,1863,-7948,1745145116699730123
414496,4,24,-8,-55,1861,-7984,1745145116699730123
414688,12,24,-8,-58,1858,-8018,1745145116699730123
414880,18,25,-8,-80,1819,-8023,1745145116753088125
415072,23,26,-6,-96,1784,-8003,1745145116753088125
415264,23,32,1,-91,1719,-8011,1745145116753088125
415456,20,38,6,-81,1681,-7980,1745145116753088125
415648,16,45,11,-68,1663,-7981,1745145116753088125
415840,10,53,13,-51,1669,-7978,1745145116753088125
416032,3,60,13,-22,1681,-7973,1745145116753088125
416224,-1,64,13,15,1689,-7977,1745145116753088125
416416,-3,67,12,26,1689,-7985,1745145116753088125
416608,-1,68,11,22,1696,-7998,1745145116753088125
416800,1,69,9,4,1693,-8024,1745145116753088125
416992,2,71,5,-27,1705,-8037,1745145116753088125
417184,1,75,1,-80,1717,-8043,1745145116810724890
417376,-5,81,-2,-111,1711,-8046,1745145116810724890
417568,-11,91,-6,-136,1719,-8033,1745145116810724890
417760,-14,101,-8,-148,1713,-8029,1745145116810724890
417952,-16,113,-8,-130,1718,-8025,1745145116810724890
418144,-17,125,-9,-64,1714,-8009,1745145116810724890
418336,-16,135,-10,-33,1720,-8003,1745145116810724890
418528,-16,144,-12,-6,1736,-7987,1745145116810724890
418720,-15,150,-14,11,1753,-7973,1745145116810724890
418912,-13,156,-15,24,1761,-7977,1745145116810724890
419104,-7,161,-17,45,1786,-7992,1745145116810724890
419296,3,166,-19,49,1793,-7994,1745145116810724890
419488,11,170,-23,68,1784,-7985,1745145116871570584
419680,17,173,-26,86,1739,-7982,1745145116871570584
419872,21,178,-26,92,1718,-7974,1745145116871570584
420064,23,183,-26,98,1679,-7952,1745145116871570584
420256,24,188,-25,116,1665,-7956,1745145116871570584
420448,23,192,-25,126,1663,-7965,1745145116871570584
420640,22,196,-26,151,1669,-7961,1745145116871570584
420832,23,199,-27,143,1671,-7957,1745145116871570584
421024,23,200,-29,188,1684,-7945,1745145116871570584
421216,22,199,-31,186,1691,-7947,1745145116871570584
421408,20,198,-31,193,1706,-7969,1745145116871570584
421600,19,198,-28,183,1740,-7978,1745145116871570584
421792,20,199,-22,171,1791,-7993,1745145116929665887
421984,19,200,-15,151,1830,-8008,1745145116929665887
422176,21,201,-6,152,1881,-8014,1745145116929665887
422368,22,200,3,175,1863,-7961,1745145116929665887
422560,22,195,10,225,1854,-7899,1745145116929665887
422752,19,187,19,271,1827,-7860,1745145116929665887
422944,12,174,27,299,1799,-7821,1745145116929665887
423136,7,162,37,323,1787,-7779,1745145116929665887
423328,4,150,46,338,1797,-7738,1745145116929665887
423520,3,137,55,355,1783,-7711,1745145116929665887
423712,4,123,63,361,1780,-7718,1745145116929665887
423904,6,109,71,365,1788,-7734,1745145116929665887
424096,9,96,77,368,1782,-7756,1745145116988480975
424288,14,85,83,374,1791,-7790,1745145116988480975
424480,19,75,87,351,1800,-7802,1745145116988480975
424672,24,66,91,331,1804,-7812,1745145116988480975
424864,30,58,94,314,1793,-7820,1745145116988480975
425056,36,51,98,304,1785,-7838,1745145116988480975
425248,45,44,102,298,1789,-7867,1745145116988480975
425440,55,39,103,301,1766,-7891,1745145116988480975
425632,63,34,101,285,1730,-7908,1745145116988480975
425824,69,28,99,288,1703,-7914,1745145116988480975
426016,72,23,96,268,1669,-7896,1745145116988480975
426208,75,20,95,253,1627,-7907,1745145116988480975
426400,75,17,92,244,1582,-7910,1745145117046703047
426592,74,15,89,227,1532,-7904,1745145117046703047
426784,69,14,86,226,1521,-7904,1745145117046703047
426976,62,14,81,224,1481,-7895,1745145117046703047
427168,56,17,76,240,1468,-7890,1745145117046703047
427360,49,21,73,236,1489,-7893,1745145117046703047
427552,44,25,68,247,1509,-7924,1745145117046703047
427744,41,28,62,246,1544,-7943,1745145117046703047
427936,41,30,54,251,1574,-7946,1745145117046703047
428128,42,34,45,259,1584,-7947,1745145117046703047
428320,44,36,37,279,1595,-7945,1745145117046703047
428512,45,40,30,282,1601,-7982,1745145117046703047
428704,44,46,20,302,1611,-8016,1745145117105264335
428896,43,54,10,291,1592,-8041,1745145117105264335
429088,46,68,1,295,1608,-8094,1745145117105264335
429280,50,88,-8,298,1586,-8150,1745145117105264335
429472,55,114,-16,330,1593,-8234,1745145117105264335
429664,61,143,-27,354,1585,-8368,1745145117105264335
429856,67,176,-43,374,1583,-8547,1745145117105264335
430048,77,214,-64,368,1561,-8716,1745145117105264335
430240,96,258,-88,361,1527,-8966,1745145117105264335
430432,120,310,-112,366,1425,-9226,1745145117105264335
430624,139,361,-137,404,1277,-9389,1745145117105264335
430816,154,419,-162,442,1047,-9559,1745145117105264335
431008,152,466,-182,583,762,-9731,1745145117160299666
431200,139,490,-194,789,450,-9866,1745145117160299666
431392,112,527,-190,1013,140,-9980,1745145117160299666
431584,93,573,-156,1300,-81,-10252,1745145117160299666
431776,77,634,-103,1494,-343,-10013,1745145117160299666
431968,65,661,-61,1950,-747,-9798,1745145117160299666
432160,66,633,-14,2611,-1290,-10016,1745145117160299666
432352,86,576,35,3033,-1597,-10343,1745145117160299666
432544,107,520,73,3365,-1634,-11175,1745145117160299666
432736,144,505,101,3790,-2099,-10519,1745145117160299666
432928,262,450,46,4440,-2654,-10795,1745145117160299666
433120,288,306,-18,5149,-3423,-11440,1745145117160299666
433312,228,107,-72,5542,-3997,-11722,1745145117221739000
433504,157,-67,-143,5634,-4392,-12662,1745145117221739000
433696,88,-154,-177,4882,-4414,-12722,1745145117221739000
433888,-53,-153,-96,4049,-3636,-12355,1745145117221739000
434080,-310,137,111,4374,-2669,-11194,1745145117221739000
434272,-643,317,504,5273,-5005,-11726,1745145117221739000
434464,-831,209,970,5678,-7798,-10736,1745145117221739000
434656,-664,31,1256,5057,-7840,-10465,1745145117221739000
434848,-484,22,1472,4712,-7591,-10730,1745145117221739000
435040,-427,135,1588,4421,-7643,-10817,1745145117221739000
435232,-448,173,1760,4436,-8152,-10799,1745145117221739000
435424,-374,135,2060,4680,-8704,-10544,1745145117221739000
435616,-226,72,2416,5119,-9095,-10225,1745145117506148225
435808,-117,12,2735,5560,-9410,-10086,1745145117506148225
436000,-100,-35,2965,5771,-9575,-9938,1745145117506148225
436192,-130,-50,3123,5750,-9414,-9904,1745145117506148225
436384,-136,-38,3247,5698,-8835,-9999,1745145117506148225
436576,-116,-22,3352,5731,-8013,-10083,1745145117506148225
436768,-89,-24,3449,5942,-7229,-10114,1745145117506148225
436960,-58,-43,3555,6264,-6564,-10060,1745145117506148225
437152,-3,-75,3687,6596,-5984,-9971,1745145117506148225
437344,76,-103,3845,6900,-5413,-9959,1745145117506148225
437536,163,-114,4013,7086,-4792,-9911,1745145117506148225
437728,272,-101,4184,7085,-4103,-9839,1745145117506148225
437920,388,-78,4353,7080,-3397,-9871,1745145117547409983
438112,519,-24,4522,7066,-2834,-9806,1745145117547409983
438304,657,33,4688,7125,-2428,-9652,1745145117547409983
438496,820,71,4851,7113,-2276,-8899,1745145117547409983
438688,975,31,4992,7546,-2197,-9125,1745145117547409983
438880,1096,64,5122,7817,-2152,-8837,1745145117547409983
439072,1169,126,5232,8207,-2283,-8451,1745145117547409983
439264,1181,156,5317,8591,-2409,-8200,1745145117547409983
439456,1141,187,5391,8948,-2501,-8035,1745145117547409983
439648,1059,227,5452,9235,-2451,-7739,1745145117547409983
439840,937,278,5496,9500,-2279,-7624,1745145117547409983
440032,791,331,5533,9816,-1972,-7459,1745145117547409983
440224,632,382,5569,10194,-1571,-7410,1745145117590995106
440416,481,413,5605,10704,-1147,-7377,1745145117590995106
440608,355,433,5641,11180,-652,-7398,1745145117590995106
440800,249,444,5676,11610,-113,-7528,1745145117590995106
440992,168,450,5714,11891,467,-7593,1745145117590995106
441184,103,465,5771,12082,989,-7676,1745145117590995106
441376,58,487,5842,12202,1367,-7708,1745145117590995106
441568,27,521,5907,12270,1798,-7644,1745145117590995106
441760,-13,570,5985,12273,2096,-7602,1745145117590995106
441952,-58,639,6077,12235,2381,-7423,1745145117590995106
442144,-113,707,6172,12355,2461,-7356,1745145117590995106
442336,-175,766,6248,12603,2456,-7225,1745145117590995106
442528,-250,813,6303,12937,2360,-7006,1745145117636205266
442720,-330,849,6339,13257,2279,-6850,1745145117636205266
442912,-416,881,6356,13549,2324,-6742,1745145117636205266
443104,-506,907,6361,13836,2469,-6670,1745145117636205266
443296,-588,922,6349,14080,2688,-6563,1745145117636205266
443488,-650,920,6311,14263,2999,-6454,1745145117636205266
443680,-697,894,6260,14395,3342,-6394,1745145117636205266
443872,-720,851,6200,14422,3734,-6244,1745145117636205266
444064,-723,794,6141,14413,4107,-6151,1745145117636205266
444256,-710,722,6075,14293,4465,-6047,1745145117636205266
444448,-685,635,5994,14073,4680,-5957,1745145117636205266
444640,-661,534,5895,13662,4890,-5935,1745145117636205266
444832,-646,428,5812,13109,5012,-5810,1745145117682776195
445024,-644,326,5760,12527,4980,-5592,1745145117682776195
445216,-677,227,5705,11997,4750,-5323,1745145117682776195
445408,-759,128,5609,11436,4566,-5038,1745145117682776195
445600,-885,31,5488,10787,4413,-4805,1745145117682776195
445792,-1047,-51,5347,10103,4316,-4665,1745145117682776195
445984,-1233,-114,5192,9375,4328,-4546,1745145117682776195
446176,-1436,-165,5033,8637,4432,-4503,1745145117682776195
446368,-1646,-208,4867,7865,4643,-4603,1745145117682776195
446560,-1847,-245,4688,7060,4921,-4750,1745145117682776195
446752,-2017,-269,4477,6318,5310,-4892,1745145117682776195
446944,-2148,-277,4232,5544,5798,-5076,1745145117682776195
447136,-2248,-280,3985,4901,6198,-5161,1745145117731526947
447328,-2307,-279,3735,4211,6658,-5084,1745145117731526947
447520,-2324,-264,3499,3585,6953,-5143,1745145117731526947
447712,-2293,-252,3256,3069,7278,-5204,1745145117731526947
447904,-2228,-230,3015,2604,7640,-5367,1745145117731526947
448096,-2147,-207,2805,2202,7986,-5566,1745145117731526947
448288,-2054,-192,2610,1987,7899,-5604,1745145117731526947
448480,-1932,-205,2376,1788,7808,-5549,1745145117731526947
448672,-1783,-222,2139,1641,7660,-5488,1745145117731526947
448864,-1621,-239,1898,1518,7378,-5463,1745145117731526947
449056,-1454,-258,1669,1479,7037,-5402,1745145117731526947
449248,-1282,-266,1454,1439,6641,-5387,1745145117731526947
449440,-1104,-256,1259,1386,6229,-5553,1745145117776593202
449632,-914,-239,1091,1386,5855,-5672,1745145117776593202
449824,-712,-222,952,1454,5526,-5741,1745145117776593202
450016,-512,-207,835,1550,5257,-5791,1745145117776593202
450208,-326,-192,736,1642,5057,-5872,1745145117776593202
450400,-153,-178,659,1707,4872,-5969,1745145117776593202
450592,14,-167,610,1737,4664,-6089,1745145117776593202
450784,178,-168,584,1795,4401,-6135,1745145117776593202
450976,334,-176,578,1835,4137,-6194,1745145117776593202
451168,466,-184,587,1853,3845,-6244,1745145117776593202
451360,560,-192,609,1919,3481,-6254,1745145117776593202
451552,620,-209,640,1936,3067,-6206,1745145117776593202
451744,646,-228,672,1895,2675,-6188,1745145117819661038
451936,641,-239,702,1713,2337,-6174,1745145117819661038
452128,608,-237,730,1462,2055,-6229,1745145117819661038
452320,555,-229,753,1178,1785,-6321,1745145117819661038
452512,487,-222,777,957,1517,-6434,1745145117819661038
452704,417,-213,813,770,1328,-6543,1745145117819661038
452896,342,-192,857,598,1236,-6652,1745145117819661038
453088,260,-166,893,458,1240,-6751,1745145117819661038
453280,175,-137,919,394,1301,-6847,1745145117819661038
453472,89,-98,933,515,1418,-7253,1745145117819661038
453664,-30,-26,916,537,1497,-7093,1745145117819661038
453856,-129,8,870,649,1594,-6984,1745145117819661038
454048,-207,20,810,797,1676,-7065,1745145117871131037
454240,-275,27,744,988,1794,-7021,1745145117871131037
454432,-322,29,687,1032,1904,-6973,1745145117871131037
454624,-338,22,633,1116,2025,-6974,1745145117871131037
454816,-359,28,566,1140,2102,-7024,1745145117871131037
455008,-379,36,480,1086,2181,-7005,1745145117871131037
455200,-378,20,410,978,2334,-6983,1745145117871131037
455392,-368,3,372,881,2392,-6939,1745145117871131037
455584,-339,-19,352,871,2361,-6961,1745145117871131037
455776,-303,-33,332,921,2260,-7009,1745145117871131037
455968,-263,-40,303,955,2133,-7060,1745145117871131037
456160,-221,-45,265,958,2054,-7096,1745145117871131037
456352,-186,-46,223,905,2046,-7166,1745145117919525699
456544,-163,-44,187,841,2027,-7158,1745145117919525699
456736,-141,-40,161,812,1940,-7173,1745145117919525699
456928,-118,-32,143,805,1792,-7246,1745145117919525699
457120,-92,-17,130,831,1673,-7244,1745145117919525699
457312,-66,-5,113,848,1574,-7292,1745145117919525699
457504,-47,3,96,883,1508,-7319,1745145117919525699
457696,-36,11,78,914,1425,-7323,1745145117919525699
457888,-24,19,64,948,1330,-7300,1745145117919525699
458080,-11,28,56,959,1301,-7262,1745145117919525699
458272,-1,32,47,970,1241,-7254,1745145117919525699
458464,4,32,34,973,1178,-7282,1745145117919525699
458656,10,34,21,938,1117,-7348,1745145117944666823
458848,18,43,10,884,1056,-7377,1745145117944666823
459040,25,52,1,841,996,-7425,1745145117944666823
459232,30,64,-5,807,950,-7489,1745145117944666823
459424,35,76,-9,761,935,-7562,1745145117944666823
459616,49,92,-11,751,918,-7616,1745145117944666823
459808,64,106,-13,831,842,-7694,1745145117944666823
460000,79,118,-14,967,734,-7724,1745145117944666823
460192,100,126,-13,1124,633,-7776,1745145117944666823
460384,124,131,-15,1205,557,-7801,1745145117944666823
460576,149,134,-20,1251,523,-7903,1745145117944666823
460768,175,132,-33,1245,504,-7977,1745145117944666823
460960,201,128,-48,1216,450,-7987,1745145117967775831
461152,226,120,-58,1169,386,-8064,1745145117967775831
461344,246,115,-61,1101,303,-8148,1745145117967775831
461536,261,116,-56,1041,230,-8194,1745145117967775831
461728,268,121,-49,1014,187,-8250,1745145117967775831
461920,266,129,-39,1025,137,-8339,1745145117967775831
462112,255,135,-30,1086,25,-8346,1745145117967775831
462304,239,137,-21,1189,-87,-8326,1745145117967775831
462496,221,134,-12,1275,-196,-8312,1745145117967775831
462688,197,129,-4,1331,-272,-8354,1745145117967775831
462880,169,128,1,1347,-299,-8378,1745145117967775831
463072,141,129,0,1330,-283,-8397,1745145117967775831
463264,112,130,-3,1324,-257,-8425,1745145117991103482
463456,85,125,-10,1332,-235,-8471,1745145117991103482
463648,56,115,-17,1328,-233,-8471,1745145117991103482
463840,29,101,-21,1344,-251,-8455,1745145117991103482
464032,5,85,-23,1361,-281,-8450,1745145117991103482
464224,-18,74,-24,1346,-267,-8428,1745145117991103482
464416,-40,66,-26,1300,-199,-8386,1745145117991103482
464608,-62,62,-28,1267,-114,-8405,1745145117991103482
464800,-82,59,-33,1255,-29,-8462,1745145117991103482
464992,-94,56,-34,1261,39,-8458,1745145117991103482
465184,-96,51,-35,1299,93,-8425,1745145117991103482
465376,-96,42,-40,1376,121,-8391,1745145117991103482
465568,-95,30,-46,1426,116,-8348,1745145118037357383
465760,-89,18,-56,1423,127,-8308,1745145118037357383
465952,-78,6,-68,1404,136,-8268,1745145118037357383
466144,-66,-3,-81,1354,128,-8220,1745145118037357383
466336,-54,-10,-92,1305,86,-8187,1745145118037357383
466528,-40,-12,-99,1249,84,-8154,1745145118037357383
466720,-28,-12,-104,1182,110,-8153,1745145118037357383
466912,-19,-8,-106,1158,105,-8138,1745145118037357383
467104,-9,-3,-106,1169,71,-8146,1745145118037357383
467296,5,3,-103,1212,9,-8149,1745145118037357383
467488,22,12,-99,1290,-65,-8110,1745145118037357383
467680,41,22,-95,1336,-67,-8148,1745145118037357383
467872,57,33,-94,1346,-71,-8186,1745145118098202192
468064,75,39,-98,1345,-55,-8219,1745145118098202192
468256,92,39,-102,1349,-61,-8205,1745145118098202192
468448,110,35,-105,1380,-107,-8203,1745145118098202192
468640,127,28,-103,1422,-170,-8168,1745145118098202192
468832,139,20,-102,1456,-226,-8124,1745145118098202192
469024,142,8,-104,1464,-293,-8081,1745145118098202192
469216,139,-10,-108,1483,-369,-8064,1745145118098202192
469408,131,-27,-113,1437,-438,-8053,1745145118098202192
469600,120,-43,-122,1400,-517,-8069,1745145118098202192
469792,103,-52,-132,1337,-565,-8100,1745145118098202192
469984,79,-54,-142,1283,-602,-8161,1745145118098202192
470176,54,-55,-146,1241,-642,-8154,1745145118156080725
470368,34,-53,-148,1219,-648,-8162,1745145118156080725
470560,19,-48,-147,1210,-625,-8155,1745145118156080725
470752,7,-39,-147,1245,-618,-8136,1745145118156080725
470944,-6,-37,-145,1315,-657,-8088,1745145118156080725
471136,-10,-39,-139,1377,-700,-8048,1745145118156080725
471328,-5,-42,-130,1380,-698,-8001,1745145118156080725
471520,4,-42,-124,1363,-652,-7962,1745145118156080725
471712,9,-40,-120,1333,-630,-7993,1745145118156080725
471904,9,-40,-115,1324,-629,-7978,1745145118156080725
472096,12,-40,-108,1314,-657,-7956,1745145118156080725
472288,16,-41,-100,1294,-666,-7950,1745145118156080725
472480,16,-38,-92,1258,-673,-7965,1745145118214778679
472672,15,-33,-87,1236,-671,-7973,1745145118214778679
472864,10,-26,-85,1216,-690,-7961,1745145118214778679
473056,6,-19,-83,1206,-705,-7974,1745145118214778679
473248,6,-11,-78,1212,-731,-7983,1745145118214778679
473440,10,-5,-72,1200,-739,-7988,1745145118214778679
473632,20,2,-68,1188,-736,-7969,1745145118214778679
473824,28,7,-66,1200,-727,-7949,1745145118214778679
474016,33,9,-65,1237,-703,-7958,1745145118214778679
474208,39,12,-62,1223,-700,-7945,1745145118214778679
474400,47,14,-59,1207,-664,-7966,1745145118214778679
474592,53,14,-56,1191,-643,-8002,1745145118214778679
474784,58,13,-53,1182,-631,-7991,1745145118277963414
474976,61,12,-50,1189,-611,-8010,1745145118277963414
475168,59,12,-44,1226,-618,-8033,1745145118277963414
475360,55,12,-38,1250,-642,-8056,1745145118277963414
475552,54,12,-33,1265,-663,-8062,1745145118277963414
475744,53,11,-31,1269,-648,-8016,1745145118277963414
475936,49,11,-33,1274,-657,-8016,1745145118277963414
476128,47,11,-35,1251,-652,-8004,1745145118277963414
476320,48,10,-37,1210,-629,-8032,1745145118277963414
476512,53,8,-37,1221,-638,-8053,1745145118277963414
476704,56,3,-36,1224,-662,-8030,1745145118277963414
476896,58,-2,-34,1216,-697,-8028,1745145118277963414
477088,58,-6,-31,1192,-697,-7997,1745145118329707264
477280,57,-5,-27,1152,-693,-7983,1745145118329707264
477472,48,-3,-23,1132,-693,-7991,1745145118329707264
477664,37,-1,-17,1156,-731,-7969,1745145118329707264
477856,26,1,-8,1158,-735,-7947,1745145118329707264
478048,16,6,2,1165,-727,-7939,1745145118329707264
478240,6,12,7,1183,-674,-7933,1745145118329707264
478432,-3,17,9,1157,-604,-7973,1745145118329707264
478624,-6,22,11,1167,-536,-8029,1745145118329707264
478816,-1,23,11,1189,-515,-8033,1745145118329707264
479008,8,23,11,1208,-514,-8011,1745145118329707264
479200,19,21,10,1235,-509,-8034,1745145118329707264
479392,31,22,6,1231,-503,-8037,1745145118384883844
479584,40,23,2,1207,-491,-8025,1745145118384883844
479776,45,22,-2,1201,-483,-8018,1745145118384883844
479968,50,20,-7,1203,-508,-7986,1745145118384883844
480160,56,20,-6,1202,-529,-7999,1745145118384883844
480352,61,21,-3,1228,-543,-8013,1745145118384883844
480544,65,21,-1,1251,-564,-7991,1745145118384883844
480736,68,22,1,1255,-561,-8004,1745145118384883844
480928,67,20,1,1267,-564,-8014,1745145118384883844
481120,64,18,1,1256,-561,-8007,1745145118384883844
481312,60,15,2,1261,-574,-8011,1745145118384883844
481504,53,12,2,1257,-611,-8022,1745145118384883844
481696,47,9,4,1222,-615,-7992,1745145118453388843
481888,42,6,3,1199,-637,-7986,1745145118453388843
482080,37,5,1,1159,-621,-7996,1745145118453388843
482272,32,9,1,1118,-568,-8006,1745145118453388843
482464,28,18,1,1116,-502,-8047,1745145118453388843
482656,25,26,4,1145,-447,-8051,1745145118453388843
482848,25,27,7,1228,-449,-8063,1745145118453388843
483040,30,26,12,1302,-475,-8080,1745145118453388843
483232,40,20,13,1355,-516,-8051,1745145118453388843
483424,52,15,10,1377,-535,-8060,1745145118453388843
483616,59,9,2,1338,-559,-8047,1745145118453388843
483808,62,6,-5,1286,-580,-8035,1745145118453388843
484000,63,5,-8,1239,-585,-7992,1745145118511747685
484192,62,3,-6,1213,-599,-7984,1745145118511747685
484384,55,1,-4,1209,-627,-7981,1745145118511747685
484576,44,-3,-2,1199,-680,-7974,1745145118511747685
484768,31,-6,1,1206,-724,-7975,1745145118511747685
484960,16,-7,4,1209,-778,-7984,1745145118511747685
485152,3,-4,7,1194,-770,-8011,1745145118511747685
485344,-8,4,11,1167,-734,-8056,1745145118511747685
485536,-18,16,15,1145,-668,-8100,1745145118511747685
485728,-24,25,21,1156,-580,-8112,1745145118511747685
485920,-23,32,27,1181,-513,-8101,1745145118511747685
486112,-16,35,32,1243,-472,-8099,1745145118511747685
486304,-4,32,35,1286,-450,-8079,1745145118567074106
486496,8,28,36,1303,-447,-8069,1745145118567074106
486688,21,23,35,1297,-442,-8063,1745145118567074106
486880,31,18,32,1293,-433,-8032,1745145118567074106
487072,35,11,26,1273,-460,-7996,1745145118567074106
487264,33,2,22,1261,-525,-7972,1745145118567074106
487456,31,-5,19,1227,-567,-7960,1745145118567074106
487648,27,-6,16,1170,-563,-7972,1745145118567074106
487840,18,-3,11,1138,-546,-8026,1745145118567074106
488032,7,2,5,1123,-512,-8047,1745145118567074106
488224,-5,8,2,1149,-503,-8065,1745145118567074106
488416,-14,12,4,1171,-491,-8047,1745145118567074106
488608,-16,14,7,1223,-495,-8021,1745145118628860000
488800,-12,13,10,1276,-475,-8018,1745145118628860000
488992,-4,11,9,1284,-430,-8026,1745145118628860000
489184,6,9,8,1269,-399,-8006,1745145118628860000
489376,18,7,5,1281,-359,-7970,1745145118628860000
489568,31,3,3,1267,-349,-7933,1745145118628860000
489760,40,-1,3,1257,-355,-7902,1745145118628860000
489952,45,-6,0,1262,-367,-7883,1745145118628860000
490144,43,-9,0,1271,-434,-7873,1745145118628860000
490336,37,-11,-4,1255,-482,-7877,1745145118628860000
490528,27,-11,-8,1241,-523,-7869,1745145118628860000
490720,13,-10,-14,1241,-575,-7860,1745145118628860000
490912,-1,-8,-19,1210,-607,-7868,1745145118684029132
491104,-15,-7,-26,1166,-600,-7893,1745145118684029132
491296,-25,0,-30,1129,-594,-7920,1745145118684029132
491488,-32,9,-31,1117,-567,-7932,1745145118684029132
491680,-35,20,-29,1135,-521,-7970,1745145118684029132
491872,-35,30,-24,1181,-479,-7956,1745145118684029132
492064,-29,35,-17,1219,-436,-7948,1745145118684029132
492256,-18,36,-13,1241,-400,-7944,1745145118684029132
492448,-7,32,-10,1266,-380,-7917,1745145118684029132
492640,4,28,-10,1293,-413,-7903,1745145118684029132
492832,12,24,-10,1279,-464,-7940,1745145118684029132
493024,16,21,-11,1265,-510,-7934,1745145118684029132
493216,19,17,-10,1262,-563,-7942,1745145118742612294
493408,21,19,-9,1225,-584,-7971,1745145118742612294
493600,19,23,-9,1201,-581,-7954,1745145118742612294
493792,15,30,-11,1177,-534,-7939,1745145118742612294
493984,10,34,-12,1178,-478,-7959,1745145118742612294
494176,7,36,-13,1177,-441,-7954,1745145118742612294
494368,10,36,-13,1204,-431,-7987,1745145118742612294
494560,16,33,-12,1258,-442,-7985,1745145118742612294
494752,22,28,-13,1314,-477,-7972,1745145118742612294
494944,26,24,-15,1304,-501,-7982,1745145118742612294
495136,28,21,-19,1284,-497,-7990,1745145118742612294
495328,28,21,-24,1273,-517,-7997,1745145118742612294
495520,27,19,-29,1245,-550,-7979,1745145118801222801
495712,25,19,-31,1225,-580,-7950,1745145118801222801
495904,22,19,-31,1235,-604,-7950,1745145118801222801
496096,17,22,-30,1219,-620,-7963,1745145118801222801
496288,11,26,-31,1202,-591,-7980,1745145118801222801
496480,5,29,-32,1191,-575,-8008,1745145118801222801
496672,0,31,-31,1191,-578,-8003,1745145118801222801
496864,-3,33,-29,1221,-625,-7992,1745145118801222801
497056,-5,34,-26,1244,-628,-7984,1745145118801222801
497248,-6,34,-22,1257,-639,-7975,1745145118801222801
497440,-7,34,-20,1269,-629,-7963,1745145118801222801
497632,-8,35,-21,1248,-618,-7970,1745145118801222801
497824,-6,38,-21,1242,-597,-7974,1745145118862143703
498016,-2,41,-19,1239,-536,-7983,1745145118862143703
498208,3,42,-20,1257,-509,-8017,1745145118862143703
498400,7,42,-19,1294,-502,-8030,1745145118862143703
498592,13,39,-19,1322,-520,-8044,1745145118862143703
498784,23,34,-19,1322,-538,-8063,1745145118862143703
498976,34,30,-22,1301,-534,-8085,1745145118862143703
499168,39,26,-29,1275,-543,-8078,1745145118862143703
499360,44,25,-34,1252,-531,-8085,1745145118862143703
499552,50,28,-34,1225,-557,-8102,1745145118862143703
499744,53,29,-31,1273,-566,-8096,1745145118862143703
499936,53,25,-30,1301,-586,-8083,1745145118862143703
500128,52,20,-30,1330,-641,-8057,1745145118920775042
500320,49,15,-31,1337,-645,-8004,1745145118920775042
500512,45,11,-33,1341,-687,-8000,1745145118920775042
500704,35,5,-34,1324,-723,-8004,1745145118920775042
500896,25,3,-35,1266,-733,-8027,1745145118920775042
501088,14,6,-35,1225,-728,-8044,1745145118920775042
501280,3,13,-35,1205,-689,-8077,1745145118920775042
501472,-6,21,-33,1188,-663,-8120,1745145118920775042
501664,-9,29,-32,1204,-608,-8119,1745145118920775042
501856,-8,36,-29,1236,-545,-8123,1745145118920775042
502048,-3,39,-28,1315,-542,-8087,1745145118920775042
502240,5,35,-27,1419,-572,-8045,1745145118920775042
502432,19,25,-27,1434,-615,-8030,1745145118979014510
502624,34,17,-30,1399,-608,-8012,1745145118979014510
502816,45,12,-37,1347,-595,-8012,1745145118979014510
503008,46,7,-43,1308,-624,-7986,1745145118979014510
503200,40,0,-47,1298,-691,-7962,1745145118979014510
503392,34,-6,-43,1277,-774,-8011,1745145118979014510
503584,30,-6,-36,1262,-822,-8030,1745145118979014510
503776,23,-2,-29,1266,-834,-8067,1745145118979014510
503968,11,7,-25,1275,-826,-8071,1745145118979014510
504160,-2,12,-24,1280,-816,-8066,1745145118979014510
504352,-12,13,-18,1315,-809,-8059,1745145118979014510
504544,-12,14,-10,1332,-794,-8022,1745145118979014510
504736,-8,16,-2,1333,-747,-8035,1745145119037994544
504928,-7,17,1,1345,-688,-8044,1745145119037994544
505120,-8,20,2,1343,-661,-8033,1745145119037994544
505312,-7,18,3,1348,-630,-8019,1745145119037994544
505504,-4,17,3,1342,-640,-8008,1745145119037994544
505696,0,15,4,1322,-660,-8029,1745145119037994544
505888,3,13,1,1312,-680,-8062,1745145119037994544
506080,6,13,-3,1282,-673,-8063,1745145119037994544
506272,8,16,-7,1282,-675,-8055,1745145119037994544
506464,8,16,-10,1306,-687,-8043,1745145119037994544
506656,7,16,-11,1309,-684,-8029,1745145119037994544
506848,8,14,-10,1308,-671,-8034,1745145119037994544
507040,10,14,-11,1314,-647,-8044,1745145119096073753
507232,10,13,-12,1306,-630,-8042,1745145119096073753
507424,10,12,-13,1304,-615,-8050,1745145119096073753
507616,10,12,-11,1324,-632,-8063,1745145119096073753
507808,11,10,-8,1349,-674,-8062,1745145119096073753
508000,11,5,-5,1393,-721,-8044,1745145119096073753
508192,12,0,-4,1385,-748,-8037,1745145119096073753
508384,12,-1,-5,1351,-722,-8027,1745145119096073753
508576,5,1,-8,1334,-695,-8021,1745145119096073753
508768,-2,0,-9,1312,-684,-8005,1745145119096073753
508960,-8,-2,-7,1301,-682,-7980,1745145119096073753
509152,-10,-5,-3,1288,-662,-7968,1745145119096073753
509344,-10,-5,-1,1296,-623,-7981,1745145119154980923
509536,-15,-4,-1,1290,-628,-7977,1745145119154980923
509728,-21,-4,0,1309,-640,-7984,1745145119154980923
509920,-24,-5,2,1323,-649,-7983,1745145119154980923
510112,-21,-5,1,1309,-624,-7974,1745145119154980923
510304,-18,-5,1,1298,-602,-7954,1745145119154980923
510496,-15,-1,-2,1268,-574,-7944,1745145119154980923
510688,-13,3,-4,1254,-528,-7967,1745145119154980923
510880,-9,6,-4,1266,-516,-7967,1745145119154980923
511072,-1,7,-3,1283,-519,-7966,1745145119154980923
511264,8,9,-4,1293,-483,-7977,1745145119154980923
511456,14,12,-6,1314,-506,-7970,1745145119154980923
511648,17,11,-9,1342,-532,-7960,1745145119214873085
511840,18,5,-13,1363,-612,-7929,1745145119214873085
512032,20,1,-15,1339,-667,-7911,1745145119214873085
512224,23,3,-16,1284,-655,-7921,1745145119214873085
512416,22,7,-17,1248,-621,-7938,1745145119214873085
512608,16,11,-18,1240,-570,-7919,1745145119214873085
512800,7,13,-16,1249,-573,-7899,1745145119214873085
512992,1,12,-10,1296,-602,-7882,1745145119214873085
513184,-2,7,-5,1335,-626,-7869,1745145119214873085
513376,-4,4,-3,1345,-623,-7861,1745145119214873085
513568,-7,6,-5,1338,-586,-7866,1745145119214873085
513760,-12,9,-10,1294,-560,-7861,1745145119214873085
513952,-17,13,-13,1262,-522,-7877,1745145119269623053
514144,-15,19,-14,1254,-478,-7881,1745145119269623053
514336,-7,27,-12,1239,-434,-7887,1745145119269623053
514528,3,33,-12,1279,-387,-7878,1745145119269623053
514720,11,36,-15,1303,-369,-7853,1745145119269623053
514912,23,35,-19,1346,-371,-7801,1745145119269623053
515104,36,34,-23,1353,-376,-7783,1745145119269623053
515296,51,33,-27,1363,-398,-7762,1745145119269623053
515488,67,33,-31,1354,-407,-7759,1745145119269623053
515680,76,32,-38,1351,-436,-7730,1745145119269623053
515872,79,29,-46,1346,-480,-7705,1745145119269623053
516064,78,28,-53,1334,-509,-7681,1745145119269623053
516256,74,28,-59,1334,-572,-7666,1745145119330092345
516448,68,30,-63,1309,-623,-7705,1745145119330092345
516640,59,29,-66,1299,-699,-7693,1745145119330092345
516832,54,31,-68,1258,-739,-7696,1745145119330092345
517024,50,33,-71,1213,-715,-7732,1745145119330092345
517216,45,43,-70,1171,-693,-7753,1745145119330092345
517408,40,58,-67,1176,-690,-7795,1745145119330092345
517600,37,70,-60,1226,-702,-7842,1745145119330092345
517792,41,78,-51,1308,-709,-7876,1745145119330092345
517984,51,81,-42,1371,-720,-7882,1745145119330092345
518176,67,85,-38,1410,-716,-7894,1745145119330092345
518368,82,86,-38,1403,-707,-7900,1745145119330092345
518560,97,86,-38,1379,-685,-7917,1745145119383442274
518752,108,84,-36,1356,-701,-7924,1745145119383442274
518944,118,83,-32,1340,-738,-7937,1745145119383442274
519136,127,84,-25,1360,-794,-7947,1745145119383442274
519328,129,84,-18,1390,-835,-7968,1745145119383442274
519520,123,85,-12,1397,-873,-7950,1745145119383442274
519712,115,85,-8,1388,-893,-7966,1745145119383442274
519904,109,84,-6,1374,-886,-7982,1745145119383442274
520096,101,83,-6,1356,-873,-7991,1745145119383442274
520288,94,80,-5,1368,-920,-8027,1745145119383442274
520480,85,79,-2,1385,-950,-8075,1745145119383442274
520672,79,79,4,1385,-964,-8120,1745145119383442274
520864,76,83,12,1389,-956,-8147,1745145119446900184
521056,67,86,17,1428,-927,-8170,1745145119446900184
521248,56,89,22,1460,-904,-8180,1745145119446900184
521440,49,90,27,1485,-867,-8183,1745145119446900184
521632,45,87,32,1504,-856,-8181,1745145119446900184
521824,41,82,35,1522,-844,-8159,1745145119446900184
522016,33,75,35,1553,-851,-8155,1745145119446900184
522208,23,65,34,1542,-880,-8141,1745145119446900184
522400,14,59,33,1504,-863,-8156,1745145119446900184
522592,6,55,30,1455,-836,-8197,1745145119446900184
522784,-1,53,26,1402,-787,-8215,1745145119446900184
522976,-10,53,22,1400,-752,-8235,1745145119446900184
523168,-19,53,18,1405,-727,-8226,1745145119504966580
523360,-24,51,16,1422,-692,-8214,1745145119504966580
523552,-22,45,15,1445,-678,-8200,1745145119504966580
523744,-16,40,12,1467,-652,-8225,1745145119504966580
523936,-8,34,8,1477,-634,-8217,1745145119504966580
524128,-1,32,3,1499,-616,-8213,1745145119504966580
524320,7,28,1,1497,-627,-8184,1745145119504966580
524512,13,22,-1,1509,-636,-8187,1745145119504966580
524704,20,14,-3,1485,-631,-8177,1745145119504966580
524896,26,8,-5,1474,-653,-8146,1745145119504966580
525088,26,5,-8,1454,-667,-8122,1745145119504966580
525280,19,4,-11,1439,-681,-8097,1745145119504966580
525472,8,3,-13,1460,-689,-8087,1745145119563695575
525664,-2,4,-13,1433,-691,-8076,1745145119563695575
525856,-9,6,-15,1428,-662,-8075,1745145119563695575
526048,-13,8,-18,1435,-614,-8082,1745145119563695575
526240,-18,10,-23,1435,-561,-8072,1745145119563695575
526432,-21,11,-28,1446,-502,-8065,1745145119563695575
526624,-19,12,-33,1432,-449,-8041,1745145119563695575
526816,-11,12,-37,1433,-421,-8012,1745145119563695575
527008,-3,7,-43,1434,-387,-7984,1745145119563695575
527200,4,2,-50,1443,-397,-7957,1745145119563695575
527392,11,-2,-56,1444,-438,-7919,1745145119563695575
527584,16,-4,-61,1463,-456,-7891,1745145119563695575
527776,18,-7,-66,1484,-503,-7895,1745145119622152541
527968,15,-10,-70,1463,-544,-7867,1745145119622152541
528160,14,-12,-74,1435,-564,-7862,1745145119622152541
528352,11,-9,-78,1416,-559,-7855,1745145119622152541
528544,6,-5,-81,1377,-549,-7852,1745145119622152541
528736,-2,1,-83,1345,-506,-7841,1745145119622152541
528928,-7,6,-81,1345,-479,-7813,1745145119622152541
529120,-8,9,-80,1313,-443,-7803,1745145119622152541
529312,-8,11,-79,1341,-383,-7767,1745145119622152541
529504,-6,15,-78,1355,-340,-7736,1745145119622152541
529696,-1,17,-77,1361,-293,-7708,1745145119622152541
529888,6,19,-79,1356,-219,-7659,1745145119622152541
530080,17,20,-81,1331,-126,-7604,1745145119680410186
530272,30,23,-85,1271,-18,-7537,1745145119680410186
530464,44,27,-92,1240,90,-7493,1745145119680410186
530656,57,29,-100,1224,210,-7437,1745145119680410186
530848,70,31,-108,1202,306,-7374,1745145119680410186
531040,81,35,-117,1176,407,-7301,1745145119680410186
531232,91,40,-128,1157,523,-7218,1745145119680410186
531424,101,47,-145,1150,640,-7123,1745145119680410186
531616,110,55,-164,1144,777,-7040,1745145119680410186
531808,119,68,-188,1150,928,-7037,1745145119680410186
532000,130,85,-213,1178,1029,-7013,1745145119680410186
532192,151,101,-242,1242,1152,-7000,1745145119680410186
532384,181,113,-274,1267,1298,-6998,1745145119739583968
532576,221,126,-311,1301,1479,-6974,1745145119739583968
532768,267,139,-353,1333,1658,-6910,1745145119739583968
532960,321,151,-401,1357,1859,-6841,1745145119739583968
533152,376,161,-453,1383,2042,-6814,1745145119739583968
533344,433,166,-507,1412,2195,-6790,1745145119739583968
533536,498,164,-565,1422,2300,-6737,1745145119739583968
533728,568,156,-629,1423,2405,-6716,1745145119739583968
533920,635,147,-702,1398,2495,-6672,1745145119739583968
534112,686,135,-784,1368,2587,-6651,1745145119739583968
534304,716,119,-860,1411,2579,-6649,1745145119739583968
534496,732,103,-937,1482,2518,-6625,1745145119739583968
534688,743,92,-1015,1547,2462,-6654,1745145119796670218
534880,747,85,-1099,1620,2475,-6719,1745145119796670218
535072,741,80,-1191,1704,2523,-6732,1745145119796670218
535264,725,70,-1297,1804,2604,-6753,1745145119796670218
535456,698,54,-1412,1888,2721,-6733,1745145119796670218
535648,669,34,-1532,1962,2853,-6664,1745145119796670218
535840,641,6,-1645,2021,2991,-6568,1745145119796670218
536032,611,-29,-1748,2125,3125,-6548,1745145119796670218
536224,574,-62,-1848,2256,3208,-6635,1745145119796670218
536416,533,-89,-1953,2413,3259,-6665,1745145119796670218
536608,488,-114,-2065,2644,3281,-6674,1745145119796670218
536800,442,-143,-2177,2877,3318,-6695,1745145119796670218
536992,392,-169,-2289,3134,3365,-6791,1745145119849402392
537184,340,-190,-2407,3357,3472,-6908,1745145119849402392
537376,284,-203,-2531,3604,3610,-6977,1745145119849402392
537568,225,-213,-2658,3858,3726,-7044,1745145119849402392
537760,168,-223,-2783,4120,3824,-7030,1745145119849402392
537952,121,-238,-2905,4384,3886,-7046,1745145119849402392
538144,78,-260,-3023,4606,3940,-7023,1745145119849402392
538336,40,-291,-3135,4804,3971,-7011,1745145119849402392
538528,3,-328,-3252,4941,3932,-7012,1745145119849402392
538720,-26,-370,-3362,5028,3895,-6962,1745145119849402392
538912,-45,-413,-3462,5079,3822,-6923,1745145119849402392
539104,-60,-455,-3555,5063,3749,-6849,1745145119849402392
539296,-76,-488,-3643,5013,3710,-6779,1745145119911915727
539488,-103,-510,-3729,4926,3735,-6685,1745145119911915727
539680,-139,-514,-3807,4929,3773,-6616,1745145119911915727
539872,-188,-502,-3877,4993,3822,-6652,1745145119911915727
540064,-239,-478,-3935,5187,3879,-6713,1745145119911915727
540256,-283,-440,-3984,5446,3956,-6753,1745145119911915727
540448,-318,-399,-4028,5723,4058,-6677,1745145119911915727
540640,-339,-376,-4066,6018,4172,-6672,1745145119911915727
540832,-337,-353,-4107,6197,4385,-6634,1745145119911915727
541024,-315,-334,-4154,6312,4578,-6552,1745145119911915727
541216,-288,-327,-4200,6427,4695,-6526,1745145119911915727
541408,-254,-326,-4248,6512,4712,-6451,1745145119911915727
541792,-145,-336,-4335,6568,4464,-6322,1745145119980398331
541984,-75,-336,-4371,6473,4302,-6271,1745145119980398331
542176,-8,-332,-4408,6315,4133,-6237,1745145119980398331
542368,47,-321,-4446,6150,4010,-6324,1745145119980398331
542560,99,-293,-4484,5968,3896,-6481,1745145119980398331
542752,161,-244,-4519,5871,3872,-6607,1745145119980398331
542944,229,-182,-4553,5888,3855,-6728,1745145119980398331
543136,296,-121,-4585,6038,3815,-6911,1745145119980398331
543328,372,-69,-4615,6244,3824,-7120,1745145119980398331
543520,462,-25,-4633,6339,3944,-7262,1745145119980398331
543712,556,10,-4619,6497,3794,-7268,1745145119980398331
543904,663,18,-4616,6624,3639,-7297,1745145119980398331
544096,775,12,-4608,6660,3429,-7327,1745145120039062847
544480,975,-34,-4591,6592,2725,-7127,1745145120039062847
544672,1036,-79,-4585,6564,2279,-7071,1745145120039062847
544864,1084,-129,-4573,6417,1831,-7000,1745145120039062847
545056,1127,-168,-4560,6288,1485,-6975,1745145120039062847
545248,1145,-192,-4546,6247,1181,-7078,1745145120039062847
545440,1140,-194,-4525,6319,856,-7247,1745145120039062847
545632,1108,-190,-4500,6463,513,-7544,1745145120039062847
545824,1067,-189,-4457,6583,264,-7842,1745145120039062847
546016,1038,-193,-4394,6526,27,-8070,1745145120039062847
546208,1031,-218,-4326,6439,-131,-8303,1745145120039062847
546400,1051,-258,-4251,6394,-332,-8535,1745145120039062847
546592,1075,-295,-4182,6304,-573,-8749,1745145120097192004
546784,1106,-306,-4109,6207,-934,-8853,1745145120097192004
546976,1118,-317,-4047,6063,-1304,-8749,1745145120097192004
547168,1124,-345,-3973,5888,-1746,-8604,1745145120097192004
547360,1108,-393,-3897,5751,-2150,-8428,1745145120097192004
547552,1063,-452,-3823,5585,-2462,-8109,1745145120097192004
547744,981,-529,-3749,5311,-2807,-7711,1745145120097192004
547936,873,-612,-3674,5032,-3173,-7578,1745145120097192004
548128,778,-711,-3602,4793,-3501,-7743,1745145120097192004
548320,687,-775,-3524,4659,-3724,-8016,1745145120097192004
548512,568,-802,-3412,4704,-3987,-8448,1745145120097192004
548704,422,-806,-3297,5059,-4269,-9456,1745145120097192004
548896,216,-646,-3177,5164,-4072,-10014,1745145120155880843
549088,8,-458,-3095,5007,-4150,-9771,1745145120155880843
549280,-97,-397,-3006,5109,-4014,-9909,1745145120155880843
549472,-178,-355,-2920,5199,-3936,-9842,1745145120155880843
549664,-244,-348,-2847,5262,-3970,-9671,1745145120155880843
549856,-293,-359,-2783,5208,-4091,-9553,1745145120155880843
550048,-328,-375,-2718,5067,-4250,-9344,1745145120155880843
550240,-364,-402,-2647,4880,-4391,-9110,1745145120155880843
550432,-410,-443,-2573,4615,-4503,-8757,1745145120155880843
550624,-474,-493,-2498,4298,-4620,-8318,1745145120155880843
550816,-545,-539,-2428,3899,-4652,-7920,1745145120155880843
551008,-602,-550,-2364,3353,-4507,-7688,1745145120155880843
551200,-642,-516,-2283,2880,-4335,-7845,1745145120214008176
551392,-679,-452,-2182,2675,-4216,-8307,1745145120214008176
551584,-734,-372,-2072,2787,-4133,-8625,1745145120214008176
551776,-807,-294,-1966,3091,-4020,-8865,1745145120214008176
551968,-870,-211,-1876,3380,-3739,-9080,1745145120214008176
552160,-902,-118,-1799,3643,-3376,-9191,1745145120214008176
552352,-891,-25,-1734,3843,-3011,-9331,1745145120214008176
552544,-843,55,-1677,4009,-2703,-9408,1745145120214008176
552736,-773,111,-1633,4140,-2489,-9348,1745145120214008176
552928,-693,153,-1596,4229,-2468,-9266,1745145120214008176
553120,-601,177,-1559,4209,-2531,-9108,1745145120214008176
553312,-496,194,-1517,4030,-2640,-8937,1745145120214008176
553504,-390,211,-1476,3778,-2758,-8774,1745145120277691397
553696,-297,223,-1438,3494,-2903,-8591,1745145120277691397
553888,-228,231,-1404,3188,-3034,-8357,1745145120277691397
554080,-188,238,-1369,2892,-3122,-8015,1745145120277691397
554272,-172,239,-1330,2592,-3181,-7743,1745145120277691397
554464,-166,248,-1289,2248,-3073,-7581,1745145120277691397
554656,-165,271,-1249,1957,-2900,-7529,1745145120277691397
554848,-171,302,-1204,1791,-2770,-7524,1745145120277691397
555040,-181,336,-1139,1750,-2710,-7465,1745145120277691397
555232,-198,361,-1052,1817,-2665,-7374,1745145120277691397
555424,-218,383,-954,1907,-2576,-7307,1745145120277691397
555616,-238,417,-854,1999,-2420,-7280,1745145120277691397
555808,-256,456,-758,2084,-2221,-7304,1745145120341522480
556192,-285,507,-605,2258,-1814,-7192,1745145120341522480
556384,-294,518,-547,2261,-1668,-7151,1745145120341522480
556576,-294,546,-491,2083,-1295,-7241,1745145120341522480
556768,-284,617,-440,1967,-789,-6969,1745145120341522480
556960,-297,651,-398,2075,-630,-6820,1745145120341522480
557152,-233,647,-326,2236,-523,-7249,1745145120341522480
557344,-28,607,-211,2370,-223,-7483,1745145120341522480
557536,305,539,-100,2553,206,-7842,1745145120341522480
557728,668,445,-38,2910,271,-7678,1745145120341522480
557920,1023,312,-89,3886,-420,-7269,1745145120341522480
558112,1142,-3,-132,5562,-1896,-10166,1745145120341522480
558304,924,-479,-66,7717,-3981,-12071,1745145120392442119
558496,505,-1032,41,8710,-4894,-11946,1745145120392442119
558688,33,-1491,224,7803,-4514,-12250,1745145120392442119
558880,-399,-1637,407,5091,-2978,-12301,1745145120392442119
559072,-670,-1479,489,1479,-905,-12126,1745145120392442119
559264,-720,-1176,448,-1461,885,-11613,1745145120392442119
559456,-614,-879,343,-2761,1826,-10944,1745145120392442119
559648,-468,-598,242,-2671,2098,-10707,1745145120392442119
559840,-379,-356,177,-1651,1737,-10490,1745145120392442119
560032,-315,-215,137,-160,1375,-10221,1745145120392442119
560224,-312,-113,107,1001,1596,-9768,1745145120392442119
560416,-364,-98,139,1607,2115,-9089,1745145120392442119
560608,-369,-153,160,1898,2606,-8889,1745145120458229226
560800,-333,-208,104,1640,3028,-8480,1745145120458229226
560992,-242,-274,52,1287,2977,-8135,1745145120458229226
561184,-126,-355,48,978,2394,-7843,1745145120458229226
561376,-14,-435,96,782,1521,-7833,1745145120458229226
561568,42,-491,150,586,654,-7829,1745145120458229226
561760,36,-515,175,359,-14,-7879,1745145120458229226
561952,-19,-507,168,85,-375,-7907,1745145120458229226
562144,-103,-474,145,-190,-484,-7943,1745145120458229226
562336,-201,-429,127,-345,-377,-7988,1745145120458229226
562528,-302,-381,124,-356,-144,-8045,1745145120458229226
562720,-397,-338,138,-229,152,-8104,1745145120458229226
562912,-478,-305,165,-12,475,-8181,1745145120516243749
563104,-546,-286,196,275,829,-8288,1745145120516243749
563296,-605,-285,222,532,1162,-8371,1745145120516243749
563488,-650,-304,240,754,1486,-8410,1745145120516243749
563680,-683,-330,249,883,1746,-8429,1745145120516243749
563872,-700,-361,254,956,1948,-8399,1745145120516243749
564064,-703,-394,260,947,2096,-8339,1745145120516243749
564256,-696,-427,270,898,2154,-8257,1745145120516243749
564448,-682,-457,284,841,2151,-8183,1745145120516243749
564640,-670,-483,302,763,2164,-8131,1745145120516243749
564832,-659,-499,320,681,2155,-8082,1745145120516243749
565024,-649,-509,339,575,2172,-8060,1745145120516243749
565216,-639,-519,353,511,2162,-7970,1745145120574044887
565408,-621,-534,360,457,2146,-7859,1745145120574044887
565600,-600,-552,359,399,2161,-7783,1745145120574044887
565792,-582,-567,355,322,2143,-7672,1745145120574044887
565984,-565,-582,348,220,2152,-7583,1745145120574044887
566176,-552,-596,344,113,2119,-7546,1745145120574044887
566368,-541,-611,348,4,2115,-7511,1745145120574044887
566560,-537,-619,355,-91,2091,-7507,1745145120574044887
566752,-524,-621,364,-173,2090,-7572,1745145120574044887
566944,-503,-622,370,-246,2098,-7653,1745145120574044887
567136,-481,-617,370,-308,2072,-7785,1745145120574044887
567328,-457,-610,364,-331,2016,-7931,1745145120574044887
567520,-435,-601,353,-365,1939,-8030,1745145120633069869
567712,-415,-592,343,-396,1883,-8087,1745145120633069869
567904,-398,-579,333,-404,1818,-8089,1745145120633069869
568096,-383,-564,324,-414,1813,-8101,1745145120633069869
568288,-373,-546,312,-458,1784,-8104,1745145120633069869
568480,-367,-531,295,-482,1739,-8116,1745145120633069869
568672,-364,-515,274,-519,1699,-8104,1745145120633069869
568864,-357,-495,254,-581,1682,-8096,1745145120633069869
569056,-346,-471,235,-629,1671,-8110,1745145120633069869
569248,-330,-445,211,-663,1665,-8097,1745145120633069869
569440,-309,-415,183,-676,1617,-8112,1745145120633069869
569632,-284,-387,155,-664,1578,-8126,1745145120633069869
569824,-259,-356,128,-636,1552,-8119,1745145120688896859
570016,-237,-323,101,-630,1563,-8084,1745145120688896859
570208,-220,-287,75,-628,1608,-8041,1745145120688896859
570400,-213,-248,49,-622,1673,-8018,1745145120688896859
570592,-208,-212,23,-638,1760,-7992,1745145120688896859
570784,-200,-177,-1,-615,1893,-7968,1745145120688896859
570976,-189,-139,-25,-603,1992,-7929,1745145120688896859
571168,-170,-103,-48,-565,2099,-7916,1745145120688896859
571360,-141,-70,-71,-511,2176,-7894,1745145120688896859
571552,-108,-41,-95,-453,2234,-7875,1745145120688896859
571744,-74,-15,-116,-405,2238,-7882,1745145120688896859
571936,-42,4,-136,-379,2258,-7887,1745145120688896859
572128,-16,18,-154,-385,2233,-7897,1745145120749345265
572320,6,32,-170,-403,2217,-7883,1745145120749345265
572512,26,48,-186,-463,2183,-7877,1745145120749345265
572704,39,65,-200,-504,2150,-7866,1745145120749345265
572896,48,85,-211,-557,2123,-7891,1745145120749345265
573088,56,106,-219,-584,2121,-7902,1745145120749345265
573280,62,128,-226,-588,2120,-7921,1745145120749345265
573472,66,147,-231,-586,2103,-7950,1745145120749345265
573664,70,163,-237,-551,2099,-7952,1745145120749345265
573856,74,176,-241,-499,2057,-7936,1745145120749345265
574048,76,187,-244,-458,2051,-7930,1745145120749345265
574240,74,196,-242,-435,2059,-7909,1745145120749345265
574432,73,199,-239,-415,2083,-7889,1745145120808941856
574624,77,198,-235,-411,2121,-7843,1745145120808941856
574816,81,195,-232,-406,2121,-7831,1745145120808941856
575008,86,194,-229,-412,2140,-7821,1745145120808941856
575200,89,191,-225,-408,2136,-7809,1745145120808941856
575392,88,187,-219,-403,2141,-7795,1745145120808941856
575584,88,182,-211,-416,2162,-7770,1745145120808941856
575776,83,179,-201,-404,2199,-7757,1745145120808941856
575968,75,173,-190,-405,2207,-7754,1745145120808941856
576160,67,166,-181,-395,2208,-7743,1745145120808941856
576352,64,157,-170,-374,2223,-7734,1745145120808941856
576544,60,150,-159,-355,2262,-7755,1745145120808941856
576736,54,142,-149,-342,2275,-7775,1745145120867480228
576928,48,132,-139,-323,2290,-7781,1745145120867480228
577120,45,121,-127,-293,2279,-7793,1745145120867480228
577312,41,110,-115,-276,2259,-7804,1745145120867480228
577504,38,98,-102,-230,2234,-7820,1745145120867480228
577696,36,85,-91,-197,2194,-7810,1745145120867480228
577888,34,72,-78,-193,2175,-7811,1745145120867480228
578080,33,61,-68,-174,2148,-7816,1745145120867480228
578272,31,48,-57,-176,2119,-7802,1745145120867480228
578464,30,36,-46,-179,2079,-7812,1745145120867480228
578656,27,23,-37,-167,2045,-7836,1745145120867480228
578848,22,12,-30,-164,2001,-7828,1745145120867480228
579040,19,2,-24,-162,1972,-7835,1745145120925503916
579232,11,-5,-17,-191,1998,-7827,1745145120925503916
579424,-1,-13,-8,-225,2040,-7849,1745145120925503916
579616,-8,-20,0,-251,2077,-7846,1745145120925503916
579808,-11,-27,9,-251,2110,-7848,1745145120925503916
580000,-13,-35,16,-256,2121,-7861,1745145120925503916
580192,-15,-42,20,-249,2114,-7860,1745145120925503916
580384,-18,-50,25,-255,2089,-7853,1745145120925503916
580576,-21,-58,29,-246,2078,-7829,1745145120925503916
580768,-25,-68,34,-259,2068,-7832,1745145120925503916
580960,-25,-75,38,-281,2040,-7813,1745145120925503916
581152,-25,-81,41,-311,2024,-7793,1745145120925503916
581344,-26,-84,44,-329,2028,-7810,1745145120984254161
581536,-30,-85,45,-340,2034,-7818,1745145120984254161
581728,-32,-85,47,-352,2054,-7824,1745145120984254161
581920,-32,-86,49,-335,2056,-7819,1745145120984254161
582112,-31,-86,51,-335,2066,-7840,1745145120984254161
582304,-29,-89,53,-312,2048,-7839,1745145120984254161
582496,-26,-92,54,-322,2062,-7859,1745145120984254161
582688,-23,-95,52,-336,2070,-7856,1745145120984254161
582880,-20,-96,50,-343,2029,-7865,1745145120984254161
583072,-18,-96,48,-365,2014,-7874,1745145120984254161
583264,-18,-93,47,-399,2014,-7891,1745145120984254161
583456,-19,-90,46,-434,2021,-7903,1745145120984254161
583648,-22,-87,45,-455,2034,-7911,1745145121042287068
583840,-24,-82,44,-467,2037,-7927,1745145121042287068
584032,-22,-76,40,-475,2032,-7957,1745145121042287068
584224,-18,-68,37,-478,2013,-7948,1745145121042287068
584416,-16,-59,32,-472,2011,-7951,1745145121042287068
584608,-14,-51,28,-463,2003,-7953,1745145121042287068
584800,-12,-42,23,-449,2017,-7937,1745145121042287068
584992,-10,-35,19,-440,2024,-7935,1745145121042287068
585184,-7,-26,14,-423,2029,-7923,1745145121042287068
585376,-5,-18,9,-433,2038,-7908,1745145121042287068
585568,0,-9,5,-413,2059,-7893,1745145121042287068
585760,4,-1,0,-424,2072,-7904,1745145121042287068
585952,8,5,-2,-402,2060,-7905,1745145121101063510
586144,11,13,-4,-396,2052,-7914,1745145121101063510
586336,14,17,-7,-402,2053,-7922,1745145121101063510
586528,16,21,-9,-405,2033,-7903,1745145121101063510
586720,20,24,-12,-414,2038,-7890,1745145121101063510
586912,22,29,-16,-439,2028,-7883,1745145121101063510
587104,24,33,-19,-463,2023,-7888,1745145121101063510
587296,26,37,-22,-478,2003,-7878,1745145121101063510
587488,26,43,-24,-460,1972,-7870,1745145121101063510
587680,25,49,-26,-470,1970,-7881,1745145121101063510
587872,21,56,-28,-461,1956,-7881,1745145121101063510
588064,14,61,-28,-442,1984,-7873,1745145121101063510
588256,11,65,-28,-437,1995,-7870,1745145121161159368
588448,9,68,-29,-426,2038,-7883,1745145121161159368
588640,9,72,-30,-417,2044,-7889,1745145121161159368
588832,11,74,-32,-403,2072,-7881,1745145121161159368
589024,13,75,-33,-390,2089,-7877,1745145121161159368
589216,15,76,-34,-392,2097,-7864,1745145121161159368
589408,17,75,-33,-380,2096,-7870,1745145121161159368
589600,18,74,-33,-370,2069,-7873,1745145121161159368
589792,21,71,-33,-365,2046,-7874,1745145121161159368
589984,23,69,-33,-370,2005,-7864,1745145121161159368
590176,21,69,-33,-355,2010,-7853,1745145121161159368
590368,17,69,-31,-361,2010,-7831,1745145121161159368
590560,15,66,-28,-342,2013,-7821,1745145121217630362
590752,15,61,-26,-323,2014,-7810,1745145121217630362
590944,15,58,-25,-315,2012,-7811,1745145121217630362
591136,15,54,-25,-308,2013,-7799,1745145121217630362
591328,12,50,-24,-307,2033,-7808,1745145121217630362
591520,10,44,-22,-314,2043,-7816,1745145121217630362
591712,9,40,-19,-329,2052,-7819,1745145121217630362
591904,11,37,-17,-315,2047,-7826,1745145121217630362
592096,10,33,-16,-283,2045,-7841,1745145121217630362
592288,6,29,-15,-263,2030,-7851,1745145121217630362
592480,3,23,-13,-258,2020,-7853,1745145121217630362
592672,-2,17,-10,-271,2015,-7824,1745145121217630362
592864,-6,11,-9,-258,2037,-7809,1745145121275793789
593056,-9,5,-8,-284,2061,-7788,1745145121275793789
593248,-8,-2,-8,-303,2079,-7797,1745145121275793789
593440,-5,-10,-10,-317,2050,-7813,1745145121275793789
593632,-2,-16,-11,-316,2018,-7821,1745145121275793789
593824,-2,-21,-12,-310,1968,-7838,1745145121275793789
594016,-6,-25,-10,-319,1958,-7870,1745145121275793789
594208,-10,-27,-8,-328,1945,-7861,1745145121275793789
594400,-13,-29,-6,-329,1942,-7851,1745145121275793789
594592,-18,-30,-4,-337,1972,-7832,1745145121275793789
594784,-22,-32,-3,-345,2005,-7820,1745145121275793789
594976,-25,-34,-2,-333,2026,-7816,1745145121275793789
595168,-24,-39,-1,-321,2059,-7805,1745145121334885541
595360,-20,-44,-2,-312,2059,-7805,1745145121334885541
595552,-16,-49,-5,-311,2040,-7808,1745145121334885541
595744,-14,-52,-8,-324,2021,-7827,1745145121334885541
595936,-12,-57,-8,-343,2013,-7839,1745145121334885541
596128,-14,-61,-9,-364,2008,-7865,1745145121334885541
596320,-18,-61,-9,-389,2005,-7877,1745145121334885541
596512,-21,-62,-10,-403,1998,-7880,1745145121334885541
596704,-25,-60,-10,-403,2007,-7878,1745145121334885541
596896,-27,-59,-11,-400,2008,-7870,1745145121334885541
597088,-29,-56,-12,-377,2014,-7882,1745145121334885541
597280,-30,-55,-11,-372,2018,-7867,1745145121334885541
597472,-32,-55,-12,-369,2024,-7857,1745145121389701082
597664,-33,-57,-13,-364,2029,-7839,1745145121389701082
597856,-34,-61,-14,-366,2030,-7829,1745145121389701082
598048,-32,-63,-16,-372,2033,-7828,1745145121389701082
598240,-30,-64,-19,-393,2025,-7840,1745145121389701082
598432,-29,-65,-22,-412,2000,-7846,1745145121389701082
598624,-28,-65,-25,-438,1975,-7855,1745145121389701082
598816,-29,-64,-26,-434,1971,-7870,1745145121389701082
599008,-31,-61,-26,-463,1971,-7888,1745145121389701082
599200,-35,-57,-27,-465,1989,-7904,1745145121389701082
599392,-36,-53,-29,-464,2010,-7910,1745145121389701082
599584,-37,-49,-31,-475,2016,-7895,1745145121389701082
599776,-37,-45,-33,-450,2024,-7888,1745145121452025356
599968,-38,-43,-35,-441,2028,-7857,1745145121452025356
600160,-39,-41,-36,-439,2052,-7843,1745145121452025356
600352,-37,-42,-37,-436,2055,-7858,1745145121452025356
600544,-35,-43,-40,-429,2057,-7858,1745145121452025356
600736,-33,-42,-45,-443,2059,-7849,1745145121452025356
600928,-30,-42,-48,-461,2041,-7840,1745145121452025356
601120,-30,-42,-50,-462,2027,-7832,1745145121452025356
601312,-30,-42,-52,-463,2012,-7848,1745145121452025356
601504,-31,-39,-54,-465,1999,-7852,1745145121452025356
601696,-32,-38,-55,-461,2008,-7859,1745145121452025356
601888,-35,-36,-56,-464,2006,-7841,1745145121452025356
602080,-37,-34,-56,-461,2033,-7841,1745145121511385335
602272,-40,-33,-58,-476,2057,-7824,1745145121511385335
602464,-39,-33,-59,-491,2081,-7813,1745145121511385335
602656,-36,-33,-63,-492,2103,-7815,1745145121511385335
602848,-30,-30,-65,-491,2093,-7853,1745145121511385335
603040,-26,-29,-68,-455,2048,-7883,1745145121511385335
603232,-19,-29,-69,-452,2008,-7854,1745145121511385335
603424,-20,-27,-72,-442,2006,-7895,1745145121511385335
603616,-33,-25,-72,-475,2016,-7917,1745145121511385335
603808,-41,-26,-71,-513,2045,-7910,1745145121511385335
604000,-41,-27,-68,-536,2077,-7876,1745145121511385335
604192,-40,-25,-67,-537,2076,-7885,1745145121511385335
604384,-37,-23,-67,-517,2051,-7853,1745145121569000955
604576,-33,-19,-69,-490,2029,-7814,1745145121569000955
604768,-43,-16,-71,-491,2033,-7835,1745145121569000955
604960,-54,-19,-70,-482,2066,-7824,1745145121569000955
605152,-57,-25,-68,-483,2098,-7808,1745145121569000955
605344,-54,-30,-64,-489,2070,-7822,1745145121569000955
605536,-65,-26,-66,-489,1811,-7730,1745145121569000955
605728,-84,-27,-73,-534,1745,-7699,1745145121569000955
605920,-97,-37,-70,-500,1858,-7858,1745145121569000955
606112,-198,-22,-69,-376,1245,-7931,1745145121569000955
606304,-277,-37,-87,-376,1188,-7914,1745145121569000955
606496,-310,-58,-95,-461,1560,-7861,1745145121569000955
606688,-322,-57,-82,-560,2006,-7776,1745145121628274424
606880,-304,-49,-58,-580,2293,-7734,1745145121628274424
607072,-278,-47,-38,-526,2506,-7812,1745145121628274424
607264,-265,-50,-33,-493,2564,-7870,1745145121628274424
607456,-257,-53,-43,-483,2476,-7859,1745145121628274424
607648,-254,-51,-61,-548,2325,-7831,1745145121628274424
607840,-255,-42,-73,-659,2258,-7801,1745145121628274424
