timestamp,gyr_x,gyr_y,gyr_z,acc_x,acc_y,acc_z,pkt_time_ns
201184,65,-13,-16,214,1038,-7220,1745143816951318691
201376,116,-127,-14,-192,1125,-8333,1745143816951318691
201568,183,-154,-4,-313,1289,-8057,1745143816951318691
201760,152,-100,4,-327,1146,-8350,1745143816951318691
201952,149,-114,0,-356,1035,-8492,1745143816951318691
202144,126,-88,-3,-374,1061,-8612,1745143816951318691
202336,112,-47,-3,-360,1092,-8754,1745143816951318691
202528,101,-37,-2,-338,1065,-8818,1745143816951318691
202720,57,-9,-1,-227,994,-8735,1745143816951318691
202912,20,1,2,-107,976,-8595,1745143816951318691
203104,-14,4,12,-162,1005,-8553,1745143816951318691
203296,-48,38,19,-348,955,-8567,1745143816951318691
203488,-69,71,15,-462,905,-8559,1745143817008190359
203680,-92,106,4,-460,946,-8558,1745143817008190359
203872,-111,151,-2,-442,1017,-8628,1745143817008190359
204064,-185,186,-2,-529,456,-8164,1745143817008190359
204256,-330,263,-2,-385,1717,-8990,1745143817008190359
204448,-104,242,26,-260,2022,-7593,1745143817008190359
204640,-74,248,21,-71,1662,-8226,1745143817008190359
204832,-110,238,-8,394,927,-8142,1745143817008190359
205024,-125,342,-29,978,877,-9111,1745143817008190359
205216,-432,519,-116,106,-1251,-5338,1745143817008190359
205408,-368,132,-192,270,241,-6951,1745143817008190359
205600,-312,33,-83,-184,1198,-7295,1745143817008190359
205792,-254,39,-35,-409,1950,-7344,1745143817067410079
205984,-169,33,-27,-347,2198,-7466,1745143817067410079
206176,-68,47,-54,-232,2145,-7714,1745143817067410079
206368,17,45,-84,-72,1884,-7903,1745143817067410079
206560,60,42,-92,27,1575,-8079,1745143817067410079
206752,61,24,-78,61,1333,-8132,1745143817067410079
206944,43,10,-53,-16,1243,-8134,1745143817067410079
207136,21,0,-29,-128,1241,-8090,1745143817067410079
207328,4,-2,-16,-205,1260,-8082,1745143817067410079
207520,-6,2,-14,-224,1265,-8039,1745143817067410079
207712,-10,7,-18,-196,1242,-8017,1745143817067410079
207904,-14,9,-22,-118,1192,-7999,1745143817067410079
208096,-18,9,-23,-44,1192,-7993,1745143817126317353
208288,-27,4,-20,28,1215,-7979,1745143817126317353
208480,-36,0,-16,46,1250,-7985,1745143817126317353
208672,-41,-7,-15,42,1309,-7983,1745143817126317353
208864,-45,-13,-16,34,1327,-7987,1745143817126317353
209056,-48,-18,-16,38,1345,-7989,1745143817126317353
209248,-50,-23,-15,10,1351,-7973,1745143817126317353
209440,-52,-27,-12,-12,1354,-7964,1745143817126317353
209632,-54,-33,-11,-37,1351,-7942,1745143817126317353
209824,-55,-37,-9,-77,1336,-7948,1745143817126317353
210016,-55,-41,-10,-97,1322,-7934,1745143817126317353
210208,-55,-45,-10,-124,1309,-7942,1745143817126317353
210400,-56,-47,-10,-142,1309,-7948,1745143817183217771
210592,-58,-47,-12,-148,1286,-7953,1745143817183217771
210784,-61,-48,-13,-154,1283,-7976,1745143817183217771
210976,-61,-48,-13,-150,1280,-7979,1745143817183217771
211168,-60,-48,-14,-155,1300,-7987,1745143817183217771
211360,-58,-48,-15,-134,1292,-8012,1745143817183217771
211552,-59,-48,-15,-152,1286,-8005,1745143817183217771
211744,-58,-48,-16,-150,1301,-7989,1745143817183217771
211936,-59,-48,-16,-145,1295,-8007,1745143817183217771
212128,-62,-49,-16,-162,1317,-8000,1745143817183217771
212320,-62,-49,-14,-159,1311,-7971,1745143817183217771
212512,-63,-50,-15,-173,1309,-7976,1745143817183217771
212704,-65,-49,-17,-175,1301,-7973,1745143817241059430
212896,-65,-49,-20,-177,1339,-7979,1745143817241059430
213088,-64,-48,-25,-185,1346,-7985,1745143817241059430
213280,-65,-49,-29,-200,1337,-7988,1745143817241059430
213472,-66,-51,-33,-203,1351,-7991,1745143817241059430
213664,-68,-52,-36,-191,1338,-7965,1745143817241059430
213856,-70,-52,-39,-218,1342,-7971,1745143817241059430
214048,-70,-51,-41,-241,1347,-7981,1745143817241059430
214240,-67,-49,-43,-234,1370,-7977,1745143817241059430
214432,-63,-48,-45,-234,1381,-7979,1745143817241059430
214624,-58,-46,-47,-230,1389,-7970,1745143817241059430
214816,-53,-45,-49,-216,1399,-7974,1745143817241059430
215008,-49,-43,-52,-215,1390,-7978,1745143817301539346
215200,-45,-42,-53,-204,1395,-7992,1745143817301539346
215392,-41,-41,-54,-213,1386,-8012,1745143817301539346
215584,-39,-40,-55,-192,1372,-8025,1745143817301539346
215776,-37,-38,-57,-204,1351,-8040,1745143817301539346
215968,-35,-36,-59,-213,1359,-8043,1745143817301539346
216160,-35,-33,-59,-193,1365,-8042,1745143817301539346
216352,-38,-31,-60,-184,1379,-8052,1745143817301539346
216544,-40,-31,-61,-201,1372,-8041,1745143817301539346
216736,-42,-31,-62,-200,1384,-8036,1745143817301539346
216928,-44,-30,-64,-193,1389,-8033,1745143817301539346
217120,-42,-30,-65,-178,1391,-8013,1745143817301539346
217312,-42,-28,-66,-192,1390,-7990,1745143817359967354
217504,-44,-28,-68,-188,1397,-7945,1745143817359967354
217696,-45,-29,-67,-182,1405,-7865,1745143817359967354
217888,-48,-31,-65,-159,1378,-7881,1745143817359967354
218080,-51,-30,-64,-180,1396,-7965,1745143817359967354
218272,-51,-28,-65,-219,1448,-8009,1745143817359967354
218464,-47,-25,-65,-254,1500,-8022,1745143817359967354
218656,-37,-23,-65,-279,1534,-8054,1745143817359967354
218848,-27,-20,-65,-263,1511,-8099,1745143817359967354
219040,-19,-16,-66,-227,1468,-8132,1745143817359967354
219232,-17,-14,-65,-213,1431,-8140,1745143817359967354
219424,-17,-12,-61,-227,1429,-8132,1745143817359967354
219616,-19,-11,-57,-206,1425,-8110,1745143817417068968
219808,-21,-10,-55,-199,1423,-8087,1745143817417068968
220000,-24,-10,-54,-213,1431,-8080,1745143817417068968
220192,-27,-10,-53,-227,1425,-8042,1745143817417068968
220384,-27,-11,-53,-237,1417,-8016,1745143817417068968
220576,-25,-11,-53,-239,1405,-7989,1745143817417068968
220768,-24,-12,-51,-238,1374,-7969,1745143817417068968
220960,-24,-11,-48,-250,1361,-7950,1745143817417068968
221152,-25,-11,-44,-232,1361,-7930,1745143817417068968
221344,-27,-12,-40,-263,1407,-7916,1745143817417068968
221536,-29,-12,-36,-259,1468,-7897,1745143817417068968
221728,-30,-13,-34,-262,1520,-7905,1745143817417068968
221920,-27,-14,-31,-274,1557,-7930,1745143817476902588
222112,-20,-15,-31,-278,1589,-7965,1745143817476902588
222304,-13,-16,-30,-287,1580,-8007,1745143817476902588
222496,-7,-17,-30,-291,1557,-8036,1745143817476902588
222688,-5,-17,-28,-279,1529,-8026,1745143817476902588
222880,-2,-18,-22,-266,1496,-8031,1745143817476902588
223072,-4,-16,-14,-241,1466,-8029,1745143817476902588
223264,-6,-16,-8,-213,1447,-8025,1745143817476902588
223456,-8,-18,-6,-191,1423,-8006,1745143817476902588
223648,-8,-20,-4,-156,1414,-7999,1745143817476902588
223840,-8,-21,-3,-165,1398,-7992,1745143817476902588
224032,-9,-23,-2,-156,1383,-7996,1745143817476902588
224224,-10,-26,0,-167,1368,-7993,1745143817534103368
224416,-11,-27,2,-178,1360,-8006,1745143817534103368
224608,-14,-30,4,-195,1367,-8007,1745143817534103368
224800,-19,-32,6,-233,1386,-8012,1745143817534103368
224992,-23,-33,7,-254,1427,-7988,1745143817534103368
225184,-24,-33,7,-269,1435,-7970,1745143817534103368
225376,-24,-33,7,-267,1464,-7959,1745143817534103368
225568,-23,-32,7,-266,1469,-7961,1745143817534103368
225760,-24,-33,7,-287,1478,-7950,1745143817534103368
225952,-23,-32,8,-279,1465,-7955,1745143817534103368
226144,-19,-31,12,-290,1486,-7954,1745143817534103368
226336,-15,-29,16,-295,1488,-7961,1745143817534103368
226528,-11,-28,19,-292,1489,-7997,1745143817593291837
226720,-7,-27,21,-298,1490,-8013,1745143817593291837
226912,-2,-26,22,-295,1461,-8031,1745143817593291837
227104,0,-24,22,-294,1468,-8059,1745143817593291837
227296,3,-21,23,-302,1448,-8062,1745143817593291837
227488,5,-19,25,-294,1430,-8080,1745143817593291837
227680,5,-16,27,-294,1430,-8076,1745143817593291837
227872,4,-14,29,-284,1417,-8074,1745143817593291837
228064,1,-11,30,-288,1391,-8057,1745143817593291837
228256,-3,-10,30,-267,1389,-8045,1745143817593291837
228448,-6,-7,30,-280,1392,-8030,1745143817593291837
228640,-9,-5,31,-278,1398,-8027,1745143817593291837
228832,-9,-2,31,-277,1418,-8015,1745143817650117985
229024,-8,0,31,-281,1451,-8025,1745143817650117985
229216,-6,1,30,-277,1463,-8017,1745143817650117985
229408,-3,4,30,-292,1491,-8014,1745143817650117985
229600,2,7,28,-301,1488,-8034,1745143817650117985
229792,9,12,27,-293,1498,-8032,1745143817650117985
229984,16,16,26,-283,1476,-8034,1745143817650117985
230176,22,19,27,-265,1457,-8021,1745143817650117985
230368,25,21,28,-256,1437,-8047,1745143817650117985
230560,28,23,29,-271,1421,-8047,1745143817650117985
230752,29,26,30,-246,1402,-8050,1745143817650117985
230944,31,30,28,-251,1389,-8063,1745143817650117985
231136,29,32,28,-254,1362,-8052,1745143817710297696
231328,26,34,30,-241,1352,-8058,1745143817710297696
231520,21,36,30,-242,1346,-8060,1745143817710297696
231712,17,37,30,-260,1357,-8049,1745143817710297696
231904,16,39,29,-263,1374,-8029,1745143817710297696
232096,17,42,28,-264,1370,-8031,1745143817710297696
232288,17,44,28,-269,1383,-8012,1745143817710297696
232480,16,47,29,-253,1379,-7994,1745143817710297696
232672,16,49,30,-260,1393,-7983,1745143817710297696
232864,18,51,30,-251,1417,-8000,1745143817710297696
233056,20,53,29,-245,1429,-8004,1745143817710297696
233248,21,56,30,-248,1444,-8026,1745143817710297696
233440,22,58,30,-256,1443,-8044,1745143817765246256
233632,25,59,29,-239,1448,-8080,1745143817765246256
233824,27,60,28,-263,1434,-8066,1745143817765246256
234016,28,61,28,-257,1424,-8066,1745143817765246256
234208,27,63,31,-265,1418,-8054,1745143817765246256
234400,23,68,33,-259,1403,-8048,1745143817765246256
234592,19,70,35,-257,1399,-8026,1745143817765246256
234784,14,73,38,-215,1391,-8025,1745143817765246256
234976,12,75,40,-197,1382,-8019,1745143817765246256
235168,10,75,42,-170,1381,-7989,1745143817765246256
235360,9,75,42,-160,1390,-7982,1745143817765246256
235552,9,74,41,-157,1370,-7978,1745143817765246256
235744,11,72,40,-155,1371,-7994,1745143817827135118
235936,11,71,40,-161,1350,-7995,1745143817827135118
236128,10,69,41,-175,1320,-8012,1745143817827135118
236320,8,69,41,-203,1330,-8018,1745143817827135118
236512,5,68,42,-224,1340,-8020,1745143817827135118
236704,2,69,42,-206,1362,-8001,1745143817827135118
236896,-1,69,41,-194,1367,-7984,1745143817827135118
237088,-4,69,41,-186,1389,-7986,1745143817827135118
237280,-7,68,41,-182,1410,-7978,1745143817827135118
237472,-8,67,39,-163,1410,-7975,1745143817827135118
237664,-10,65,39,-171,1424,-7955,1745143817827135118
237856,-11,63,38,-185,1409,-7961,1745143817827135118
238048,-11,62,37,-185,1430,-7968,1745143817885437710
238240,-10,60,36,-185,1415,-7972,1745143817885437710
238432,-9,59,33,-201,1414,-8002,1745143817885437710
238624,-7,57,31,-195,1385,-7989,1745143817885437710
238816,-6,57,30,-184,1369,-7973,1745143817885437710
239008,-7,55,28,-174,1343,-7968,1745143817885437710
239200,-10,55,26,-183,1346,-7952,1745143817885437710
239392,-12,55,24,-177,1324,-7962,1745143817885437710
239584,-13,55,21,-175,1323,-7959,1745143817885437710
239776,-11,56,18,-176,1321,-7972,1745143817885437710
239968,-8,58,14,-165,1331,-7984,1745143817885437710
240160,-5,58,10,-183,1326,-8002,1745143817885437710
240352,-2,59,6,-165,1337,-8023,1745143817943238120
240544,0,60,1,-167,1340,-8041,1745143817943238120
240736,0,61,-3,-168,1355,-8058,1745143817943238120
240928,2,63,-8,-170,1364,-8066,1745143817943238120
241120,2,64,-12,-154,1358,-8046,1745143817943238120
241312,4,65,-16,-147,1352,-8039,1745143817943238120
241504,4,65,-18,-123,1349,-8012,1745143817943238120
241696,3,67,-20,-106,1368,-8001,1745143817943238120
241888,3,68,-22,-104,1377,-8002,1745143817943238120
242080,4,68,-26,-87,1361,-8024,1745143817943238120
242272,5,67,-29,-91,1357,-8018,1745143817943238120
242464,7,67,-30,-94,1357,-8041,1745143817943238120
242656,6,66,-31,-83,1353,-8032,1745143817999509272
242848,4,65,-31,-66,1343,-8025,1745143817999509272
243040,2,64,-31,-76,1355,-7997,1745143817999509272
243232,0,63,-32,-77,1358,-7987,1745143817999509272
243424,-1,62,-32,-66,1374,-7971,1745143817999509272
243616,-4,60,-32,-72,1381,-7965,1745143817999509272
243808,-3,58,-32,-66,1380,-7966,1745143817999509272
244000,-1,57,-30,-45,1385,-7952,1745143817999509272
244192,0,54,-27,-36,1388,-7970,1745143817999509272
244384,1,51,-25,-33,1386,-7979,1745143817999509272
244576,0,49,-24,-22,1398,-7962,1745143817999509272
244768,-2,45,-23,-36,1406,-7953,1745143817999509272
244960,-4,42,-23,-43,1401,-7965,1745143818061304177
245152,-5,39,-22,-46,1392,-7959,1745143818061304177
245344,-5,35,-21,-51,1384,-7971,1745143818061304177
245536,-5,32,-18,-51,1392,-7959,1745143818061304177
245728,-7,29,-15,-60,1391,-7947,1745143818061304177
245920,-9,26,-13,-55,1393,-7935,1745143818061304177
246112,-10,22,-11,-67,1411,-7929,1745143818061304177
246304,-11,18,-8,-68,1415,-7933,1745143818061304177
246496,-11,14,-5,-73,1416,-7938,1745143818061304177
246688,-11,10,-2,-47,1415,-7942,1745143818061304177
246880,-11,6,0,-60,1403,-7941,1745143818061304177
247072,-11,2,4,-52,1403,-7962,1745143818061304177
247264,-14,-1,8,-53,1408,-7965,1745143818117679599
247456,-16,-5,11,-60,1407,-7968,1745143818117679599
247648,-17,-8,13,-57,1410,-7968,1745143818117679599
247840,-18,-10,16,-63,1397,-7965,1745143818117679599
248032,-18,-13,19,-64,1384,-7973,1745143818117679599
248224,-20,-14,21,-41,1390,-7975,1745143818117679599
248416,-22,-17,24,-47,1396,-7976,1745143818117679599
248608,-24,-18,26,-41,1403,-7986,1745143818117679599
248800,-26,-19,29,-54,1399,-7995,1745143818117679599
248992,-28,-21,29,-53,1421,-7996,1745143818117679599
249184,-29,-23,29,-48,1427,-7993,1745143818117679599
249376,-29,-23,28,-60,1421,-8013,1745143818117679599
249568,-27,-23,29,-70,1429,-8006,1745143818178002590
249760,-26,-24,29,-51,1393,-8007,1745143818178002590
249952,-25,-25,28,-76,1368,-8009,1745143818178002590
250144,-25,-26,28,-86,1371,-7988,1745143818178002590
250336,-25,-24,28,-97,1367,-7999,1745143818178002590
250528,-24,-23,28,-104,1373,-8000,1745143818178002590
250720,-23,-22,27,-91,1372,-8009,1745143818178002590
250912,-22,-19,26,-95,1365,-8029,1745143818178002590
251104,-19,-17,24,-102,1379,-8037,1745143818178002590
251296,-17,-16,22,-85,1369,-8038,1745143818178002590
251488,-15,-15,22,-98,1365,-8048,1745143818178002590
251680,-16,-12,20,-104,1354,-8053,1745143818178002590
251872,-19,-10,18,-113,1367,-8060,1745143818236423254
252064,-21,-7,17,-108,1381,-8045,1745143818236423254
252256,-22,-5,15,-120,1380,-8043,1745143818236423254
252448,-22,-2,13,-107,1379,-8016,1745143818236423254
252640,-21,0,10,-105,1394,-7988,1745143818236423254
252832,-22,1,8,-115,1382,-7996,1745143818236423254
253024,-20,1,8,-108,1364,-7993,1745143818236423254
253216,-15,2,6,-101,1350,-7996,1745143818236423254
253408,-12,5,5,-113,1356,-8006,1745143818236423254
253600,-12,7,3,-124,1363,-7997,1745143818236423254
253792,-14,8,2,-106,1365,-7998,1745143818236423254
253984,-17,9,1,-104,1374,-8010,1745143818236423254
254176,-18,10,1,-118,1387,-8010,1745143818293607471
254368,-17,11,1,-121,1391,-8029,1745143818293607471
254560,-16,13,1,-114,1398,-8016,1745143818293607471
254752,-16,13,1,-84,1399,-7997,1745143818293607471
254944,-18,11,2,-49,1365,-7984,1745143818293607471
255136,-22,8,6,-44,1333,-7929,1745143818293607471
255328,-23,4,11,-48,1326,-7914,1745143818293607471
255520,-27,-1,13,-48,1304,-7853,1745143818293607471
255712,-33,-8,16,-65,1274,-7793,1745143818293607471
255904,-40,-15,20,-89,1222,-7796,1745143818293607471
256096,-43,-22,26,-126,1220,-7792,1745143818293607471
256288,-42,-26,28,-178,1256,-7835,1745143818293607471
256480,-47,-26,25,-230,1311,-7908,1745143818353162500
256672,-53,-25,18,-216,1375,-7945,1745143818353162500
256864,-57,-24,14,-201,1434,-7946,1745143818353162500
257056,-59,-23,10,-168,1484,-7941,1745143818353162500
257248,-53,-26,12,-116,1499,-7950,1745143818353162500
257440,-41,-32,14,-90,1496,-7952,1745143818353162500
257632,-31,-36,15,-108,1471,-7967,1745143818353162500
257824,-21,-40,15,-130,1466,-8001,1745143818353162500
258016,-10,-40,17,-154,1474,-8024,1745143818353162500
258208,-4,-37,19,-157,1463,-8058,1745143818353162500
258400,-3,-33,21,-148,1486,-8081,1745143818353162500
258592,-4,-31,25,-79,1505,-8088,1745143818353162500
258784,-5,-29,29,-35,1516,-8084,1745143818410419790
258976,-8,-29,30,-31,1519,-8084,1745143818410419790
259168,-12,-30,30,-28,1500,-8055,1745143818410419790
259360,-16,-32,29,-22,1468,-8036,1745143818410419790
259552,-17,-33,28,-48,1448,-8027,1745143818410419790
259744,-18,-30,28,-78,1433,-8040,1745143818410419790
259936,-18,-27,28,-115,1438,-8078,1745143818410419790
260128,-22,-22,26,-115,1437,-8103,1745143818410419790
260320,-30,-18,24,-90,1433,-8107,1745143818410419790
260512,-35,-15,23,-81,1456,-8108,1745143818410419790
260704,-39,-13,23,-65,1466,-8100,1745143818410419790
260896,-41,-11,22,-56,1492,-8072,1745143818410419790
261088,-43,-9,21,-42,1510,-8067,1745143818470310024
261280,-45,-8,19,-54,1526,-8045,1745143818470310024
261472,-46,-7,17,-68,1509,-8047,1745143818470310024
261664,-44,-5,15,-83,1505,-8044,1745143818470310024
261856,-39,-1,15,-101,1519,-8042,1745143818470310024
262048,-34,2,15,-118,1525,-8047,1745143818470310024
262240,-30,5,14,-133,1510,-8051,1745143818470310024
262432,-27,10,14,-134,1508,-8055,1745143818470310024
262624,-23,14,14,-130,1508,-8058,1745143818470310024
262816,-20,18,16,-148,1499,-8065,1745143818470310024
263008,-16,23,16,-138,1491,-8073,1745143818470310024
263200,-14,27,14,-149,1496,-8078,1745143818470310024
263392,-14,33,12,-145,1469,-8078,1745143818526838101
263584,-14,40,10,-157,1468,-8082,1745143818526838101
263776,-14,45,8,-145,1460,-8071,1745143818526838101
263968,-14,50,6,-150,1439,-8068,1745143818526838101
264160,-15,57,3,-150,1437,-8075,1745143818526838101
264352,-17,65,-2,-162,1451,-8078,1745143818526838101
264544,-19,75,-7,-166,1444,-8106,1745143818526838101
264736,-20,88,-13,-140,1432,-8140,1745143818526838101
264928,-22,102,-21,-134,1420,-8185,1745143818526838101
265120,-22,116,-29,-120,1415,-8225,1745143818526838101
265312,-21,129,-38,-114,1394,-8267,1745143818526838101
265504,-20,145,-47,-101,1347,-8293,1745143818526838101
265696,-24,162,-56,-102,1320,-8309,1745143818586933750
265888,-37,181,-66,-77,1261,-8368,1745143818586933750
266080,-57,204,-78,-55,1221,-8430,1745143818586933750
266272,-85,228,-91,-18,1175,-8497,1745143818586933750
266464,-117,255,-102,14,1153,-8567,1745143818586933750
266656,-152,287,-114,72,1126,-8661,1745143818586933750
266848,-195,322,-128,146,1065,-8795,1745143818586933750
267040,-244,358,-147,222,986,-8949,1745143818586933750
267232,-296,394,-168,237,877,-9088,1745143818586933750
267424,-345,436,-190,260,767,-9247,1745143818586933750
267616,-391,487,-215,287,624,-9418,1745143818586933750
267808,-437,548,-244,339,431,-9658,1745143818586933750
268000,-491,616,-281,461,201,-10051,1745143818644109113
268192,-551,691,-323,563,-35,-10546,1745143818644109113
268384,-604,775,-369,717,-197,-11199,1745143818644109113
268576,-639,856,-411,841,-342,-11698,1745143818644109113
268768,-629,890,-443,1023,-474,-11847,1745143818644109113
268960,-574,916,-424,1634,-726,-12563,1745143818644109113
269152,-556,1024,-378,2581,-1860,-12362,1745143818644109113
269344,-558,1061,-335,3168,-2937,-11900,1745143818644109113
269536,-606,970,-193,3766,-4162,-11945,1745143818644109113
269728,-685,929,-87,4634,-5362,-13087,1745143818644109113
269920,-885,1038,-128,4225,-5371,-12174,1745143818644109113
270112,-1066,1064,-54,4474,-5889,-12413,1745143818644109113
270304,-1184,1015,-133,4714,-5557,-12783,1745143818703851276
270496,-1286,954,-276,4884,-4520,-13538,1745143818703851276
270688,-1346,939,-369,4987,-3448,-14094,1745143818703851276
270880,-1328,880,-417,5217,-2503,-13643,1745143818703851276
271072,-1250,759,-387,5889,-2113,-14272,1745143818703851276
271264,-1123,562,-264,6744,-1760,-14613,1745143818703851276
271456,-1034,310,-56,7387,-1857,-14331,1745143818703851276
271648,-1009,42,201,7767,-2203,-13788,1745143818703851276
271840,-1087,-221,511,7715,-3094,-12662,1745143818703851276
272032,-1267,-440,855,7262,-3802,-11522,1745143818703851276
272224,-1644,-562,1273,6538,-4354,-10664,1745143818703851276
272416,-2093,-594,1661,5974,-4579,-10754,1745143818703851276
272608,-2420,-667,1882,5436,-3788,-11755,1745143818760950442
272800,-2457,-754,2101,5348,-2812,-12524,1745143818760950442
272992,-2191,-865,2372,5799,-2390,-12732,1745143818760950442
273184,-1804,-1073,2665,6616,-2753,-12909,1745143818760950442
273376,-1414,-1341,2945,7231,-3320,-12993,1745143818760950442
273568,-1075,-1579,3190,7358,-3463,-12843,1745143818760950442
273760,-808,-1711,3370,7099,-3143,-12499,1745143818760950442
273952,-624,-1765,3458,6683,-2461,-12156,1745143818760950442
274144,-503,-1792,3474,6254,-1689,-11809,1745143818760950442
274336,-403,-1814,3472,5980,-920,-11483,1745143818760950442
274528,-297,-1849,3489,5890,-221,-11231,1745143818760950442
274720,-153,-1880,3536,5887,504,-10894,1745143818760950442
274912,14,-1903,3616,5931,1192,-10472,1745143818820985414
275104,189,-1914,3719,6008,1827,-10110,1745143818820985414
275296,347,-1891,3837,6152,2346,-9834,1745143818820985414
275488,488,-1823,3936,6096,2675,-9474,1745143818820985414
275680,625,-1748,4026,5875,3018,-8880,1745143818820985414
275872,772,-1691,4171,5574,3282,-8206,1745143818820985414
276064,931,-1672,4355,5408,3213,-7595,1745143818820985414
276256,1101,-1668,4506,5332,3181,-7217,1745143818820985414
276448,1266,-1649,4635,5269,3095,-6642,1745143818820985414
276640,1402,-1641,4740,5500,2954,-6457,1745143818820985414
276832,1490,-1594,4817,5703,2804,-6065,1745143818820985414
277024,1540,-1539,4876,5932,2683,-5659,1745143818820985414
277216,1547,-1487,4918,6262,2589,-5415,1745143818877586199
277408,1514,-1439,4946,6575,2611,-5259,1745143818877586199
277600,1454,-1395,4967,6818,2792,-5183,1745143818877586199
277792,1380,-1340,4982,6997,3074,-5327,1745143818877586199
277984,1327,-1270,4986,7117,3478,-5486,1745143818877586199
278176,1319,-1191,4984,7132,4091,-5586,1745143818877586199
278368,1339,-1108,4986,7221,4504,-5770,1745143818877586199
278560,1366,-1036,4957,7283,4974,-5881,1745143818877586199
278752,1378,-960,4936,7255,5378,-6051,1745143818877586199
278944,1374,-875,4949,7165,5754,-6181,1745143818877586199
279136,1360,-775,5009,7050,5728,-6085,1745143818877586199
279328,1345,-679,5041,6990,5774,-6057,1745143818877586199
279520,1317,-588,5066,6905,5685,-6052,1745143818937852055
279712,1292,-504,5093,6872,5500,-5855,1745143818937852055
279904,1272,-431,5119,6898,5178,-5682,1745143818937852055
280096,1244,-374,5137,6975,4794,-5498,1745143818937852055
280288,1210,-335,5146,7054,4430,-5185,1745143818937852055
280480,1180,-307,5141,7136,4168,-4981,1745143818937852055
280672,1158,-286,5116,7268,4048,-5116,1745143818937852055
280864,1139,-268,5079,7359,4070,-5131,1745143818937852055
281056,1129,-254,5033,7482,4147,-5070,1745143818937852055
281248,1123,-248,4981,7620,4278,-5064,1745143818937852055
281440,1113,-258,4925,7785,4465,-5154,1745143818937852055
281632,1098,-272,4868,7871,4686,-5186,1745143818937852055
281824,1074,-285,4816,7902,4867,-5209,1745143818994317476
282016,1035,-296,4776,7887,5002,-5174,1745143818994317476
282208,980,-314,4748,7767,5068,-5000,1745143818994317476
282400,904,-329,4729,7538,5059,-4903,1745143818994317476
282592,790,-341,4713,7246,4931,-4859,1745143818994317476
282784,642,-345,4696,6896,4657,-4792,1745143818994317476
282976,474,-342,4674,6469,4336,-4787,1745143818994317476
283168,295,-321,4636,6020,4080,-4778,1745143818994317476
283360,117,-283,4579,5559,3912,-4692,1745143818994317476
283552,-56,-231,4504,5176,3811,-4579,1745143818994317476
283744,-213,-172,4414,4869,3783,-4428,1745143818994317476
283936,-345,-106,4312,4640,3839,-4432,1745143818994317476
284128,-448,-27,4203,4479,3988,-4605,1745143819054727966
284320,-521,54,4090,4405,4162,-4704,1745143819054727966
284512,-559,124,3978,4369,4412,-4693,1745143819054727966
284704,-557,182,3866,4319,4716,-4790,1745143819054727966
284896,-518,221,3757,4235,5065,-4849,1745143819054727966
285088,-443,245,3647,4085,5391,-4852,1745143819054727966
285280,-342,250,3533,3890,5625,-4848,1745143819054727966
285472,-224,237,3409,3686,5709,-4943,1745143819054727966
285664,-92,206,3277,3445,5687,-5056,1745143819054727966
285856,43,171,3132,3151,5598,-5205,1745143819054727966
286048,157,135,2975,2845,5460,-5384,1745143819054727966
286240,237,107,2812,2485,5308,-5624,1745143819054727966
286432,281,84,2649,2142,5164,-5787,1745143819112234733
286624,293,64,2498,1817,5010,-5895,1745143819112234733
286816,282,48,2364,1496,4876,-6095,1745143819112234733
287008,255,42,2243,1223,4776,-6301,1745143819112234733
287200,215,39,2124,1025,4681,-6403,1745143819112234733
287392,158,38,1996,902,4577,-6492,1745143819112234733
287584,99,33,1857,775,4421,-6574,1745143819112234733
287776,48,22,1717,532,4223,-6281,1745143819112234733
287968,19,-38,1584,697,4101,-6976,1745143819112234733
288160,-26,18,1471,504,3919,-6866,1745143819112234733
288352,-55,29,1363,433,3683,-6795,1745143819112234733
288544,-70,24,1262,402,3549,-6882,1745143819112234733
288736,-83,35,1168,334,3496,-7045,1745143819171890542
288928,-84,36,1081,253,3507,-7172,1745143819171890542
289120,-77,63,996,-86,3561,-7150,1745143819171890542
289312,-59,102,922,-121,3470,-7011,1745143819171890542
289504,-26,127,826,266,3205,-7194,1745143819171890542
289696,-17,159,676,614,2980,-7306,1745143819171890542
289888,-3,155,544,802,2876,-7268,1745143819171890542
290080,12,141,494,819,2788,-7222,1745143819171890542
290272,39,108,515,841,2681,-7294,1745143819171890542
290464,75,73,552,887,2576,-7365,1745143819171890542
290656,102,42,558,915,2390,-7457,1745143819171890542
290848,110,31,519,885,2244,-7533,1745143819171890542
291040,106,31,461,790,2140,-7588,1745143819229061218
291232,98,34,417,726,2036,-7676,1745143819229061218
291424,90,36,393,694,1900,-7755,1745143819229061218
291616,79,39,385,679,1741,-7827,1745143819229061218
291808,68,41,389,689,1605,-7882,1745143819229061218
292000,53,43,395,710,1489,-7877,1745143819229061218
292192,31,43,398,736,1376,-7880,1745143819229061218
292384,6,45,392,736,1286,-7898,1745143819229061218
292576,-14,48,377,719,1217,-7916,1745143819229061218
292768,-24,54,359,681,1253,-7983,1745143819229061218
292960,-25,60,345,648,1348,-8032,1745143819229061218
293152,-19,66,331,617,1471,-8046,1745143819229061218
293344,-3,74,315,570,1564,-8031,1745143819288364374
293536,28,82,298,576,1642,-8064,1745143819288364374
293728,72,94,284,558,1680,-8096,1745143819288364374
293920,123,106,272,603,1654,-8095,1745143819288364374
294112,173,116,255,677,1532,-8039,1745143819288364374
294304,215,118,234,755,1366,-8016,1745143819288364374
294496,246,117,210,779,1175,-8019,1745143819288364374
294688,266,109,186,801,978,-8005,1745143819288364374
294880,272,97,166,789,812,-8008,1745143819288364374
295072,267,81,145,779,702,-7989,1745143819288364374
295264,252,70,122,743,606,-7986,1745143819288364374
295456,226,65,99,706,518,-7963,1745143819288364374
295648,198,61,78,675,484,-7958,1745143819345217188
295840,174,59,57,660,450,-7991,1745143819345217188
296032,152,61,39,667,439,-7981,1745143819345217188
296224,130,67,25,692,399,-7992,1745143819345217188
296416,116,69,17,731,322,-8000,1745143819345217188
296608,111,64,12,770,275,-8040,1745143819345217188
296800,107,54,8,770,250,-8038,1745143819345217188
296992,99,40,6,786,244,-8022,1745143819345217188
297184,91,29,-1,774,217,-8006,1745143819345217188
297376,82,18,-13,749,183,-7988,1745143819345217188
297568,76,15,-25,729,116,-7942,1745143819345217188
297760,74,12,-36,719,57,-7874,1745143819345217188
297952,69,18,-47,711,-26,-7873,1745143819405413044
298144,65,25,-54,706,-130,-7890,1745143819405413044
298336,65,31,-56,704,-181,-7974,1745143819405413044
298528,69,37,-56,695,-175,-8034,1745143819405413044
298720,72,44,-56,680,-123,-8047,1745143819405413044
298912,73,51,-54,700,-36,-8083,1745143819405413044
299104,75,63,-48,696,39,-8078,1745143819405413044
299296,88,79,-43,712,82,-8036,1745143819405413044
299488,114,96,-40,748,89,-8016,1745143819405413044
299680,146,111,-35,797,46,-7993,1745143819405413044
299872,177,125,-29,869,0,-8039,1745143819405413044
300064,207,135,-24,912,-92,-8093,1745143819405413044
300256,233,137,-19,979,-163,-8140,1745143819462809499
300448,249,135,-22,1039,-251,-8173,1745143819462809499
300640,258,131,-30,1033,-327,-8188,1745143819462809499
300832,262,122,-39,1020,-369,-8133,1745143819462809499
301024,256,115,-47,1012,-453,-8123,1745143819462809499
301216,249,111,-54,1028,-534,-8094,1745143819462809499
301408,242,108,-62,1031,-611,-8073,1745143819462809499
301600,231,102,-70,1059,-654,-8113,1745143819462809499
301792,214,95,-79,1076,-671,-8127,1745143819462809499
301984,186,88,-87,1102,-687,-8154,1745143819462809499
302176,158,79,-91,1141,-703,-8142,1745143819462809499
302368,133,67,-92,1162,-723,-8148,1745143819462809499
302560,109,58,-88,1163,-744,-8171,1745143819522486662
302752,85,49,-81,1163,-749,-8190,1745143819522486662
302944,60,41,-75,1143,-768,-8219,1745143819522486662
303136,36,33,-71,1116,-761,-8252,1745143819522486662
303328,13,26,-69,1099,-771,-8230,1745143819522486662
303520,-6,22,-66,1070,-751,-8226,1745143819522486662
303712,-20,18,-65,1029,-736,-8223,1745143819522486662
303904,-28,15,-62,1001,-701,-8257,1745143819522486662
304096,-31,15,-60,978,-633,-8240,1745143819522486662
304288,-28,15,-57,956,-546,-8224,1745143819522486662
304480,-22,16,-55,947,-479,-8221,1745143819522486662
304672,-10,19,-54,963,-430,-8226,1745143819522486662
304864,7,22,-53,996,-389,-8154,1745143819579659004
305056,25,22,-55,1037,-410,-8111,1745143819579659004
305248,42,19,-59,1078,-455,-8089,1745143819579659004
305440,56,13,-64,1088,-543,-8069,1745143819579659004
305632,68,7,-73,1080,-595,-8086,1745143819579659004
305824,72,4,-81,1068,-669,-8081,1745143819579659004
306016,69,3,-87,1036,-718,-8098,1745143819579659004
306208,64,4,-93,986,-725,-8081,1745143819579659004
306400,61,5,-97,963,-717,-8075,1745143819579659004
306592,57,6,-99,948,-702,-8074,1745143819579659004
306784,54,11,-101,957,-721,-8056,1745143819579659004
306976,55,16,-101,996,-747,-8055,1745143819579659004
307168,57,23,-99,1033,-789,-8075,1745143819639385490
307360,58,27,-97,1088,-810,-8102,1745143819639385490
307552,56,29,-94,1120,-838,-8084,1745143819639385490
307744,53,25,-93,1146,-860,-8113,1745143819639385490
307936,49,17,-88,1132,-886,-8114,1745143819639385490
308128,48,8,-84,1141,-902,-8104,1745143819639385490
308320,50,4,-85,1107,-865,-8113,1745143819639385490
308512,53,4,-84,1079,-819,-8083,1745143819639385490
308704,55,4,-85,1062,-771,-8047,1745143819639385490
308896,58,2,-85,1067,-809,-8006,1745143819639385490
309088,64,-1,-85,1065,-870,-7989,1745143819639385490
309280,73,-2,-82,1078,-937,-7989,1745143819639385490
309472,79,-3,-79,1079,-985,-8019,1745143819696458302
309664,76,-2,-77,1084,-990,-8041,1745143819696458302
309856,67,2,-76,1086,-988,-8034,1745143819696458302
310048,58,7,-77,1081,-1005,-8013,1745143819696458302
310240,55,12,-74,1085,-1017,-8004,1745143819696458302
310432,57,14,-71,1103,-1033,-8026,1745143819696458302
310624,62,14,-67,1103,-1034,-8070,1745143819696458302
310816,62,14,-65,1096,-1001,-8080,1745143819696458302
311008,56,11,-65,1092,-978,-8074,1745143819696458302
311200,52,10,-64,1088,-981,-8062,1745143819696458302
311392,53,9,-59,1068,-992,-8019,1745143819696458302
311584,58,8,-53,1075,-991,-7987,1745143819696458302
311776,61,6,-51,1070,-973,-7977,1745143819756392077
311968,61,8,-49,1049,-967,-7965,1745143819756392077
312160,61,12,-48,1057,-988,-7948,1745143819756392077
312352,61,12,-49,1051,-1020,-7950,1745143819756392077
312544,61,8,-49,1050,-1044,-7972,1745143819756392077
312736,54,3,-52,1040,-1061,-7955,1745143819756392077
312928,44,0,-52,1015,-1062,-7957,1745143819756392077
313120,32,0,-50,1029,-1077,-7941,1745143819756392077
313312,21,2,-49,1025,-1126,-7909,1745143819756392077
313504,12,4,-49,1039,-1142,-7907,1745143819756392077
313696,0,6,-48,1055,-1165,-7917,1745143819756392077
313888,-11,8,-46,1054,-1144,-7946,1745143819756392077
314080,-19,9,-43,1053,-1071,-7999,1745143819813397234
314272,-23,9,-40,1043,-1017,-8035,1745143819813397234
314464,-26,10,-35,1054,-972,-8045,1745143819813397234
314656,-22,12,-29,1057,-948,-8035,1745143819813397234
314848,-14,15,-23,1081,-937,-8050,1745143819813397234
315040,-7,15,-21,1100,-957,-8077,1745143819813397234
315232,-4,14,-19,1119,-960,-8078,1745143819813397234
315424,-1,10,-18,1124,-972,-8065,1745143819813397234
315616,-3,6,-17,1116,-986,-8050,1745143819813397234
315808,-5,2,-17,1107,-994,-8052,1745143819813397234
316000,-5,-2,-17,1065,-954,-8060,1745143819813397234
316192,-5,-5,-18,1029,-906,-8064,1745143819813397234
316384,-8,-7,-20,997,-860,-8055,1745143819873288093
316576,-6,-5,-24,965,-862,-8063,1745143819873288093
316768,-1,-2,-27,967,-858,-8071,1745143819873288093
316960,5,2,-31,993,-875,-8071,1745143819873288093
317152,10,4,-35,1008,-879,-8081,1745143819873288093
317344,13,6,-36,1022,-870,-8063,1745143819873288093
317536,18,6,-36,1050,-877,-8069,1745143819873288093
317728,27,4,-34,1062,-882,-8065,1745143819873288093
317920,37,2,-31,1050,-865,-8069,1745143819873288093
318112,43,1,-28,1062,-849,-8063,1745143819873288093
318304,47,0,-26,1053,-882,-8052,1745143819873288093
318496,53,-1,-24,1060,-921,-8058,1745143819873288093
318688,64,-3,-22,1063,-986,-8078,1745143819930444602
318880,72,-6,-21,1072,-1005,-8090,1745143819930444602
319072,70,-9,-21,1067,-1010,-8083,1745143819930444602
319264,61,-10,-20,1054,-1002,-8064,1745143819930444602
319456,52,-6,-18,1061,-1006,-8080,1745143819930444602
319648,48,-4,-13,1065,-969,-8107,1745143819930444602
319840,47,-2,-10,1080,-919,-8138,1745143819930444602
320032,47,-3,-10,1107,-870,-8128,1745143819930444602
320224,47,-6,-10,1125,-858,-8098,1745143819930444602
320416,49,-7,-9,1156,-875,-8088,1745143819930444602
320608,53,-9,-8,1172,-900,-8075,1745143819930444602
320800,56,-14,-8,1167,-923,-8059,1745143819930444602
320992,58,-20,-11,1125,-941,-8064,1745143819990538011
321184,56,-26,-15,1095,-919,-8042,1745143819990538011
321376,50,-30,-18,1035,-930,-8054,1745143819990538011
321568,46,-29,-19,998,-910,-8057,1745143819990538011
321760,47,-28,-21,971,-913,-8054,1745143819990538011
321952,50,-28,-21,966,-898,-8055,1745143819990538011
322144,51,-29,-24,958,-905,-8015,1745143819990538011
322336,50,-27,-26,978,-932,-7977,1745143819990538011
322528,48,-24,-27,1000,-975,-7956,1745143819990538011
322720,45,-21,-27,1019,-1028,-7929,1745143819990538011
322912,39,-20,-29,1049,-1052,-7954,1745143819990538011
323104,30,-21,-32,1060,-1075,-7976,1745143819990538011
323296,20,-22,-32,1072,-1070,-7986,1745143820047535876
323488,10,-24,-32,1070,-1074,-8007,1745143820047535876
323680,4,-23,-33,1064,-1054,-8010,1745143820047535876
323872,1,-22,-32,1063,-1043,-8016,1745143820047535876
324064,-2,-19,-30,1051,-1005,-8036,1745143820047535876
324256,-3,-16,-27,1061,-1001,-8042,1745143820047535876
324448,2,-16,-23,1055,-983,-8024,1745143820047535876
324640,8,-18,-19,1043,-989,-8001,1745143820047535876
324832,14,-19,-15,1030,-1011,-7965,1745143820047535876
325024,17,-16,-10,1029,-1011,-7959,1745143820047535876
325216,18,-14,-7,1003,-1023,-7944,1745143820047535876
325408,19,-13,-6,1011,-1039,-7930,1745143820047535876
325600,19,-15,-6,1003,-1044,-7897,1745143820107243560
325792,17,-16,-8,994,-1044,-7884,1745143820107243560
325984,14,-15,-10,987,-1024,-7893,1745143820107243560
326176,9,-16,-13,981,-1003,-7891,1745143820107243560
326368,5,-17,-16,977,-977,-7898,1745143820107243560
326560,3,-19,-18,989,-964,-7877,1745143820107243560
326752,2,-19,-18,1008,-963,-7871,1745143820107243560
326944,0,-18,-16,1014,-975,-7886,1745143820107243560
327136,1,-16,-13,1012,-1002,-7919,1745143820107243560
327328,2,-17,-12,1011,-1005,-7932,1745143820107243560
327520,1,-17,-11,994,-988,-7939,1745143820107243560
327712,-2,-15,-10,974,-992,-7951,1745143820107243560
327904,-2,-10,-8,970,-992,-7944,1745143820164414131
328096,2,-3,-4,981,-983,-7958,1745143820164414131
328288,7,4,1,958,-957,-7952,1745143820164414131
328480,10,9,3,988,-924,-7911,1745143820164414131
328672,12,13,3,997,-910,-7896,1745143820164414131
328864,14,15,3,1010,-917,-7875,1745143820164414131
329056,18,14,2,999,-919,-7871,1745143820164414131
329248,23,14,-2,1011,-902,-7899,1745143820164414131
329440,26,14,-7,989,-886,-7920,1745143820164414131
329632,24,13,-11,986,-878,-7939,1745143820164414131
329824,23,13,-16,965,-880,-7951,1745143820164414131
330016,24,12,-20,961,-902,-7958,1745143820164414131
330208,24,14,-22,960,-903,-7969,1745143820224114419
330400,25,16,-22,971,-920,-8001,1745143820224114419
330592,27,19,-22,989,-906,-8013,1745143820224114419
330784,30,21,-21,995,-887,-8028,1745143820224114419
330976,35,21,-20,993,-854,-8004,1745143820224114419
331168,44,19,-17,1000,-842,-7976,1745143820224114419
331360,57,17,-14,1001,-839,-7963,1745143820224114419
331552,73,16,-13,1003,-845,-7945,1745143820224114419
331744,86,15,-13,995,-875,-7924,1745143820224114419
331936,95,16,-15,1012,-882,-7921,1745143820224114419
332128,102,17,-19,1016,-905,-7920,1745143820224114419
332320,107,17,-21,1014,-947,-7918,1745143820224114419
332512,109,17,-23,1010,-966,-7916,1745143820287780244
332704,107,17,-26,996,-995,-7944,1745143820287780244
332896,101,18,-30,975,-1036,-7937,1745143820287780244
333088,94,21,-31,961,-1077,-7963,1745143820287780244
333280,88,25,-28,982,-1110,-7973,1745143820287780244
333472,78,32,-24,998,-1136,-7972,1745143820287780244
333664,68,40,-19,1029,-1155,-7995,1745143820287780244
333856,59,44,-16,1055,-1172,-7966,1745143820287780244
334048,52,45,-14,1074,-1160,-7972,1745143820287780244
334240,47,43,-12,1090,-1169,-7943,1745143820287780244
334432,42,40,-11,1106,-1202,-7912,1745143820287780244
334624,39,35,-8,1078,-1233,-7935,1745143820287780244
334816,35,32,-5,1051,-1244,-7971,1745143820339226857
335008,28,30,0,1056,-1233,-7992,1745143820339226857
335200,15,30,-2,1052,-1215,-8025,1745143820339226857
335392,0,30,-5,1032,-1179,-8018,1745143820339226857
335584,-11,28,-6,1004,-1158,-8028,1745143820339226857
335776,-15,27,-3,992,-1095,-8034,1745143820339226857
335968,-16,29,0,984,-1046,-8024,1745143820339226857
336160,-17,30,2,1005,-1013,-8019,1745143820339226857
336352,-14,30,1,1025,-1001,-8031,1745143820339226857
336544,-7,28,-1,1065,-1010,-8031,1745143820339226857
336736,4,23,-5,1070,-1022,-8028,1745143820339226857
336928,12,17,-8,1067,-1006,-8043,1745143820339226857
337120,16,13,-12,1066,-997,-8038,1745143820399490578
337312,19,8,-15,1050,-1000,-8002,1745143820399490578
337504,20,7,-17,1034,-1022,-7978,1745143820399490578
337696,22,7,-18,1037,-1080,-7951,1745143820399490578
337888,23,8,-20,1046,-1141,-7961,1745143820399490578
338080,22,9,-23,1055,-1169,-7990,1745143820399490578
338272,15,10,-24,1047,-1186,-8014,1745143820399490578
338464,5,10,-24,1056,-1172,-8009,1745143820399490578
338656,-3,8,-23,1033,-1172,-7972,1745143820399490578
338848,-6,8,-20,1025,-1190,-7962,1745143820399490578
339040,-7,9,-15,1023,-1192,-7952,1745143820399490578
339232,-7,10,-10,1026,-1151,-7946,1745143820399490578
339424,-8,14,-5,1033,-1113,-7960,1745143820462057402
339616,-9,17,-1,1039,-1065,-7976,1745143820462057402
339808,-7,21,4,1045,-1024,-8007,1745143820462057402
340000,0,23,9,1071,-995,-8019,1745143820462057402
340192,9,24,12,1086,-993,-8051,1745143820462057402
340384,15,24,14,1110,-983,-8056,1745143820462057402
340576,20,20,11,1119,-1030,-8085,1745143820462057402
340768,26,17,9,1091,-1074,-8090,1745143820462057402
340960,32,14,6,1065,-1079,-8107,1745143820462057402
341152,36,14,5,1032,-1061,-8124,1745143820462057402
341344,38,18,7,1025,-1042,-8127,1745143820462057402
341536,42,23,8,1028,-1016,-8126,1745143820462057402
341728,50,25,9,1022,-998,-8114,1745143820514058333
341920,59,24,9,1057,-1017,-8092,1745143820514058333
342112,68,23,9,1070,-1044,-8079,1745143820514058333
342304,73,19,9,1120,-1088,-8044,1745143820514058333
342496,73,15,10,1123,-1149,-8050,1745143820514058333
342688,67,10,10,1141,-1156,-8074,1745143820514058333
342880,58,4,7,1128,-1163,-8054,1745143820514058333
343072,43,-3,4,1120,-1153,-8048,1745143820514058333
343264,26,-8,1,1110,-1146,-8059,1745143820514058333
343456,9,-11,-1,1095,-1167,-8041,1745143820514058333
343648,-2,-13,-3,1093,-1173,-8035,1745143820514058333
343840,-14,-15,-3,1080,-1176,-8068,1745143820514058333
344032,-26,-14,-3,1062,-1142,-8091,1745143820574128045
344224,-36,-13,-2,1043,-1103,-8098,1745143820574128045
344416,-41,-14,-2,1037,-1065,-8110,1745143820574128045
344608,-41,-13,-1,1013,-1031,-8106,1745143820574128045
344800,-36,-11,1,1007,-996,-8071,1745143820574128045
344992,-27,-7,5,1035,-1010,-8059,1745143820574128045
345184,-15,-2,7,1064,-1048,-8059,1745143820574128045
345376,-3,2,9,1088,-1068,-8055,1745143820574128045
345568,6,0,10,1125,-1089,-8066,1745143820574128045
345760,7,-4,10,1127,-1091,-8053,1745143820574128045
345952,4,-8,11,1102,-1092,-8044,1745143820574128045
346144,1,-13,13,1073,-1076,-8028,1745143820574128045
346336,-2,-16,14,1037,-1071,-8017,1745143820637285697
346528,-5,-17,14,998,-1072,-8003,1745143820637285697
346720,-7,-15,13,983,-1044,-8019,1745143820637285697
346912,-9,-10,13,979,-1028,-8015,1745143820637285697
347104,-12,-4,12,999,-1032,-8021,1745143820637285697
347296,-14,1,11,1016,-1015,-8011,1745143820637285697
347488,-11,3,10,1045,-1029,-8030,1745143820637285697
347680,-8,5,9,1065,-1026,-8016,1745143820637285697
347872,-4,3,7,1084,-1018,-8005,1745143820637285697
348064,0,1,3,1083,-1015,-7996,1745143820637285697
348256,5,-6,-1,1082,-1053,-7983,1745143820637285697
348448,10,-14,-5,1079,-1078,-7991,1745143820637285697
348640,14,-17,-6,1043,-1079,-7979,1745143820689355899
348640,14,-17,-6,1043,-1079,-7979,1745143820689355899
348832,12,-17,-5,1029,-1046,-7979,1745143820689355899
349024,7,-16,-2,1013,-1044,-7971,1745143820689355899
349216,2,-17,-2,1015,-1042,-7940,1745143820689355899
349408,0,-20,-1,996,-1062,-7906,1745143820689355899
349600,0,-20,-1,1011,-1090,-7896,1745143820689355899
349792,-2,-16,0,1034,-1109,-7911,1745143820689355899
349984,-9,-11,-1,1073,-1142,-7920,1745143820689355899
350176,-16,-9,-4,1085,-1130,-7961,1745143820689355899
350368,-21,-11,-5,1092,-1116,-7995,1745143820689355899
350560,-25,-14,-5,1074,-1073,-7980,1745143820689355899
350752,-28,-17,-4,1057,-1049,-7975,1745143820749386079
350944,-25,-18,-3,1016,-1001,-7951,1745143820749386079
351136,-19,-16,-2,988,-970,-7935,1745143820749386079
351328,-10,-12,-1,1000,-934,-7919,1745143820749386079
351520,-2,-7,-1,1008,-955,-7909,1745143820749386079
351712,6,-2,-1,1019,-981,-7899,1745143820749386079
351904,16,1,1,1035,-1023,-7900,1745143820749386079
352096,23,1,2,1043,-1043,-7891,1745143820749386079
352288,26,-1,2,1046,-1038,-7891,1745143820749386079
352480,25,-3,1,996,-1019,-7873,1745143820749386079
352672,25,-3,-1,965,-1025,-7882,1745143820749386079
352864,27,1,-2,952,-1031,-7882,1745143820749386079
353056,29,6,-4,964,-1062,-7899,1745143820806615765
353248,29,9,-7,965,-1100,-7915,1745143820806615765
353440,28,9,-10,989,-1117,-7921,1745143820806615765
353632,24,9,-11,994,-1113,-7933,1745143820806615765
353824,16,9,-11,995,-1109,-7934,1745143820806615765
354016,9,11,-10,995,-1095,-7942,1745143820806615765
354208,5,12,-11,998,-1082,-7968,1745143820806615765
354400,6,12,-12,1002,-1077,-7981,1745143820806615765
354592,8,10,-15,1026,-1060,-7989,1745143820806615765
354784,12,9,-17,1035,-1051,-7986,1745143820806615765
354976,13,7,-19,1052,-1051,-7958,1745143820806615765
355168,13,4,-19,1075,-1066,-7938,1745143820806615765
355360,12,1,-18,1069,-1073,-7944,1745143820866370740
355552,11,-3,-17,1046,-1072,-7949,1745143820866370740
355744,11,-6,-15,1031,-1048,-7960,1745143820866370740
355936,12,-6,-14,1011,-1029,-7973,1745143820866370740
356128,12,-3,-12,1002,-1033,-7981,1745143820866370740
356320,18,1,-10,1010,-1031,-7979,1745143820866370740
356512,27,5,-10,1021,-1048,-7973,1745143820866370740
356704,36,7,-10,1031,-1048,-7977,1745143820866370740
356896,45,7,-10,1043,-1037,-7971,1745143820866370740
357088,53,9,-10,1030,-1030,-7953,1745143820866370740
357280,61,12,-10,1052,-1050,-7932,1745143820866370740
357472,67,14,-11,1050,-1088,-7929,1745143820866370740
357664,71,14,-13,1059,-1133,-7932,1745143820923283553
357856,73,11,-16,1060,-1172,-7937,1745143820923283553
358048,69,10,-20,1037,-1187,-7945,1745143820923283553
358240,59,9,-21,1014,-1186,-7948,1745143820923283553
358432,50,10,-22,988,-1189,-7976,1745143820923283553
358624,43,11,-21,964,-1206,-7976,1745143820923283553
358816,36,13,-21,950,-1200,-7976,1745143820923283553
359008,30,13,-22,987,-1228,-7981,1745143820923283553
359200,22,15,-22,1014,-1240,-7966,1745143820923283553
359392,15,15,-22,1033,-1267,-7983,1745143820923283553
359584,8,14,-20,1041,-1273,-8004,1745143820923283553
359776,2,12,-17,1051,-1248,-8025,1745143820923283553
359968,-4,10,-13,1064,-1209,-8030,1745143820978153781
360160,-6,8,-12,1058,-1191,-8037,1745143820978153781
360352,-4,7,-10,1035,-1165,-8041,1745143820978153781
360544,-1,6,-10,1043,-1156,-8062,1745143820978153781
360736,1,5,-12,1040,-1185,-8042,1745143820978153781
360928,6,3,-15,1021,-1181,-8051,1745143820978153781
361120,9,1,-16,1016,-1187,-8049,1745143820978153781
361312,10,1,-15,1012,-1178,-8041,1745143820978153781
361504,12,0,-14,1004,-1170,-8031,1745143820978153781
361696,15,1,-12,1000,-1159,-8017,1745143820978153781
361888,19,3,-10,1020,-1177,-8016,1745143820978153781
362080,21,3,-10,1020,-1189,-8000,1745143820978153781
362272,21,2,-10,1041,-1190,-7985,1745143821041667003
362464,21,1,-11,1048,-1207,-7956,1745143821041667003
362656,17,0,-10,1077,-1223,-7933,1745143821041667003
362848,12,1,-10,1107,-1281,-7920,1745143821041667003
363040,6,-1,-9,1099,-1293,-7915,1745143821041667003
363232,-3,-3,-10,1096,-1301,-7923,1745143821041667003
363424,-13,-4,-11,1087,-1290,-7912,1745143821041667003
363616,-22,-7,-12,1056,-1289,-7907,1745143821041667003
363808,-27,-8,-13,1010,-1271,-7913,1745143821041667003
364000,-28,-6,-13,982,-1227,-7930,1745143821041667003
364192,-28,-1,-12,947,-1183,-7976,1745143821041667003
364384,-24,4,-10,942,-1143,-7971,1745143821041667003
364576,-14,8,-9,940,-1138,-7977,1745143821100480580
364768,0,14,-5,965,-1119,-7996,1745143821100480580
364960,15,20,1,990,-1113,-7990,1745143821100480580
365152,27,24,6,1028,-1132,-7989,1745143821100480580
365344,36,23,8,1072,-1160,-7969,1745143821100480580
365536,42,20,9,1098,-1199,-7977,1745143821100480580
365728,47,17,11,1076,-1235,-7992,1745143821100480580
365920,48,15,11,1088,-1248,-7990,1745143821100480580
366112,45,14,12,1075,-1251,-7996,1745143821100480580
366304,38,10,12,1056,-1264,-7987,1745143821100480580
366496,29,5,11,1031,-1274,-7985,1745143821100480580
366688,19,3,10,992,-1285,-7979,1745143821100480580
366880,10,5,7,976,-1286,-7982,1745143821157434696
367072,2,9,4,975,-1278,-7980,1745143821157434696
367264,-3,13,4,985,-1252,-7998,1745143821157434696
367456,-4,15,3,1003,-1223,-8002,1745143821157434696
367648,-4,15,2,1024,-1189,-8010,1745143821157434696
367840,-2,13,0,1041,-1165,-8036,1745143821157434696
368032,2,11,-2,1054,-1147,-8022,1745143821157434696
368224,7,8,-3,1081,-1133,-8004,1745143821157434696
368416,10,4,-4,1079,-1136,-8026,1745143821157434696
368608,16,0,-5,1080,-1151,-8027,1745143821157434696
368800,20,-4,-6,1068,-1148,-8020,1745143821157434696
368992,23,-8,-8,1022,-1153,-8006,1745143821157434696
369184,23,-11,-11,1020,-1173,-7984,1745143821217213577
369376,21,-11,-11,1014,-1221,-7932,1745143821217213577
369568,18,-8,-13,1018,-1287,-7941,1745143821217213577
369760,15,-5,-13,1005,-1290,-7933,1745143821217213577
369952,8,-4,-13,1014,-1299,-7960,1745143821217213577
370144,-3,-4,-12,1006,-1290,-7948,1745143821217213577
370336,-11,-3,-11,1006,-1279,-7958,1745143821217213577
370528,-14,-1,-9,1011,-1269,-7961,1745143821217213577
370720,-13,2,-6,1016,-1261,-7969,1745143821217213577
370912,-11,3,-3,1014,-1227,-7970,1745143821217213577
371104,-8,6,0,1035,-1179,-7969,1745143821217213577
371296,-5,9,3,1036,-1145,-7973,1745143821217213577
371488,1,11,7,1053,-1170,-7973,1745143821275664084
371680,10,10,9,1052,-1189,-7963,1745143821275664084
371872,19,6,10,1053,-1193,-7960,1745143821275664084
372064,23,4,11,1034,-1190,-7956,1745143821275664084
372256,22,4,10,1030,-1179,-7953,1745143821275664084
372448,22,5,10,1025,-1181,-7950,1745143821275664084
372640,22,8,9,1031,-1174,-7948,1745143821275664084
372832,22,10,7,1035,-1193,-7956,1745143821275664084
373024,21,10,4,1056,-1219,-7959,1745143821275664084
373216,18,6,-1,1067,-1247,-7953,1745143821275664084
373408,15,1,-5,1083,-1255,-7948,1745143821275664084
373600,10,-2,-6,1051,-1249,-7936,1745143821275664084
373792,5,-3,-6,1027,-1236,-7938,1745143821333611888
373984,0,-4,-5,1008,-1236,-7937,1745143821333611888
374176,-2,-3,-4,1014,-1209,-7926,1745143821333611888
374368,-2,-2,-2,1028,-1187,-7921,1745143821333611888
374560,-3,1,0,1024,-1205,-7937,1745143821333611888
374752,-3,2,0,1014,-1225,-7956,1745143821333611888
374944,-1,1,1,1041,-1261,-7977,1745143821333611888
375136,0,1,1,1027,-1275,-7990,1745143821333611888
375328,0,2,2,1012,-1275,-8007,1745143821333611888
375520,-3,5,4,1019,-1261,-8028,1745143821333611888
375712,-5,9,7,1020,-1235,-8009,1745143821333611888
375904,-7,11,10,1024,-1237,-8002,1745143821333611888
376096,-6,12,12,1039,-1214,-7982,1745143821392809837
376288,-5,13,12,1058,-1215,-7970,1745143821392809837
376480,-1,11,11,1043,-1212,-7986,1745143821392809837
376672,0,6,9,1037,-1214,-8005,1745143821392809837
376864,-1,0,7,1011,-1195,-8000,1745143821392809837
377056,-3,-4,5,989,-1167,-7968,1745143821392809837
377248,-5,-4,6,964,-1175,-7953,1745143821392809837
377440,-8,0,6,972,-1192,-7942,1745143821392809837
377632,-9,1,5,966,-1176,-7957,1745143821392809837
377824,-10,2,2,989,-1171,-7953,1745143821392809837
378016,-11,6,1,1031,-1158,-7977,1745143821392809837
378208,-13,11,-2,1060,-1149,-7991,1745143821392809837
378400,-13,13,-5,1098,-1155,-8014,1745143821449611662
378592,-13,11,-9,1113,-1163,-8033,1745143821449611662
378784,-9,4,-12,1121,-1172,-8016,1745143821449611662
378976,-6,-4,-14,1106,-1164,-8001,1745143821449611662
379168,-6,-10,-17,1062,-1190,-7993,1745143821449611662
379360,-5,-13,-17,1002,-1189,-7990,1745143821449611662
379552,-2,-13,-16,975,-1201,-7998,1745143821449611662
379744,-1,-11,-14,931,-1227,-7999,1745143821449611662
379936,1,-6,-10,936,-1239,-8006,1745143821449611662
380128,3,-1,-6,947,-1274,-8026,1745143821449611662
380320,2,5,-2,988,-1302,-8022,1745143821449611662
380512,-1,6,1,1020,-1317,-8015,1745143821449611662
380704,-5,4,4,1029,-1307,-7977,1745143821509372210
380896,-11,4,8,1037,-1275,-7973,1745143821509372210
381088,-14,3,11,1063,-1239,-7949,1745143821509372210
381280,-14,3,12,1069,-1195,-7950,1745143821509372210
381472,-13,2,10,1067,-1157,-7959,1745143821509372210
381664,-12,-2,8,1053,-1134,-7938,1745143821509372210
381856,-12,-8,4,1057,-1142,-7927,1745143821509372210
382048,-10,-13,1,1040,-1190,-7928,1745143821509372210
382240,-7,-14,1,1028,-1208,-7938,1745143821509372210
382432,-6,-12,1,1033,-1201,-7938,1745143821509372210
382624,-10,-10,0,1008,-1196,-7948,1745143821509372210
382816,-14,-8,1,1019,-1167,-7932,1745143821509372210
383008,-11,-6,2,1016,-1182,-7925,1745143821566083098
383200,-2,-3,5,1011,-1169,-7929,1745143821566083098
383392,4,1,8,1021,-1152,-7943,1745143821566083098
383584,8,3,7,1022,-1157,-7963,1745143821566083098
383776,12,3,7,1003,-1149,-7967,1745143821566083098
383968,16,3,8,993,-1165,-7961,1745143821566083098
384160,19,4,7,994,-1193,-7927,1745143821566083098
384352,20,6,7,995,-1199,-7934,1745143821566083098
384544,18,9,8,994,-1217,-7955,1745143821566083098
384736,14,11,6,998,-1203,-7977,1745143821566083098
384928,11,9,3,985,-1161,-7981,1745143821566083098
385120,8,6,0,993,-1137,-7958,1745143821566083098
385312,4,4,-1,994,-1125,-7924,1745143821626585774
385504,2,1,-1,1006,-1116,-7897,1745143821626585774
385696,-1,1,-4,1027,-1134,-7859,1745143821626585774
385888,-8,-3,-9,1041,-1200,-7822,1745143821626585774
386080,-17,-7,-16,1050,-1263,-7824,1745143821626585774
386272,-30,-8,-23,1035,-1280,-7832,1745143821626585774
386464,-43,-8,-26,1028,-1272,-7868,1745143821626585774
386656,-54,-6,-27,1000,-1242,-7890,1745143821626585774
386848,-60,-6,-27,960,-1152,-7907,1745143821626585774
387040,-59,-3,-24,925,-1069,-7915,1745143821626585774
387232,-49,2,-21,923,-1019,-7907,1745143821626585774
387424,-31,10,-17,943,-1017,-7889,1745143821626585774
387616,-9,16,-15,972,-1060,-7890,1745143821683491140
387808,12,20,-13,1006,-1113,-7896,1745143821683491140
388000,28,24,-10,1038,-1151,-7902,1745143821683491140
388192,36,26,-10,1042,-1189,-7905,1745143821683491140
388384,36,27,-8,1057,-1198,-7890,1745143821683491140
388576,30,24,-8,1063,-1261,-7884,1745143821683491140
388768,25,21,-8,1026,-1294,-7877,1745143821683491140
388960,20,17,-8,984,-1334,-7868,1745143821683491140
389152,8,17,-11,962,-1325,-7869,1745143821683491140
389344,-10,20,-13,945,-1300,-7899,1745143821683491140
389536,-26,25,-13,940,-1292,-7939,1745143821683491140
389728,-33,28,-11,956,-1225,-7975,1745143821683491140
389920,-35,28,-10,977,-1195,-7984,1745143821743347520
390112,-35,25,-8,999,-1162,-7981,1745143821743347520
390304,-31,23,-7,1014,-1160,-8009,1745143821743347520
390496,-20,23,-5,1030,-1168,-8010,1745143821743347520
390688,-5,23,-6,1049,-1170,-8027,1745143821743347520
390880,7,21,-6,1053,-1160,-8032,1745143821743347520
391072,14,19,-5,1041,-1142,-8014,1745143821743347520
391264,20,19,-3,1038,-1152,-7990,1745143821743347520
391456,25,18,-2,1028,-1210,-7979,1745143821743347520
391648,28,19,-3,1015,-1237,-7996,1745143821743347520
391840,29,20,-5,1027,-1271,-8007,1745143821743347520
392032,24,21,-7,1030,-1296,-8025,1745143821743347520
392224,14,24,-7,1041,-1311,-8036,1745143821802347763
392416,1,23,-7,1048,-1318,-8032,1745143821802347763
392608,-9,21,-8,1073,-1320,-8021,1745143821802347763
392800,-13,17,-9,1060,-1303,-8006,1745143821802347763
392992,-19,12,-11,1053,-1306,-8002,1745143821802347763
393184,-22,10,-13,1027,-1285,-8027,1745143821802347763
393376,-24,11,-13,1020,-1263,-8029,1745143821802347763
393568,-24,13,-9,1024,-1226,-8026,1745143821802347763
393760,-22,15,-7,1034,-1191,-8026,1745143821802347763
393952,-15,16,-3,1046,-1204,-8002,1745143821802347763
394144,-6,15,1,1089,-1210,-8004,1745143821802347763
394336,2,13,1,1089,-1239,-8005,1745143821802347763
394528,7,9,2,1087,-1244,-7981,1745143821859210160
394720,9,6,1,1083,-1249,-7996,1745143821859210160
394912,8,5,0,1049,-1258,-8012,1745143821859210160
395104,7,6,1,1012,-1242,-8002,1745143821859210160
395296,5,5,1,997,-1216,-8012,1745143821859210160
395488,2,7,1,987,-1206,-7976,1745143821859210160
395680,1,8,2,985,-1242,-7949,1745143821859210160
395872,2,10,2,1009,-1268,-7964,1745143821859210160
396064,4,14,1,1031,-1272,-7989,1745143821859210160
396256,0,16,1,1055,-1277,-7997,1745143821859210160
396448,-3,17,1,1089,-1275,-8015,1745143821859210160
396640,-6,16,2,1099,-1274,-8026,1745143821859210160
396832,-8,16,3,1099,-1276,-8036,1745143821919162112
397024,-7,13,5,1084,-1247,-8040,1745143821919162112
397216,-8,10,5,1073,-1213,-8035,1745143821919162112
397408,-9,8,2,1049,-1203,-8022,1745143821919162112
397600,-8,7,2,1039,-1191,-8011,1745143821919162112
397792,-2,7,1,1021,-1158,-7980,1745143821919162112
397984,1,7,1,1033,-1159,-7966,1745143821919162112
398176,4,7,1,1023,-1171,-7950,1745143821919162112
398368,5,7,-1,1031,-1202,-7964,1745143821919162112
398560,6,7,-4,1035,-1229,-7980,1745143821919162112
398752,6,7,-6,1056,-1241,-7985,1745143821919162112
398944,5,6,-8,1037,-1260,-7997,1745143821919162112
399136,1,6,-8,1040,-1265,-8011,1745143821977304810
399328,-2,8,-7,1032,-1251,-8021,1745143821977304810
399520,-1,9,-4,1040,-1221,-8024,1745143821977304810
399712,3,11,-3,1043,-1182,-8030,1745143821977304810
399904,6,11,-4,1067,-1187,-8006,1745143821977304810
400096,11,10,-4,1093,-1212,-7998,1745143821977304810
400288,17,6,-3,1108,-1243,-8000,1745143821977304810
400480,22,1,-1,1099,-1275,-8001,1745143821977304810
400672,21,-2,-1,1092,-1269,-7996,1745143821977304810
400864,15,-6,-1,1041,-1276,-7990,1745143821977304810
401056,9,-7,-2,1005,-1302,-8001,1745143821977304810
401248,6,-5,0,993,-1312,-7980,1745143821977304810
401440,2,-2,1,1003,-1319,-7991,1745143822035961670
401632,-4,2,2,1024,-1326,-7983,1745143822035961670
401824,-9,6,4,1045,-1342,-8005,1745143822035961670
402016,-13,10,6,1053,-1293,-8012,1745143822035961670
402208,-15,11,8,1087,-1277,-8014,1745143822035961670
402400,-15,10,11,1088,-1256,-8018,1745143822035961670
402592,-8,7,11,1094,-1217,-8011,1745143822035961670
402784,1,2,10,1071,-1172,-8015,1745143822035961670
402976,9,1,9,1093,-1175,-7994,1745143822035961670
403168,14,-2,7,1080,-1192,-7952,1745143822035961670
403360,16,-5,5,1099,-1253,-7922,1745143822035961670
403552,14,-8,4,1082,-1305,-7906,1745143822035961670
403744,8,-10,3,1073,-1342,-7905,1745143822093979890
403936,-3,-9,3,1050,-1357,-7909,1745143822093979890
404128,-17,-8,4,1025,-1351,-7934,1745143822093979890
404320,-31,-4,5,995,-1347,-7994,1745143822093979890
404512,-39,-1,5,991,-1285,-8004,1745143822093979890
404704,-40,3,6,988,-1236,-8000,1745143822093979890
404896,-35,6,9,993,-1186,-8014,1745143822093979890
405088,-28,11,11,1021,-1142,-8009,1745143822093979890
405280,-16,13,13,1055,-1133,-8017,1745143822093979890
405472,-2,13,14,1091,-1132,-8008,1745143822093979890
405664,13,10,14,1114,-1126,-7987,1745143822093979890
405856,24,6,15,1097,-1133,-7954,1745143822093979890
406048,33,1,13,1092,-1155,-7930,1745143822152676385
406240,37,-4,10,1068,-1223,-7932,1745143822152676385
406432,37,-7,7,1038,-1281,-7946,1745143822152676385
406624,29,-6,4,1022,-1301,-7940,1745143822152676385
406816,13,-3,2,1007,-1325,-7925,1745143822152676385
407008,-8,-1,1,1010,-1343,-7913,1745143822152676385
407200,-25,-1,1,1019,-1359,-7878,1745143822152676385
407392,-38,0,2,1016,-1380,-7904,1745143822152676385
407584,-47,3,2,1043,-1326,-7912,1745143822152676385
407776,-51,4,3,1014,-1242,-7927,1745143822152676385
407968,-51,6,4,1030,-1146,-7945,1745143822152676385
408160,-43,6,6,1020,-1080,-7924,1745143822152676385
408352,-28,6,9,1035,-1046,-7915,1745143822211448869
408544,-9,7,11,1039,-1076,-7933,1745143822211448869
408736,10,8,11,1060,-1090,-7943,1745143822211448869
408928,25,7,7,1047,-1151,-7977,1745143822211448869
409120,32,5,4,1038,-1179,-7994,1745143822211448869
409312,33,5,3,1019,-1220,-7959,1745143822211448869
409504,29,6,5,998,-1240,-7945,1745143822211448869
409696,21,7,7,989,-1247,-7932,1745143822211448869
409888,15,10,8,990,-1272,-7932,1745143822211448869
410080,10,13,9,995,-1270,-7940,1745143822211448869
410272,2,16,8,1016,-1252,-7952,1745143822211448869
410464,-7,17,6,1046,-1229,-7956,1745143822211448869
410656,-15,16,5,1097,-1219,-7942,1745143822269349590
410848,-18,13,4,1119,-1251,-7956,1745143822269349590
411040,-15,8,3,1119,-1246,-7977,1745143822269349590
411232,-15,2,-1,1097,-1225,-8003,1745143822269349590
411424,-18,-3,-5,1076,-1192,-7970,1745143822269349590
411616,-19,-6,-7,1016,-1163,-7975,1745143822269349590
411808,-19,-6,-7,994,-1153,-7966,1745143822269349590
412000,-16,-3,-6,979,-1138,-7937,1745143822269349590
412192,-13,0,-5,968,-1128,-7941,1745143822269349590
412384,-8,5,-4,971,-1163,-7950,1745143822269349590
412576,-2,8,-4,993,-1184,-7950,1745143822269349590
412768,4,10,-4,1007,-1236,-7973,1745143822269349590
412960,4,9,-4,1043,-1240,-7945,1745143822328175615
413152,3,11,-2,1040,-1261,-7941,1745143822328175615
413344,4,12,2,1042,-1263,-7949,1745143822328175615
413536,6,15,4,1036,-1226,-7978,1745143822328175615
413728,8,18,4,1068,-1208,-7990,1745143822328175615
413920,10,18,2,1085,-1203,-7971,1745143822328175615
414112,14,16,3,1103,-1217,-7956,1745143822328175615
414304,17,12,3,1094,-1211,-7947,1745143822328175615
414496,18,10,2,1104,-1249,-7937,1745143822328175615
414688,14,7,-1,1088,-1291,-7938,1745143822328175615
414880,10,2,-3,1069,-1335,-7909,1745143822328175615
415072,5,1,-4,1047,-1341,-7923,1745143822328175615
415264,-4,3,-2,1011,-1280,-7953,1745143822386203992
415456,-16,7,0,998,-1245,-7974,1745143822386203992
415648,-21,9,2,1004,-1203,-7972,1745143822386203992
415840,-20,10,2,1023,-1180,-7968,1745143822386203992
416032,-11,10,3,1048,-1206,-7948,1745143822386203992
416224,-1,11,2,1084,-1224,-7972,1745143822386203992
416416,9,11,0,1087,-1226,-8006,1745143822386203992
416608,17,9,-2,1071,-1192,-8032,1745143822386203992
416800,23,8,-3,1064,-1187,-8026,1745143822386203992
416992,27,7,-5,1045,-1183,-7995,1745143822386203992
417184,31,6,-6,1043,-1233,-7975,1745143822386203992
417376,36,5,-8,1023,-1306,-7983,1745143822386203992
417568,38,6,-10,1023,-1358,-7984,1745143822444997621
417760,34,9,-13,1012,-1410,-8000,1745143822444997621
417952,24,11,-15,1024,-1420,-8018,1745143822444997621
418144,13,12,-14,1025,-1414,-8024,1745143822444997621
418336,4,11,-9,1040,-1386,-8012,1745143822444997621
418528,-2,9,-3,1027,-1365,-7999,1745143822444997621
418720,-3,8,2,1049,-1365,-8008,1745143822444997621
418912,-1,8,6,1079,-1393,-8018,1745143822444997621
419104,1,7,6,1110,-1379,-8016,1745143822444997621
419296,1,3,6,1096,-1385,-8047,1745143822444997621
419488,0,0,8,1091,-1405,-8060,1745143822444997621
419680,-1,-1,12,1075,-1378,-8066,1745143822444997621
419872,-2,-3,16,1044,-1369,-8068,1745143822502086318
420064,-5,-3,18,1017,-1326,-8060,1745143822502086318
420256,-8,-3,19,1003,-1323,-8052,1745143822502086318
420448,-8,-2,19,1015,-1299,-8055,1745143822502086318
420640,-5,0,19,1015,-1272,-8049,1745143822502086318
420832,-3,2,19,1014,-1261,-8027,1745143822502086318
421024,-2,2,18,1064,-1233,-8025,1745143822502086318
421216,-2,0,16,1074,-1240,-8005,1745143822502086318
421408,0,-4,13,1099,-1256,-7985,1745143822502086318
421600,-1,-9,8,1081,-1259,-7941,1745143822502086318
421792,-5,-13,4,1070,-1249,-7935,1745143822502086318
421984,-10,-17,-1,1034,-1248,-7954,1745143822502086318
422176,-17,-20,-5,1011,-1246,-7945,1745143822561951553
422368,-18,-20,-5,974,-1270,-7944,1745143822561951553
422560,-18,-19,-4,954,-1249,-7933,1745143822561951553
422752,-18,-14,-2,949,-1241,-7956,1745143822561951553
422944,-17,-7,0,947,-1196,-7978,1745143822561951553
423136,-13,-2,3,980,-1187,-7962,1745143822561951553
423328,-4,0,7,1016,-1189,-7926,1745143822561951553
423520,7,0,10,1052,-1222,-7932,1745143822561951553
423712,14,0,10,1081,-1259,-7942,1745143822561951553
423904,16,-2,9,1078,-1267,-7963,1745143822561951553
424096,14,-3,8,1062,-1283,-7959,1745143822561951553
424288,10,-4,8,1045,-1302,-7977,1745143822561951553
424480,7,-3,10,1037,-1280,-8022,1745143822620973253
424672,5,-2,10,1018,-1256,-8019,1745143822620973253
424864,0,-3,9,1023,-1225,-8015,1745143822620973253
425056,-1,-4,8,1007,-1199,-7993,1745143822620973253
425248,-3,-4,6,1016,-1199,-7989,1745143822620973253
425440,-4,-4,5,1022,-1216,-7973,1745143822620973253
425632,-1,-4,3,1039,-1246,-7992,1745143822620973253
425824,3,-6,-1,1053,-1244,-7991,1745143822620973253
426016,3,-8,-2,1049,-1241,-7986,1745143822620973253
426208,1,-11,-5,1044,-1219,-7966,1745143822620973253
426400,0,-14,-7,1042,-1226,-7944,1745143822620973253
426592,2,-15,-5,1030,-1241,-7918,1745143822620973253
426784,4,-16,-3,1004,-1246,-7907,1745143822677998722
426976,2,-14,-2,994,-1231,-7897,1745143822677998722
427168,-1,-12,-1,994,-1245,-7916,1745143822677998722
427360,-4,-8,0,1002,-1275,-7902,1745143822677998722
427552,-4,-5,0,1007,-1297,-7917,1745143822677998722
427744,-3,-3,2,1030,-1300,-7926,1745143822677998722
427936,-4,-3,3,1029,-1272,-7922,1745143822677998722
428128,-8,-3,4,1013,-1225,-7925,1745143822677998722
428320,-10,-3,4,1002,-1195,-7896,1745143822677998722
428512,-8,-2,4,992,-1195,-7873,1745143822677998722
428704,-3,-1,3,993,-1192,-7882,1745143822677998722
428896,2,0,3,1008,-1206,-7903,1745143822677998722
429088,4,2,2,994,-1196,-7907,1745143822737489116
429280,2,1,0,999,-1215,-7920,1745143822737489116
429472,-2,0,-2,992,-1187,-7913,1745143822737489116
429664,-6,0,-2,972,-1190,-7887,1745143822737489116
429856,-11,2,0,994,-1223,-7903,1745143822737489116
430048,-11,6,1,1001,-1214,-7917,1745143822737489116
430240,-10,8,-1,1014,-1199,-7913,1745143822737489116
430432,-9,7,-4,1032,-1205,-7911,1745143822737489116
430624,-9,5,-7,1032,-1181,-7912,1745143822737489116
430816,-6,3,-7,1016,-1162,-7901,1745143822737489116
431008,0,4,-6,997,-1158,-7913,1745143822737489116
431200,4,5,-7,1011,-1120,-7915,1745143822737489116
431392,7,6,-10,995,-1144,-7928,1745143822795635720
431584,9,7,-14,1008,-1203,-7939,1745143822795635720
431776,13,6,-18,1002,-1238,-7957,1745143822795635720
431968,18,4,-20,1008,-1269,-7948,1745143822795635720
432160,17,2,-20,1013,-1277,-7947,1745143822795635720
432352,10,2,-18,993,-1252,-7948,1745143822795635720
432544,3,4,-16,996,-1262,-7935,1745143822795635720
432736,3,5,-14,983,-1256,-7933,1745143822795635720
432928,6,7,-12,988,-1242,-7972,1745143822795635720
433120,8,9,-10,1015,-1233,-7969,1745143822795635720
433312,9,10,-10,1043,-1248,-7978,1745143822795635720
433504,10,11,-10,1056,-1256,-7973,1745143822795635720
433696,10,9,-12,1085,-1291,-7968,1745143822854302528
433888,7,7,-13,1082,-1341,-7956,1745143822854302528
434080,3,5,-14,1070,-1360,-7958,1745143822854302528
434272,-3,3,-15,1047,-1363,-7967,1745143822854302528
434464,-8,3,-15,1012,-1334,-7939,1745143822854302528
434656,-13,3,-14,991,-1284,-7942,1745143822854302528
434848,-15,6,-12,962,-1233,-7961,1745143822854302528
435040,-15,9,-12,964,-1211,-7966,1745143822854302528
435232,-10,10,-11,971,-1200,-7961,1745143822854302528
435424,-4,11,-12,997,-1224,-7965,1745143822854302528
435616,0,12,-12,1029,-1249,-7979,1745143822854302528
435808,4,13,-13,1066,-1301,-7990,1745143822854302528
436000,7,11,-14,1109,-1314,-8004,1745143822912402310
436192,6,6,-16,1085,-1302,-8022,1745143822912402310
436384,4,1,-16,1058,-1276,-7986,1745143822912402310
436576,3,-2,-15,1045,-1252,-7955,1745143822912402310
436768,4,-2,-13,1015,-1282,-7933,1745143822912402310
436960,7,-1,-14,994,-1296,-7945,1745143822912402310
437152,9,1,-13,995,-1320,-7961,1745143822912402310
437344,10,3,-13,1005,-1365,-7954,1745143822912402310
437536,6,5,-13,1006,-1384,-7987,1745143822912402310
437728,0,7,-11,1002,-1399,-8007,1745143822912402310
437920,-6,7,-8,1006,-1382,-8002,1745143822912402310
438112,-8,7,-6,995,-1364,-7989,1745143822912402310
438304,-10,8,-3,999,-1333,-7981,1745143822971267866
438496,-10,10,-2,1030,-1306,-7995,1745143822971267866
438688,-7,12,-2,1056,-1303,-8011,1745143822971267866
438880,-1,11,-3,1061,-1307,-8014,1745143822971267866
439072,4,8,-5,1066,-1300,-8018,1745143822971267866
439264,7,5,-6,1074,-1269,-8007,1745143822971267866
439456,6,1,-6,1047,-1264,-8007,1745143822971267866
439648,7,-1,-5,1013,-1236,-7992,1745143822971267866
439840,10,-2,-5,993,-1231,-7970,1745143822971267866
440032,13,-2,-7,985,-1258,-7981,1745143822971267866
440224,18,-2,-10,997,-1285,-7973,1745143822971267866
440416,21,0,-12,1008,-1316,-7988,1745143822971267866
440608,22,3,-14,1032,-1342,-7993,1745143823028511353
440800,19,4,-15,1060,-1329,-8006,1745143823028511353
440992,13,2,-16,1066,-1328,-8004,1745143823028511353
441184,8,-4,-16,1058,-1362,-7972,1745143823028511353
441376,6,-9,-15,1042,-1370,-7940,1745143823028511353
441568,6,-11,-13,1017,-1398,-7947,1745143823028511353
441760,4,-9,-10,1007,-1379,-7951,1745143823028511353
441952,-1,-5,-8,1012,-1369,-7952,1745143823028511353
442144,-9,-3,-6,993,-1364,-7942,1745143823028511353
442336,-12,-1,-2,989,-1372,-7945,1745143823028511353
442528,-11,0,3,997,-1370,-7937,1745143823028511353
442720,-9,3,7,1000,-1359,-7950,1745143823028511353
442912,-11,6,9,1008,-1332,-7968,1745143823088057736
443104,-13,9,8,1025,-1325,-7968,1745143823088057736
443296,-12,11,7,1033,-1297,-7974,1745143823088057736
443488,-8,9,5,1058,-1268,-7956,1745143823088057736
443680,-3,6,4,1041,-1241,-7975,1745143823088057736
443872,1,3,2,1025,-1218,-7967,1745143823088057736
444064,6,1,0,1019,-1221,-7985,1745143823088057736
444256,9,-1,-4,1011,-1230,-7972,1745143823088057736
444448,11,-5,-8,1001,-1261,-7978,1745143823088057736
444640,14,-6,-9,1002,-1300,-7986,1745143823088057736
444832,13,-5,-8,1013,-1318,-7969,1745143823088057736
445024,7,-4,-8,1027,-1320,-7956,1745143823088057736
445216,-1,-5,-8,1015,-1316,-7953,1745143823146942615
445408,-7,-7,-10,1007,-1299,-7971,1745143823146942615
445600,-10,-10,-13,1003,-1295,-7947,1745143823146942615
445792,-9,-13,-15,993,-1262,-7950,1745143823146942615
445984,-8,-13,-16,984,-1243,-7948,1745143823146942615
446176,-7,-11,-19,981,-1214,-7975,1745143823146942615
446368,-6,-11,-21,993,-1185,-7984,1745143823146942615
446560,-5,-12,-23,977,-1147,-7980,1745143823146942615
446752,-3,-14,-27,967,-1117,-7972,1745143823146942615
446944,2,-14,-30,944,-1091,-7982,1745143823146942615
447136,12,-13,-31,944,-1069,-8005,1745143823146942615
447328,24,-10,-35,951,-1035,-8038,1745143823146942615
447520,32,-9,-40,958,-999,-8039,1745143823204582609
447712,36,-10,-46,965,-963,-8030,1745143823204582609
447904,38,-12,-50,981,-956,-8025,1745143823204582609
448096,41,-18,-56,973,-935,-8042,1745143823204582609
448288,47,-23,-64,959,-888,-8090,1745143823204582609
448480,50,-28,-76,918,-812,-8097,1745143823204582609
448672,44,-33,-92,914,-694,-8058,1745143823204582609
448864,29,-37,-111,935,-614,-7998,1745143823204582609
449056,14,-44,-132,965,-514,-8031,1745143823204582609
449248,-2,-53,-163,993,-382,-8154,1745143823204582609
449440,-19,-66,-203,1013,-139,-8299,1745143823204582609
449632,-47,-85,-253,1031,194,-8439,1745143823204582609
449824,-86,-107,-307,1017,600,-8509,1745143823263333739
450016,-132,-134,-366,1001,1052,-8588,1745143823263333739
450208,-176,-163,-434,919,1509,-8684,1745143823263333739
450400,-204,-190,-510,831,2061,-8770,1745143823263333739
450592,-213,-222,-590,790,2680,-8784,1745143823263333739
450784,-212,-255,-675,813,3287,-8609,1745143823263333739
450976,-213,-287,-771,877,3908,-8355,1745143823263333739
451168,-211,-320,-890,924,4494,-8179,1745143823263333739
451360,-201,-354,-1033,976,4988,-8108,1745143823263333739
451552,-179,-392,-1198,1051,5338,-8093,1745143823263333739
451744,-135,-437,-1379,1182,5562,-8113,1745143823263333739
451936,-80,-490,-1570,1316,5718,-8168,1745143823263333739
452128,-31,-542,-1763,1517,5827,-8231,1745143823321541437
452320,-5,-587,-1956,1718,5946,-8194,1745143823321541437
452512,-4,-626,-2144,1943,6077,-8160,1745143823321541437
452704,-24,-669,-2327,2160,6256,-8009,1745143823321541437
452896,-53,-717,-2506,2323,6479,-7827,1745143823321541437
453088,-79,-758,-2686,2505,6734,-7694,1745143823321541437
453280,-110,-773,-2870,2516,7174,-7109,1745143823321541437
453472,-110,-805,-3022,2619,7553,-6735,1745143823321541437
453664,-91,-833,-3165,2667,7959,-6532,1745143823321541437
453856,-46,-834,-3294,2979,8222,-6768,1745143823321541437
454048,16,-791,-3439,3453,8398,-6949,1745143823321541437
454240,84,-722,-3595,4115,8335,-7198,1745143823321541437
454432,158,-671,-3752,4984,7998,-7395,1745143823380478763
454624,242,-665,-3903,5909,7536,-7445,1745143823380478763
454816,333,-707,-4044,6630,7150,-7407,1745143823380478763
455008,424,-774,-4172,7159,6914,-7373,1745143823380478763
455200,503,-844,-4306,7391,6846,-7070,1745143823380478763
455392,577,-883,-4450,7309,6813,-6754,1745143823380478763
455584,665,-900,-4600,7147,6654,-6432,1745143823380478763
455776,763,-912,-4744,7035,6306,-6130,1745143823380478763
455968,859,-936,-4873,6993,5816,-5902,1745143823380478763
456160,940,-970,-4988,6959,5318,-5677,1745143823380478763
456352,1000,-1002,-5083,6879,4846,-5467,1745143823380478763
456544,1039,-1027,-5159,6780,4420,-5275,1745143823380478763
456736,1052,-1045,-5217,6702,4075,-5010,1745143823438022300
456928,1044,-1043,-5260,6642,3783,-4982,1745143823438022300
457120,1028,-1015,-5283,6625,3590,-5005,1745143823438022300
457312,1014,-975,-5289,6677,3410,-5006,1745143823438022300
457504,1010,-941,-5281,6781,3242,-5085,1745143823438022300
457696,1018,-916,-5263,6816,3094,-5239,1745143823438022300
457888,1041,-900,-5237,6804,2927,-5365,1745143823438022300
458080,1080,-895,-5203,6807,2642,-5415,1745143823438022300
458272,1137,-904,-5169,6799,2247,-5448,1745143823438022300
458464,1202,-922,-5137,6755,1751,-5450,1745143823438022300
458656,1272,-950,-5103,6656,1168,-5392,1745143823438022300
458848,1338,-984,-5065,6482,566,-5331,1745143823438022300
459040,1375,-1018,-5023,6280,-56,-5136,1745143823497424309
459232,1384,-1056,-4977,6059,-633,-4932,1745143823497424309
459424,1365,-1087,-4930,5798,-1200,-4915,1745143823497424309
459616,1324,-1099,-4884,5472,-1661,-5046,1745143823497424309
459808,1261,-1088,-4832,5187,-2013,-5080,1745143823497424309
460000,1174,-1056,-4780,5012,-2250,-4938,1745143823497424309
460192,1071,-997,-4728,4949,-2439,-4970,1745143823497424309
460384,952,-913,-4682,5004,-2582,-5190,1745143823497424309
460576,835,-821,-4634,5181,-2741,-5430,1745143823497424309
460768,742,-752,-4577,5397,-2876,-5721,1745143823497424309
460960,676,-710,-4517,5544,-3003,-5994,1745143823497424309
461152,635,-690,-4453,5639,-3149,-6252,1745143823497424309
461344,620,-691,-4383,5696,-3279,-6340,1745143823554142697
461536,634,-730,-4304,5694,-3496,-6322,1745143823554142697
461728,647,-774,-4242,5662,-3842,-6414,1745143823554142697
461920,629,-815,-4196,5512,-4105,-6185,1745143823554142697
462112,581,-867,-4107,5261,-4254,-6063,1745143823554142697
462304,475,-897,-3968,5164,-4791,-5793,1745143823554142697
462496,344,-882,-3876,4934,-5294,-5423,1745143823554142697
462688,213,-836,-3816,4574,-5371,-5169,1745143823554142697
462880,100,-786,-3699,3956,-5465,-4388,1745143823554142697
463072,-2,-841,-3560,3989,-5472,-5061,1745143823554142697
463264,-80,-819,-3402,3936,-5823,-5529,1745143823554142697
463456,-137,-788,-3373,3848,-5217,-6294,1745143823554142697
463648,-180,-737,-3318,3971,-5213,-6791,1745143823618265445
463840,-202,-679,-3252,4196,-5315,-7198,1745143823618265445
464032,-219,-622,-3198,4643,-5429,-7594,1745143823618265445
464224,-245,-572,-3125,4930,-5691,-7545,1745143823618265445
464416,-278,-579,-3053,5047,-5951,-7506,1745143823618265445
464608,-325,-605,-2986,5003,-6174,-7374,1745143823618265445
464800,-390,-630,-2918,4815,-6356,-7238,1745143823618265445
464992,-480,-664,-2842,4517,-6510,-7146,1745143823618265445
465184,-587,-690,-2764,4090,-6608,-7066,1745143823618265445
465376,-716,-701,-2691,3598,-6647,-7028,1745143823618265445
465568,-859,-686,-2613,3084,-6597,-7091,1745143823618265445
465760,-999,-631,-2525,2648,-6486,-7319,1745143823618265445
465952,-1130,-546,-2426,2355,-6300,-7520,1745143823670085024
466144,-1247,-426,-2319,2226,-6061,-7821,1745143823670085024
466336,-1336,-296,-2215,2252,-5838,-8086,1745143823670085024
466528,-1386,-170,-2111,2526,-5597,-8465,1745143823670085024
466720,-1394,-53,-2008,2882,-5409,-8668,1745143823670085024
466912,-1383,20,-1918,3401,-5316,-8901,1745143823670085024
467104,-1347,58,-1844,3961,-5221,-9007,1745143823670085024
467296,-1316,58,-1778,4395,-5107,-8971,1745143823670085024
467488,-1284,32,-1706,4666,-4967,-8936,1745143823670085024
467680,-1247,-3,-1622,4644,-4778,-8909,1745143823670085024
467872,-1208,-50,-1534,4475,-4587,-8911,1745143823670085024
468064,-1176,-108,-1459,4177,-4424,-8875,1745143823670085024
468256,-1164,-169,-1398,3779,-4261,-8739,1745143823731352589
468448,-1163,-212,-1335,3279,-4058,-8655,1745143823731352589
468640,-1169,-221,-1262,2817,-3819,-8797,1745143823731352589
468832,-1160,-201,-1183,2469,-3573,-9036,1745143823731352589
469024,-1151,-167,-1106,2371,-3364,-9469,1745143823731352589
469216,-1140,-115,-1028,2426,-3247,-9886,1745143823731352589
469408,-1123,-60,-953,2655,-3182,-10174,1745143823731352589
469600,-1102,-11,-879,2938,-3115,-10416,1745143823731352589
469792,-1072,34,-805,3201,-2998,-10554,1745143823731352589
469984,-1028,66,-732,3455,-2766,-10624,1745143823731352589
470176,-972,76,-665,3650,-2516,-10570,1745143823731352589
470368,-912,66,-615,3741,-2272,-10442,1745143823731352589
470560,-849,37,-583,3671,-2050,-10249,1745143823789583203
470752,-791,-1,-558,3476,-1910,-9991,1745143823789583203
470944,-743,-41,-526,3256,-1848,-9711,1745143823789583203
471136,-724,-78,-483,2971,-1918,-9491,1745143823789583203
471328,-737,-117,-437,2663,-2074,-9199,1745143823789583203
471520,-771,-152,-390,2322,-2170,-8914,1745143823789583203
471712,-823,-170,-347,1924,-2194,-8716,1745143823789583203
471904,-883,-162,-307,1514,-2078,-8625,1745143823789583203
472096,-941,-122,-274,1111,-1749,-8727,1745143823789583203
472288,-971,-51,-249,904,-1385,-8610,1745143823789583203
472480,-999,3,-243,886,-1300,-8665,1745143823789583203
472672,-945,48,-241,1007,-1149,-8933,1745143823789583203
472864,-835,84,-217,1260,-946,-8983,1745143823849115263
473056,-712,105,-188,1520,-669,-8833,1745143823849115263
473248,-582,125,-162,1750,-466,-8738,1745143823849115263
473440,-444,126,-130,2158,-599,-8738,1745143823849115263
473632,-362,60,-103,2707,-1086,-8869,1745143823849115263
473824,-430,-50,-112,3145,-1555,-9937,1745143823849115263
474016,-522,-159,-91,3251,-1763,-10179,1745143823849115263
474208,-497,-269,-8,3329,-1606,-10778,1745143823849115263
474400,-304,-439,100,3614,-1104,-11005,1745143823849115263
474592,-146,-644,176,3677,-927,-11153,1745143823849115263
474784,-69,-822,193,3149,-930,-11282,1745143823849115263
474976,-67,-919,175,2187,-1001,-11137,1745143823849115263
475168,-117,-906,151,1141,-1087,-10806,1745143823904639548
475360,-163,-824,144,262,-1058,-10390,1745143823904639548
475552,-206,-714,153,-392,-801,-9972,1745143823904639548
475744,-261,-604,175,-758,-473,-9512,1745143823904639548
475936,-318,-507,194,-778,-116,-9181,1745143823904639548
476128,-363,-393,169,-563,421,-9047,1745143823904639548
476320,-405,-242,124,-315,1042,-8713,1745143823904639548
476512,-385,-154,61,-413,1273,-6973,1745143823904639548
476704,-306,-326,-28,241,1574,-7871,1745143823904639548
476896,-227,-378,-52,419,1906,-7849,1745143823904639548
477088,-152,-412,-40,523,1942,-7874,1745143823904639548
477280,-79,-447,-29,541,1914,-7974,1745143823904639548
477472,-11,-468,-15,472,1796,-8164,1745143823965189255
477664,44,-488,3,356,1638,-8332,1745143823965189255
477856,85,-500,27,271,1375,-8548,1745143823965189255
478048,107,-507,38,189,1147,-8805,1745143823965189255
478240,106,-500,43,122,994,-9122,1745143823965189255
478432,86,-480,48,111,889,-9473,1745143823965189255
478624,62,-448,52,125,852,-9743,1745143823965189255
478816,35,-414,50,222,846,-9894,1745143823965189255
479008,12,-386,43,400,810,-10044,1745143823965189255
479200,-9,-373,42,610,764,-10044,1745143823965189255
479392,-33,-373,46,756,708,-9944,1745143823965189255
479584,-59,-372,57,736,757,-9769,1745143823965189255
479776,-86,-362,74,577,832,-9466,1745143824023108153
479968,-112,-342,91,418,872,-9150,1745143824023108153
480160,-132,-323,100,286,826,-8793,1745143824023108153
480352,-142,-308,101,225,769,-8472,1745143824023108153
480544,-149,-295,97,190,689,-8229,1745143824023108153
480736,-152,-281,91,166,649,-8079,1745143824023108153
480928,-146,-264,85,117,701,-7967,1745143824023108153
481120,-161,-249,79,98,631,-7934,1745143824023108153
481312,-152,-238,71,96,609,-7930,1745143824023108153
481504,-140,-230,65,109,553,-7955,1745143824023108153
481696,-132,-222,63,109,536,-8038,1745143824023108153
481888,-129,-216,65,68,539,-8124,1745143824023108153
482080,-131,-207,70,12,599,-8216,1745143824082082823
482272,-135,-194,75,-64,666,-8277,1745143824082082823
482464,-138,-182,81,-107,737,-8307,1745143824082082823
482656,-140,-172,84,-133,859,-8358,1745143824082082823
482848,-145,-162,83,-168,928,-8343,1745143824082082823
483040,-152,-154,80,-182,1011,-8296,1745143824082082823
483232,-155,-147,73,-225,1142,-8251,1745143824082082823
483424,-168,-143,64,-271,1191,-8227,1745143824082082823
483616,-176,-143,57,-309,1155,-8260,1745143824082082823
483808,-158,-139,50,-333,1083,-8205,1745143824082082823
484000,-128,-135,43,-335,995,-8209,1745143824082082823
484192,-104,-128,39,-304,871,-8231,1745143824082082823
484384,-82,-125,34,-293,767,-8199,1745143824140867598
484576,-77,-120,30,-307,674,-8219,1745143824140867598
484768,-74,-113,29,-282,583,-8247,1745143824140867598
484960,-70,-109,26,-297,534,-8157,1745143824140867598
485152,-82,-105,22,-305,518,-8183,1745143824140867598
485344,-88,-95,22,-288,539,-8182,1745143824140867598
485536,-92,-84,19,-282,602,-8077,1745143824140867598
485728,-100,-75,14,-288,746,-8016,1745143824140867598
485920,-112,-68,5,-300,957,-7973,1745143824140867598
486112,-126,-64,-3,-320,1116,-7975,1745143824140867598
486304,-130,-63,-10,-319,1202,-8013,1745143824140867598
486496,-118,-64,-20,-318,1268,-8093,1745143824140867598
486688,-111,-69,-29,-298,1217,-8138,1745143824199723831
486880,-92,-75,-38,-277,1077,-8149,1745143824199723831
487072,-62,-74,-43,-246,948,-8194,1745143824199723831
487264,-32,-68,-47,-247,890,-8207,1745143824199723831
487456,-27,-71,-50,-261,797,-8203,1745143824199723831
487648,-30,-74,-50,-271,690,-8178,1745143824199723831
487840,-27,-69,-47,-274,628,-8141,1745143824199723831
488032,-34,-61,-44,-284,659,-8102,1745143824199723831
488224,-55,-51,-44,-264,746,-8083,1745143824199723831
488416,-81,-46,-45,-284,913,-8042,1745143824199723831
488608,-100,-43,-45,-290,1082,-8015,1745143824199723831
488800,-107,-41,-49,-289,1197,-8022,1745143824199723831
488992,-107,-38,-57,-279,1221,-7985,1745143824260209945
489184,-95,-41,-67,-289,1251,-7958,1745143824260209945
489376,-76,-48,-74,-312,1259,-7919,1745143824260209945
489568,-60,-53,-75,-341,1237,-7920,1745143824260209945
489760,-48,-58,-77,-375,1161,-7944,1745143824260209945
489952,-37,-63,-81,-393,1047,-8023,1745143824260209945
490144,-24,-63,-82,-385,950,-8093,1745143824260209945
490336,-12,-59,-83,-402,908,-8115,1745143824260209945
490528,-14,-54,-85,-430,904,-8202,1745143824260209945
490720,-23,-54,-83,-414,828,-8151,1745143824260209945
490912,-15,-50,-79,-372,788,-8145,1745143824260209945
491104,-9,-40,-75,-324,798,-8140,1745143824260209945
491296,-18,-32,-72,-287,817,-8173,1745143824318050355
491488,-32,-29,-74,-280,875,-8177,1745143824318050355
491680,-41,-25,-75,-297,951,-8139,1745143824318050355
491872,-48,-20,-75,-305,1045,-8098,1745143824318050355
492064,-57,-16,-76,-331,1153,-8076,1745143824318050355
492256,-63,-14,-78,-320,1183,-8083,1745143824318050355
492448,-61,-14,-82,-322,1209,-8076,1745143824318050355
492640,-53,-13,-88,-313,1159,-8083,1745143824318050355
492832,-44,-12,-93,-310,1111,-8073,1745143824318050355
493024,-38,-15,-93,-317,1042,-8049,1745143824318050355
493216,-33,-17,-90,-324,1033,-8014,1745143824318050355
493408,-34,-17,-85,-355,1052,-8001,1745143824318050355
493600,-38,-15,-81,-364,1072,-8021,1745143824376791433
493792,-40,-15,-80,-353,1071,-8050,1745143824376791433
493984,-36,-17,-81,-334,1053,-8046,1745143824376791433
494176,-27,-15,-82,-308,1041,-8056,1745143824376791433
494368,-23,-13,-81,-313,1039,-8064,1745143824376791433
494560,-24,-13,-79,-327,1040,-8084,1745143824376791433
494752,-26,-14,-73,-344,1028,-8092,1745143824376791433
494944,-30,-14,-68,-345,1040,-8082,1745143824376791433
495136,-32,-14,-63,-353,1053,-8071,1745143824376791433
495328,-35,-14,-63,-357,1092,-8053,1745143824376791433
495520,-39,-13,-61,-352,1098,-8049,1745143824376791433
495712,-37,-11,-60,-367,1097,-8051,1745143824376791433
495904,-32,-10,-60,-343,1086,-8062,1745143824434790434
496096,-28,-9,-63,-347,1061,-8068,1745143824434790434
496288,-29,-8,-67,-346,1026,-8079,1745143824434790434
496480,-33,-6,-68,-334,985,-8064,1745143824434790434
496672,-35,-6,-69,-337,955,-8089,1745143824434790434
496864,-35,-8,-73,-360,1010,-8068,1745143824434790434
497056,-35,-7,-66,-400,1074,-8057,1745143824434790434
497248,-40,-5,-52,-396,1133,-8056,1745143824434790434
497440,-43,-6,-41,-373,1148,-8054,1745143824434790434
497632,-39,-7,-36,-368,1156,-8048,1745143824434790434
497824,-31,-8,-34,-365,1157,-8033,1745143824434790434
498016,-26,-8,-31,-367,1181,-8023,1745143824434790434
498208,-23,-9,-30,-378,1164,-8044,1745143824493596459
498400,-19,-10,-28,-368,1137,-8051,1745143824493596459
498592,-16,-11,-26,-366,1104,-8031,1745143824493596459
498784,-15,-10,-22,-358,1078,-8046,1745143824493596459
498976,-7,-10,-17,-347,1054,-8038,1745143824493596459
499168,-5,-11,-14,-350,1040,-8010,1745143824493596459
499360,-10,-14,-14,-371,1027,-8025,1745143824493596459
499552,-14,-16,-13,-392,1013,-8031,1745143824493596459
499744,-16,-16,-11,-411,1011,-8026,1745143824493596459
499936,-20,-13,-10,-416,1034,-8013,1745143824493596459
500128,-33,-10,-11,-421,1077,-7999,1745143824493596459
500320,-41,-10,-7,-402,1115,-8014,1745143824493596459
500512,-31,-13,1,-379,1152,-8007,1745143824552439151
500704,-22,-16,4,-382,1151,-8029,1745143824552439151
500896,-15,-20,1,-395,1105,-8056,1745143824552439151
501088,-10,-21,-3,-405,1056,-8052,1745143824552439151
501280,-12,-19,-3,-415,1025,-8077,1745143824552439151
501472,-20,-18,-1,-433,1023,-8093,1745143824552439151
501664,-28,-16,3,-414,1041,-8097,1745143824552439151
501856,-33,-14,5,-428,1039,-8108,1745143824552439151
502048,-34,-11,5,-406,1064,-8084,1745143824552439151
502240,-34,-11,5,-403,1084,-8055,1745143824552439151
502432,-36,-10,4,-385,1098,-8027,1745143824552439151
502624,-37,-10,7,-386,1104,-8010,1745143824552439151
502816,-37,-12,9,-400,1127,-7997,1745143824609812064
503008,-41,-11,9,-406,1122,-7978,1745143824609812064
503200,-41,-11,9,-419,1127,-7962,1745143824609812064
503392,-35,-13,8,-425,1151,-7971,1745143824609812064
503584,-36,-13,5,-444,1149,-7972,1745143824609812064
503776,-38,-13,2,-466,1129,-7990,1745143824609812064
503968,-33,-11,0,-463,1158,-7968,1745143824609812064
504160,-40,-9,0,-483,1184,-8020,1745143824609812064
504352,-36,-6,12,-424,1165,-8138,1745143824609812064
504544,-8,-7,21,-383,1124,-8078,1745143824609812064
504736,5,-7,16,-396,1096,-8092,1745143824609812064
504928,7,-6,7,-415,1027,-8117,1745143824609812064
505120,4,-6,4,-460,983,-8134,1745143824669248917
505312,-5,0,6,-478,981,-8133,1745143824669248917
505504,-15,7,10,-489,1038,-8098,1745143824669248917
505696,-29,14,9,-503,1163,-8139,1745143824669248917
505888,-45,13,9,-491,1189,-8061,1745143824669248917
506080,-27,9,11,-429,1128,-8045,1745143824669248917
506272,1,16,9,-355,1101,-7993,1745143824669248917
506464,1,20,1,-292,1047,-7993,1745143824669248917
506656,-9,18,-5,-318,1003,-8047,1745143824669248917
506848,-15,14,-2,-341,980,-8046,1745143824669248917
507040,-19,14,2,-385,985,-8070,1745143824669248917
507232,-20,17,2,-415,1024,-8074,1745143824669248917
507424,-22,20,-1,-425,1060,-8062,1745143824727228908
507616,-23,22,-6,-408,1106,-8036,1745143824727228908
507808,-24,24,-7,-418,1156,-7978,1745143824727228908
508000,-24,23,-6,-421,1208,-7982,1745143824727228908
508192,-22,20,-4,-432,1246,-7978,1745143824727228908
508384,-11,17,-2,-423,1238,-8004,1745143824727228908
508576,2,17,-3,-401,1190,-8013,1745143824727228908
508768,12,17,-6,-389,1124,-8047,1745143824727228908
508960,14,17,-7,-373,1067,-8054,1745143824727228908
509152,9,17,-5,-395,1039,-8069,1745143824727228908
509344,1,18,-3,-394,1022,-8058,1745143824727228908
509536,-5,18,-1,-404,1035,-8049,1745143824727228908
509728,-8,19,-1,-417,1061,-8028,1745143824786463628
509920,-9,21,-3,-426,1081,-8026,1745143824786463628
510112,-10,24,-4,-405,1105,-8047,1745143824786463628
510304,-10,26,-2,-399,1133,-8060,1745143824786463628
510496,-9,27,-1,-381,1137,-8080,1745143824786463628
510688,-8,27,1,-352,1146,-8089,1745143824786463628
510880,-8,28,2,-360,1148,-8076,1745143824786463628
511072,-7,29,5,-358,1161,-8060,1745143824786463628
511264,-8,29,6,-375,1168,-8036,1745143824786463628
511456,-10,28,6,-388,1132,-8032,1745143824786463628
511648,-9,27,7,-369,1108,-8029,1745143824786463628
511840,-8,26,7,-349,1075,-8004,1745143824786463628
512032,-9,26,6,-365,1051,-7992,1745143824844149351
512224,-11,26,5,-374,1067,-7994,1745143824844149351
512416,-15,26,6,-396,1081,-8005,1745143824844149351
512608,-16,28,6,-399,1089,-8035,1745143824844149351
512800,-15,30,8,-419,1113,-8054,1745143824844149351
512992,-14,31,7,-386,1138,-8058,1745143824844149351
513184,-17,31,8,-377,1174,-8031,1745143824844149351
513376,-21,32,10,-403,1212,-8030,1745143824844149351
513568,-20,34,13,-426,1255,-8032,1745143824844149351
513760,-12,35,15,-426,1277,-8013,1745143824844149351
513952,-3,38,13,-410,1271,-8051,1745143824844149351
514144,9,41,10,-378,1201,-8078,1745143824844149351
514336,20,43,6,-347,1128,-8100,1745143824902862148
514528,25,47,6,-325,1043,-8115,1745143824902862148
514720,24,50,7,-330,989,-8113,1745143824902862148
514912,16,55,9,-348,967,-8106,1745143824902862148
515104,8,59,12,-373,965,-8108,1745143824902862148
515296,2,66,12,-405,992,-8104,1745143824902862148
515488,-5,73,12,-399,1015,-8097,1745143824902862148
515680,-11,79,11,-392,1076,-8079,1745143824902862148
515872,-15,83,11,-383,1125,-8070,1745143824902862148
516064,-15,87,12,-389,1171,-8077,1745143824902862148
516256,-11,91,15,-391,1205,-8054,1745143824902862148
516448,-5,95,16,-374,1232,-8057,1745143824902862148
516640,-1,98,15,-381,1231,-8067,1745143824960997138
516832,3,101,16,-388,1220,-8086,1745143824960997138
517024,9,105,19,-355,1165,-8101,1745143824960997138
517216,14,110,19,-332,1155,-8117,1745143824960997138
517408,12,116,19,-311,1106,-8119,1745143824960997138
517600,13,120,22,-281,1109,-8123,1745143824960997138
517792,17,123,26,-260,1081,-8090,1745143824960997138
517984,18,124,28,-237,1084,-8065,1745143824960997138
518176,14,123,27,-236,1065,-8038,1745143824960997138
518368,10,120,25,-247,1067,-8027,1745143824960997138
518560,9,118,24,-264,1054,-8010,1745143824960997138
518752,11,118,22,-259,1060,-7999,1745143824960997138
518944,12,118,20,-254,1056,-7977,1745143825020581281
519136,8,116,16,-247,1066,-7944,1745143825020581281
519328,-9,117,7,-225,1083,-7929,1745143825020581281
519520,-17,114,12,-221,1087,-8034,1745143825020581281
519712,9,108,26,-178,1097,-8007,1745143825020581281
519904,29,104,29,-168,1085,-7997,1745143825020581281
520096,31,98,21,-179,1052,-7986,1745143825020581281
520288,23,92,15,-207,1030,-7960,1745143825020581281
520480,15,87,17,-232,1046,-7978,1745143825020581281
520672,10,84,22,-268,1064,-7967,1745143825020581281
520864,6,85,27,-236,1102,-7966,1745143825020581281
521056,4,83,28,-220,1156,-7981,1745143825020581281
521248,5,81,27,-199,1181,-8003,1745143825078819238
521440,8,75,25,-189,1211,-7990,1745143825078819238
521632,14,70,26,-179,1215,-8003,1745143825078819238
521824,22,63,27,-177,1162,-8019,1745143825078819238
522016,28,58,28,-158,1107,-8023,1745143825078819238
522208,31,53,26,-185,1045,-8018,1745143825078819238
522400,29,49,26,-188,993,-8019,1745143825078819238
522592,23,47,27,-198,977,-8010,1745143825078819238
522784,16,44,29,-203,967,-8020,1745143825078819238
522976,9,42,31,-182,974,-8015,1745143825078819238
523168,3,41,31,-159,1012,-8020,1745143825078819238
523360,-2,38,30,-143,1030,-8008,1745143825078819238
523552,-4,34,30,-127,1063,-8003,1745143825137176778
523744,-5,29,32,-118,1094,-8006,1745143825137176778
523936,-6,24,33,-142,1128,-7995,1745143825137176778
524128,-7,20,33,-154,1129,-7981,1745143825137176778
524320,-6,15,31,-152,1127,-7995,1745143825137176778
524512,-6,12,30,-157,1108,-7993,1745143825137176778
524704,-9,9,29,-160,1093,-7970,1745143825137176778
524896,-23,9,21,-156,1146,-7867,1745143825137176778
525088,-58,10,12,-218,1231,-7877,1745143825137176778
525280,-57,3,29,-196,1271,-8046,1745143825137176778
525472,1,-9,54,-140,1269,-7993,1745143825137176778
525664,34,-14,52,-142,1160,-8036,1745143825137176778
525856,44,-22,32,-162,999,-8067,1745143825195363486
526048,37,-30,17,-211,865,-8072,1745143825195363486
526240,21,-31,20,-260,791,-8075,1745143825195363486
526432,-1,-27,30,-273,802,-8061,1745143825195363486
526624,-23,-22,39,-255,861,-8071,1745143825195363486
526816,-36,-18,39,-227,961,-8060,1745143825195363486
527008,-36,-17,36,-173,1063,-8068,1745143825195363486
527200,-32,-19,31,-133,1097,-8056,1745143825195363486
527392,-28,-23,27,-110,1138,-8033,1745143825195363486
527584,-29,-27,28,-133,1161,-7989,1745143825195363486
527776,-33,-31,30,-163,1202,-7986,1745143825195363486
527968,-35,-35,32,-196,1198,-7991,1745143825195363486
528160,-30,-37,31,-208,1198,-7978,1745143825253339571
528352,-18,-38,27,-205,1162,-7991,1745143825253339571
528544,-8,-37,22,-197,1112,-7996,1745143825253339571
528736,-2,-39,17,-179,1070,-7988,1745143825253339571
528928,-3,-40,13,-187,1041,-7994,1745143825253339571
529120,-6,-42,10,-218,1009,-8006,1745143825253339571
529312,-14,-41,6,-239,1015,-7998,1745143825253339571
529504,-36,-38,-5,-251,1018,-7986,1745143825253339571
529696,-52,-35,-9,-259,1031,-8073,1745143825253339571
529888,-34,-34,1,-222,1043,-8138,1745143825253339571
530080,0,-32,7,-181,1058,-8121,1745143825253339571
530272,12,-32,-4,-168,1027,-8131,1745143825253339571
530464,6,-34,-19,-199,954,-8131,1745143825312189346
530656,-5,-34,-24,-218,926,-8114,1745143825312189346
530848,-18,-32,-18,-239,935,-8074,1745143825312189346
531040,-32,-27,-12,-248,1004,-8055,1745143825312189346
531232,-41,-22,-12,-258,1081,-8042,1745143825312189346
531424,-42,-21,-17,-251,1157,-8036,1745143825312189346
531616,-34,-21,-26,-230,1192,-8017,1745143825312189346
531808,-24,-23,-32,-203,1181,-8010,1745143825312189346
532000,-16,-25,-36,-209,1157,-8013,1745143825312189346
532192,-12,-28,-37,-222,1113,-8013,1745143825312189346
532384,-9,-31,-37,-251,1072,-8028,1745143825312189346
532576,-6,-31,-38,-269,1036,-8028,1745143825312189346
532768,-9,-28,-40,-312,965,-7993,1745143825370585219
532960,-39,-18,-47,-431,574,-7993,1745143825370585219
533152,-92,-13,-83,-266,-23,-8075,1745143825370585219
533344,-128,-8,-169,-252,616,-8005,1745143825370585219
533536,-129,10,-164,-343,1089,-8158,1745143825370585219
533728,-164,20,-143,-262,1044,-8066,1745143825370585219
533920,-184,18,-154,-233,1067,-8105,1745143825370585219
534112,-173,12,-161,-319,1580,-8116,1745143825370585219
534304,-168,24,-93,-169,1489,-8102,1745143825370585219
534496,-144,20,-69,-113,1554,-8050,1745143825370585219
534688,-112,7,-61,-106,1508,-8025,1745143825370585219
534880,-82,-1,-53,-194,1361,-7992,1745143825370585219
535072,-67,0,-43,-302,1290,-7964,1745143825429251089
535264,-58,4,-39,-332,1275,-7974,1745143825429251089
535456,-45,4,-40,-311,1303,-7981,1745143825429251089
535648,-25,2,-45,-211,1307,-7998,1745143825429251089
535840,-7,-11,-51,-251,1221,-7804,1745143825429251089
536032,17,-66,-58,-117,1222,-8156,1745143825429251089
536224,16,-33,-48,-259,1217,-8080,1745143825429251089
536416,14,-10,-39,-283,1264,-7899,1745143825429251089
536608,35,-37,-23,-241,1330,-7942,1745143825429251089
536800,44,-60,-4,-271,1293,-7987,1745143825429251089
536992,45,-76,9,-91,1118,-8236,1745143825429251089
537184,32,-43,-14,-189,1179,-8110,1745143825429251089
537376,26,-29,-24,-215,1164,-8019,1745143825485988540
537568,22,-32,-31,-239,1120,-8047,1745143825485988540
537760,15,-33,-31,-255,1106,-7999,1745143825485988540
537952,13,-36,-24,-265,1079,-7962,1745143825485988540
538144,12,-40,-16,-243,1065,-7971,1745143825485988540
538336,18,-51,-6,-371,1075,-7880,1745143825485988540
538528,15,-65,21,-423,1173,-8003,1745143825485988540
538720,-12,-66,55,-407,1043,-7980,1745143825485988540
538912,-4,-69,58,-323,1062,-8089,1745143825485988540
539104,-5,-52,44,-299,1153,-8113,1745143825485988540
539296,-15,-37,35,-349,1230,-8005,1745143825485988540
539488,-19,-39,45,-259,1105,-8049,1745143825485988540
539680,-27,-23,18,-224,1171,-8153,1745143825546759547
539872,-40,-3,-7,-293,1186,-8047,1745143825546759547
540064,-42,-3,-14,-271,1159,-8074,1745143825546759547
540256,-45,1,-16,-297,1140,-8045,1745143825546759547
540448,-40,4,-14,-338,1162,-8045,1745143825546759547
540640,-44,7,-12,-326,1186,-8061,1745143825546759547
540832,-46,7,-11,-300,1199,-8031,1745143825546759547
541024,-46,6,-13,-300,1190,-8022,1745143825546759547
541216,-40,4,-13,-293,1220,-8008,1745143825546759547
541408,-31,4,-10,-279,1258,-8047,1745143825546759547
541600,-23,1,-7,-220,1285,-8074,1745143825546759547
541792,-15,-3,-4,-214,1249,-8102,1745143825546759547
541984,-7,-6,-3,-209,1214,-8110,1745143825605397032
542176,-3,-9,-2,-203,1181,-8110,1745143825605397032
542368,-3,-11,0,-204,1160,-8113,1745143825605397032
542560,-5,-14,1,-216,1156,-8103,1745143825605397032
542752,-8,-17,1,-225,1150,-8079,1745143825605397032
542944,-10,-20,2,-253,1147,-8061,1745143825605397032
543136,-11,-22,3,-263,1134,-8052,1745143825605397032
543328,-11,-22,2,-276,1172,-8031,1745143825605397032
543520,-12,-24,1,-271,1194,-8014,1745143825605397032
543712,-15,-27,1,-265,1208,-8008,1745143825605397032
543904,-19,-31,1,-276,1177,-8010,1745143825605397032
544096,-21,-32,2,-294,1132,-8001,1745143825605397032
544288,-23,-29,4,-342,1114,-8030,1745143825663036922
544480,-28,-24,5,-380,1084,-8047,1745143825663036922
544672,-34,-17,4,-379,1062,-8057,1745143825663036922
544864,-44,-11,2,-379,1074,-8048,1745143825663036922
545056,-53,-5,2,-332,1089,-8042,1745143825663036922
545248,-63,-3,0,-274,1128,-8053,1745143825663036922
545440,-72,-6,-3,-251,1172,-8038,1745143825663036922
545632,-74,-8,-5,-262,1178,-8038,1745143825663036922
545824,-78,-10,-10,-286,1187,-8049,1745143825663036922
546016,-85,-5,-15,-317,1188,-7999,1745143825663036922
546208,-80,-9,-17,-317,1176,-7996,1745143825663036922
546400,-73,-12,-13,-331,1220,-7978,1745143825663036922
546592,-68,-10,-7,-344,1232,-7973,1745143825722439140
546784,-63,-10,0,-359,1225,-7954,1745143825722439140
546976,-54,-10,10,-372,1248,-7966,1745143825722439140
547168,-46,-8,20,-376,1276,-8011,1745143825722439140
547360,-46,-5,23,-354,1246,-8031,1745143825722439140
547552,-52,-4,19,-336,1221,-8072,1745143825722439140
547744,-54,-5,15,-314,1216,-8048,1745143825722439140
547936,-54,-6,14,-284,1277,-8052,1745143825722439140
548128,-57,-7,17,-299,1268,-8045,1745143825722439140
548320,-61,-7,18,-333,1265,-8008,1745143825722439140
548512,-63,-3,17,-379,1210,-7986,1745143825722439140
548704,-61,-1,14,-387,1196,-7991,1745143825722439140
548896,-51,-2,12,-365,1240,-7977,1745143825780147311
549088,-40,-2,13,-299,1297,-8001,1745143825780147311
549280,-33,-1,16,-280,1355,-7989,1745143825780147311
549472,-18,-5,18,-239,1410,-7970,1745143825780147311
549664,-4,-11,18,-245,1379,-7960,1745143825780147311
549856,1,-13,16,-304,1284,-7926,1745143825780147311
550048,3,-13,14,-343,1256,-7926,1745143825780147311
550240,8,-13,17,-348,1284,-7924,1745143825780147311
550432,9,-15,19,-307,1194,-7935,1745143825780147311
550624,-1,-18,19,-273,1067,-7933,1745143825780147311
550816,-11,-24,19,-276,1042,-7909,1745143825780147311
551008,-18,-29,22,-309,1127,-7906,1745143825780147311
551200,-23,-34,25,-299,1190,-7904,1745143825839402395
551392,-27,-42,24,-297,1221,-7892,1745143825839402395
551584,-29,-47,22,-333,1234,-7892,1745143825839402395
551776,-29,-50,20,-378,1231,-7931,1745143825839402395
551968,-30,-50,18,-396,1203,-7979,1745143825839402395
552160,-40,-42,12,-430,1160,-8032,1745143825839402395
552352,-63,-27,-1,-453,1074,-8092,1745143825839402395
552544,-74,-22,-12,-455,1108,-8102,1745143825839402395
552736,-75,-14,-12,-466,1161,-8148,1745143825839402395
552928,-81,-5,-7,-433,1123,-8180,1745143825839402395
553120,-96,3,-3,-415,1076,-8201,1745143825839402395
553312,-109,11,-2,-418,1156,-8191,1745143825839402395
633760,356,-113,11,-348,1649,-7732,1745143827942856669
633952,290,-78,6,-431,916,-8348,1745143827942856669
634144,124,-59,-8,-482,1189,-7941,1745143827942856669
634336,105,-57,6,-544,1130,-8038,1745143827942856669
634528,92,-32,12,-458,1170,-8087,1745143827942856669
634720,101,-49,9,-421,1112,-8093,1745143827942856669
634912,64,-44,7,-472,998,-8089,1745143827942856669
635104,56,-34,6,-445,1071,-8035,1745143827942856669
635296,55,-48,12,-378,1228,-8025,1745143827942856669
635488,45,-50,17,-288,1197,-8059,1745143827942856669
635680,40,-56,15,-341,1053,-8086,1745143827942856669
635872,20,-57,14,-518,1014,-8148,1745143827942856669
636064,9,-31,11,-734,1066,-8250,1745143827991208832
636256,11,-1,8,-860,1151,-8398,1745143827991208832
636448,5,31,3,-774,1091,-8525,1745143827991208832
636640,-6,62,-9,-657,1047,-8631,1745143827991208832
636832,-10,93,-11,-638,1228,-8664,1745143827991208832
637024,-7,118,-7,-499,1406,-8664,1745143827991208832
637216,5,130,-8,-366,1512,-8571,1745143827991208832
637408,15,139,-11,-308,1451,-8444,1745143827991208832
637600,16,139,-16,-135,1206,-7628,1745143827991208832
637792,66,173,-9,-775,1430,-9058,1745143827991208832
637984,82,148,13,-74,1813,-7365,1745143827991208832
638176,107,127,-3,-300,1428,-7841,1745143827991208832
638368,94,132,-26,-310,1172,-7859,1745143828051822184
638560,120,120,-35,-293,1308,-7661,1745143828051822184
638752,153,176,66,-458,2223,-8661,1745143828051822184
638944,148,370,244,-90,-449,-6991,1745143828051822184
639136,-49,245,0,-186,-799,-8219,1745143828051822184
639328,-424,261,-110,-1726,-1946,-6374,1745143828051822184
639520,-420,183,-70,-1042,-836,-7779,1745143828051822184
639712,-391,196,-47,-752,654,-7859,1745143828051822184
639904,-369,225,-76,-338,2088,-8002,1745143828051822184
640096,-307,199,-111,54,2798,-8011,1745143828051822184
640288,-189,148,-135,384,3001,-8019,1745143828051822184
640480,-73,96,-121,547,2741,-8012,1745143828051822184
640480,-73,96,-121,547,2741,-8012,1745143828110241078
640864,67,-5,-57,123,1772,-7964,1745143828110241078
641056,87,-23,-39,-274,1362,-7950,1745143828110241078
641248,88,-20,-35,-566,1012,-7944,1745143828110241078
641440,68,1,-39,-669,784,-7965,1745143828110241078
641632,37,24,-39,-613,662,-7984,1745143828110241078
641824,0,40,-32,-461,670,-7998,1745143828110241078
642016,-37,49,-23,-301,823,-8011,1745143828110241078
642208,-65,48,-16,-196,1072,-8002,1745143828110241078
642400,-79,40,-15,-146,1294,-7980,1745143828110241078
642592,-77,29,-18,-147,1462,-7951,1745143828110241078
642784,-64,20,-22,-148,1550,-7941,1745143828110241078
642976,-48,11,-23,-167,1567,-7925,1745143828173943412
643168,-32,3,-22,-194,1507,-7908,1745143828173943412
643360,-21,-7,-20,-239,1449,-7890,1745143828173943412
643552,-15,-13,-17,-282,1358,-7903,1745143828173943412
643744,-13,-20,-14,-319,1304,-7897,1745143828173943412
643936,-11,-25,-12,-354,1253,-7905,1745143828173943412
644128,-10,-29,-8,-384,1216,-7912,1745143828173943412
644320,-11,-30,-6,-392,1207,-7925,1745143828173943412
644512,-15,-33,-6,-393,1211,-7941,1745143828173943412
644704,-18,-33,-5,-404,1233,-7987,1745143828173943412
644896,-16,-35,-5,-376,1242,-7997,1745143828173943412
645088,-17,-36,-5,-363,1260,-7996,1745143828173943412
645280,-19,-36,-4,-346,1267,-7993,1745143828232292202
645664,-20,-39,-2,-331,1284,-8020,1745143828232292202
645856,-18,-39,0,-321,1280,-8045,1745143828232292202
646048,-17,-38,1,-299,1277,-8061,1745143828232292202
646240,-18,-37,0,-305,1242,-8080,1745143828232292202
646432,-23,-37,-1,-293,1221,-8076,1745143828232292202
646624,-27,-37,-1,-290,1233,-8046,1745143828232292202
646816,-34,-38,0,-288,1230,-8011,1745143828232292202
647008,-40,-40,1,-305,1255,-7989,1745143828232292202
647200,-44,-42,-1,-333,1288,-7968,1745143828232292202
647392,-42,-42,-4,-354,1310,-7950,1745143828232292202
647584,-40,-44,-8,-357,1318,-7955,1745143828232292202
647776,-35,-44,-13,-367,1322,-7954,1745143828291125415
647968,-29,-44,-15,-351,1330,-7965,1745143828291125415
648160,-23,-43,-15,-367,1320,-7971,1745143828291125415
648352,-19,-42,-17,-358,1296,-7978,1745143828291125415
648544,-13,-41,-20,-348,1279,-7990,1745143828291125415
648736,-8,-41,-23,-368,1264,-7999,1745143828291125415
648928,-5,-39,-27,-363,1253,-8017,1745143828291125415
649120,-3,-38,-30,-350,1217,-8054,1745143828291125415
649312,-3,-36,-34,-357,1206,-8069,1745143828291125415
649504,-4,-33,-36,-376,1209,-8086,1745143828291125415
649696,-7,-29,-38,-383,1220,-8094,1745143828291125415
649888,-11,-24,-40,-389,1233,-8087,1745143828291125415
650080,-16,-20,-42,-371,1241,-8115,1745143828352555166
650272,-20,-16,-44,-369,1244,-8088,1745143828352555166
650464,-23,-14,-44,-363,1263,-8068,1745143828352555166
650656,-25,-12,-46,-348,1276,-8050,1745143828352555166
650848,-26,-12,-47,-338,1306,-7994,1745143828352555166
651040,-29,-12,-49,-361,1331,-7980,1745143828352555166
651232,-31,-15,-49,-372,1326,-7969,1745143828352555166
651424,-29,-15,-50,-382,1341,-7952,1745143828352555166
651616,-25,-16,-52,-397,1324,-7957,1745143828352555166
651808,-19,-16,-54,-420,1341,-7964,1745143828352555166
652000,-13,-15,-54,-419,1350,-7978,1745143828352555166
652192,-9,-15,-54,-414,1348,-7982,1745143828352555166
652384,-5,-15,-54,-397,1343,-8005,1745143828406015459
652576,-1,-15,-53,-397,1324,-7995,1745143828406015459
652768,3,-15,-52,-387,1316,-7986,1745143828406015459
652960,7,-15,-50,-400,1289,-7989,1745143828406015459
653152,10,-15,-50,-405,1249,-7981,1745143828406015459
653344,12,-14,-51,-395,1231,-7991,1745143828406015459
653536,12,-12,-52,-410,1225,-8000,1745143828406015459
653728,11,-10,-54,-408,1204,-8032,1745143828406015459
653920,9,-7,-55,-397,1223,-8050,1745143828406015459
654112,6,-4,-53,-388,1223,-8073,1745143828406015459
654304,3,-4,-55,-397,1236,-8061,1745143828406015459
654496,1,-2,-55,-396,1269,-8068,1745143828406015459
654688,-3,1,-55,-415,1315,-8059,1745143828471339393
654880,-8,5,-54,-435,1370,-8054,1745143828471339393
655072,-11,7,-53,-455,1422,-8056,1745143828471339393
655264,-9,7,-51,-457,1417,-8042,1745143828471339393
655456,-2,8,-53,-429,1405,-8039,1745143828471339393
655648,6,9,-53,-384,1351,-8012,1745143828471339393
655840,9,10,-51,-387,1319,-8009,1745143828471339393
656032,10,9,-49,-376,1271,-8012,1745143828471339393
656224,8,8,-46,-362,1233,-8001,1745143828471339393
656416,5,9,-43,-360,1224,-8004,1745143828471339393
656608,3,8,-41,-378,1219,-7988,1745143828471339393
656800,1,8,-38,-367,1206,-8000,1745143828471339393
656992,-2,7,-34,-371,1208,-7993,1745143828529469331
657184,-4,7,-32,-369,1221,-8015,1745143828529469331
657376,-5,7,-29,-391,1269,-8000,1745143828529469331
657568,-6,8,-25,-405,1334,-7989,1745143828529469331
657760,-10,10,-21,-411,1387,-7983,1745143828529469331
657952,-12,9,-19,-413,1416,-7979,1745143828529469331
658144,-9,7,-16,-398,1423,-7980,1745143828529469331
658336,-1,5,-14,-356,1408,-7985,1745143828529469331
658528,5,4,-11,-357,1361,-7996,1745143828529469331
658720,10,1,-12,-370,1303,-8007,1745143828529469331
658912,13,-1,-12,-386,1243,-8013,1745143828529469331
659104,12,-3,-11,-389,1196,-8014,1745143828529469331
659296,8,-3,-10,-429,1198,-7982,1745143828581893644
659488,3,-3,-8,-422,1206,-7967,1745143828581893644
659680,-2,-4,-7,-416,1205,-7958,1745143828581893644
659872,-7,-3,-4,-393,1266,-7935,1745143828581893644
660064,-9,-4,-2,-410,1300,-7936,1745143828581893644
660256,-8,-6,2,-425,1328,-7945,1745143828581893644
660448,-5,-6,5,-415,1337,-7969,1745143828581893644
660640,-1,-7,6,-401,1330,-7996,1745143828581893644
660832,6,-9,6,-392,1313,-8013,1745143828581893644
661024,13,-9,7,-398,1289,-8022,1745143828581893644
661216,15,-8,10,-404,1245,-8035,1745143828581893644
661408,15,-7,13,-418,1226,-8038,1745143828581893644
661600,15,-6,15,-418,1225,-8039,1745143828642092886
661792,12,-4,16,-406,1227,-8053,1745143828642092886
661984,8,-2,18,-414,1226,-8056,1745143828642092886
662176,5,2,18,-397,1262,-8048,1745143828642092886
662368,3,4,20,-399,1310,-8025,1745143828642092886
662560,-1,5,22,-404,1354,-7995,1745143828642092886
662752,-5,6,25,-389,1370,-7980,1745143828642092886
662944,-5,4,27,-392,1387,-7992,1745143828642092886
663136,-1,3,27,-389,1356,-7989,1745143828642092886
663328,6,2,27,-406,1337,-8005,1745143828642092886
663520,10,2,27,-411,1281,-8000,1745143828642092886
663712,11,1,28,-384,1242,-8009,1745143828642092886
663904,10,3,29,-405,1230,-8026,1745143828705216111
664096,7,4,30,-399,1201,-8033,1745143828705216111
664288,5,5,31,-383,1183,-8033,1745143828705216111
664480,4,6,31,-399,1209,-8009,1745143828705216111
664672,3,6,31,-400,1237,-7993,1745143828705216111
664864,2,7,33,-395,1249,-8005,1745143828705216111
665056,3,6,35,-391,1277,-8008,1745143828705216111
665248,7,6,35,-375,1281,-8025,1745143828705216111
665440,11,6,36,-380,1271,-8025,1745143828705216111
665632,14,7,36,-382,1247,-8033,1745143828705216111
665824,14,5,37,-386,1223,-8036,1745143828705216111
666016,13,5,38,-384,1199,-8002,1745143828705216111
666208,8,5,40,-399,1222,-7977,1745143828768666157
666592,0,5,43,-419,1264,-7972,1745143828768666157
666784,-2,5,44,-413,1306,-7956,1745143828768666157
666976,-1,4,44,-399,1315,-7961,1745143828768666157
667168,3,3,44,-382,1325,-7978,1745143828768666157
667360,7,0,42,-381,1294,-7979,1745143828768666157
667552,11,-3,42,-378,1260,-7986,1745143828768666157
667744,13,-4,43,-409,1245,-8007,1745143828768666157
667936,12,-5,44,-415,1228,-8020,1745143828768666157
668128,12,-5,44,-415,1221,-8020,1745143828768666157
668320,10,-4,47,-416,1224,-8012,1745143828768666157
668512,8,-3,48,-410,1198,-8010,1745143828768666157
668704,4,-2,50,-395,1229,-8004,1745143828826699168
668896,-1,-2,53,-398,1249,-7997,1745143828826699168
669088,-3,-2,54,-394,1281,-7984,1745143828826699168
669280,-5,-1,57,-389,1304,-7995,1745143828826699168
669472,-4,0,58,-384,1323,-8004,1745143828826699168
669664,0,1,59,-385,1322,-8019,1745143828826699168
669856,4,2,60,-374,1311,-8031,1745143828826699168
670048,7,2,59,-386,1316,-8038,1745143828826699168
670240,10,1,59,-398,1296,-8038,1745143828826699168
670432,11,3,59,-409,1251,-8045,1745143828826699168
670624,11,5,60,-408,1196,-8061,1745143828826699168
670816,10,7,61,-406,1199,-8051,1745143828826699168
671008,9,10,60,-408,1191,-8055,1745143828884391662
671200,8,13,61,-404,1184,-8054,1745143828884391662
671392,5,16,61,-385,1181,-8027,1745143828884391662
671584,1,17,61,-396,1185,-7993,1745143828884391662
671776,-3,18,61,-376,1200,-7990,1745143828884391662
671968,-6,20,61,-398,1223,-7995,1745143828884391662
672160,-4,21,61,-382,1240,-7991,1745143828884391662
672352,-2,22,60,-380,1228,-8010,1745143828884391662
672544,-2,23,57,-395,1247,-8024,1745143828884391662
672736,-2,24,55,-397,1251,-8035,1745143828884391662
672928,-3,26,54,-417,1257,-8065,1745143828884391662
673120,-2,27,50,-422,1269,-8058,1745143828884391662
673312,-2,29,47,-423,1248,-8048,1745143828943471851
673504,-2,31,42,-427,1214,-8038,1745143828943471851
673696,-3,32,38,-422,1204,-8035,1745143828943471851
673888,-6,36,35,-430,1181,-8018,1745143828943471851
674080,-9,38,31,-413,1167,-8014,1745143828943471851
674272,-12,41,27,-418,1199,-8008,1745143828943471851
674464,-13,44,22,-418,1207,-8012,1745143828943471851
674656,-11,45,18,-400,1205,-8020,1745143828943471851
674848,-8,46,11,-389,1223,-8028,1745143828943471851
675040,-6,50,7,-393,1207,-8019,1745143828943471851
675232,-3,52,2,-373,1221,-8029,1745143828943471851
675424,-1,54,-2,-372,1197,-8062,1745143828943471851
675616,1,56,-6,-370,1198,-8047,1745143829002487771
675808,2,56,-10,-378,1174,-8055,1745143829002487771
676000,3,57,-15,-368,1147,-8042,1745143829002487771
676192,4,60,-18,-378,1146,-8026,1745143829002487771
676384,3,63,-21,-357,1177,-8019,1745143829002487771
676576,0,64,-24,-353,1165,-8023,1745143829002487771
676768,-1,65,-26,-338,1175,-8024,1745143829002487771
676960,-1,67,-29,-334,1209,-8017,1745143829002487771
677152,-2,68,-32,-314,1240,-8024,1745143829002487771
677344,-2,67,-33,-304,1266,-8015,1745143829002487771
677536,-2,66,-35,-320,1265,-8013,1745143829002487771
677728,-3,66,-36,-323,1293,-8008,1745143829002487771
677920,-6,64,-36,-329,1315,-8000,1745143829060616302
678112,-7,61,-36,-326,1316,-7990,1745143829060616302
678304,-4,59,-34,-320,1322,-7978,1745143829060616302
678496,0,57,-34,-310,1305,-7963,1745143829060616302
678688,5,55,-34,-305,1297,-7966,1745143829060616302
678880,7,52,-33,-302,1275,-7962,1745143829060616302
679072,9,48,-32,-273,1249,-7960,1745143829060616302
679264,9,46,-31,-271,1217,-7990,1745143829060616302
679456,8,41,-28,-288,1197,-7996,1745143829060616302
679648,8,38,-27,-284,1190,-7997,1745143829060616302
679840,7,35,-26,-262,1178,-7989,1745143829060616302
680032,4,33,-24,-270,1184,-7981,1745143829060616302
680224,0,30,-21,-273,1196,-7972,1745143829119491702
680416,-3,27,-19,-276,1220,-7973,1745143829119491702
680608,-4,25,-15,-275,1245,-7984,1745143829119491702
680800,-4,23,-13,-259,1273,-7991,1745143829119491702
680992,-5,21,-11,-262,1298,-7985,1745143829119491702
681184,-5,17,-10,-266,1315,-7992,1745143829119491702
681376,-4,12,-7,-275,1307,-7991,1745143829119491702
681568,-2,8,-3,-295,1299,-7989,1745143829119491702
681760,-1,5,1,-313,1315,-7964,1745143829119491702
681952,-1,3,3,-297,1277,-7954,1745143829119491702
682144,-3,0,8,-284,1284,-7960,1745143829119491702
682336,-4,-2,12,-303,1278,-7978,1745143829119491702
682528,-3,-5,16,-294,1255,-7989,1745143829177706482
682720,-1,-8,17,-296,1232,-7992,1745143829177706482
682912,-1,-9,19,-288,1230,-8027,1745143829177706482
683104,-2,-9,22,-289,1232,-8035,1745143829177706482
683296,-6,-9,26,-285,1227,-8036,1745143829177706482
683488,-9,-11,28,-293,1209,-8048,1745143829177706482
683680,-12,-11,30,-284,1207,-8044,1745143829177706482
683872,-14,-10,32,-290,1210,-8028,1745143829177706482
684064,-17,-11,33,-296,1225,-8031,1745143829177706482
684256,-19,-13,35,-299,1228,-8015,1745143829177706482
684448,-19,-13,35,-296,1240,-8002,1745143829177706482
684640,-20,-14,36,-295,1225,-8000,1745143829177706482
684832,-20,-15,36,-300,1241,-8002,1745143829234842940
685024,-19,-15,37,-311,1257,-7991,1745143829234842940
685216,-19,-15,36,-307,1263,-7996,1745143829234842940
685408,-18,-15,35,-316,1269,-8005,1745143829234842940
685600,-16,-15,34,-314,1250,-8011,1745143829234842940
685792,-12,-15,32,-306,1258,-8003,1745143829234842940
685984,-9,-15,29,-316,1245,-7997,1745143829234842940
686176,-8,-14,27,-318,1218,-8004,1745143829234842940
686368,-8,-14,26,-339,1219,-8012,1745143829234842940
686560,-6,-11,25,-339,1206,-8030,1745143829234842940
686752,-7,-9,23,-347,1202,-8034,1745143829234842940
686944,-7,-7,20,-348,1203,-8034,1745143829234842940
687136,-7,-5,18,-346,1201,-8032,1745143829295429105
687328,-7,-2,17,-336,1205,-8039,1745143829295429105
687520,-5,0,16,-327,1200,-8037,1745143829295429105
687712,-5,2,14,-330,1195,-8042,1745143829295429105
687904,-4,5,11,-328,1190,-8039,1745143829295429105
688096,-6,7,10,-327,1200,-8036,1745143829295429105
688288,-9,10,8,-332,1215,-8046,1745143829295429105
688480,-10,12,6,-321,1210,-8064,1745143829295429105
688672,-11,14,4,-335,1204,-8058,1745143829295429105
688864,-10,17,2,-337,1229,-8062,1745143829295429105
689056,-10,19,0,-343,1218,-8051,1745143829295429105
689248,-11,21,-1,-338,1216,-8030,1745143829295429105
689440,-13,22,-3,-337,1250,-8012,1745143829351561561
689632,-14,23,-5,-330,1247,-8005,1745143829351561561
689824,-14,25,-6,-323,1254,-8001,1745143829351561561
690016,-12,27,-8,-315,1262,-8015,1745143829351561561
690208,-8,28,-10,-320,1257,-8027,1745143829351561561
690400,-4,29,-12,-307,1244,-8040,1745143829351561561
690592,0,29,-15,-301,1230,-8022,1745143829351561561
690784,0,29,-16,-297,1221,-8025,1745143829351561561
690976,-1,29,-16,-312,1223,-8016,1745143829351561561
691168,-1,29,-16,-308,1214,-7994,1745143829351561561
691360,-1,28,-16,-307,1208,-7991,1745143829351561561
691552,-2,29,-17,-301,1213,-7992,1745143829351561561
691744,-2,29,-17,-291,1212,-7997,1745143829409905455
691936,-2,29,-18,-281,1214,-8014,1745143829409905455
692128,-3,29,-18,-284,1224,-8013,1745143829409905455
692320,-4,28,-19,-282,1220,-8030,1745143829409905455
692512,-7,28,-19,-291,1236,-8044,1745143829409905455
692704,-9,28,-19,-294,1237,-8033,1745143829409905455
692896,-12,29,-19,-293,1246,-8018,1745143829409905455
693088,-16,29,-19,-303,1253,-8001,1745143829409905455
693280,-17,30,-17,-303,1247,-7990,1745143829409905455
693472,-14,29,-16,-290,1261,-7988,1745143829409905455
693664,-12,32,-19,-273,1263,-7996,1745143829409905455
693856,-12,33,-21,-284,1258,-8023,1745143829409905455
694048,-10,35,-24,-287,1233,-8044,1745143829470370215
694240,-8,37,-27,-304,1194,-8071,1745143829470370215
694432,-7,40,-29,-295,1163,-8099,1745143829470370215
694624,-7,44,-32,-303,1129,-8114,1745143829470370215
694816,-10,48,-35,-312,1109,-8115,1745143829470370215
695008,-15,51,-39,-314,1087,-8101,1745143829470370215
695200,-22,54,-42,-298,1081,-8098,1745143829470370215
695392,-29,57,-45,-299,1084,-8082,1745143829470370215
695584,-36,62,-49,-304,1079,-8083,1745143829470370215
695776,-44,66,-54,-293,1075,-8085,1745143829470370215
695968,-52,70,-58,-281,1095,-8083,1745143829470370215
696160,-58,74,-62,-270,1110,-8090,1745143829470370215
696352,-62,80,-66,-261,1149,-8090,1745143829528707443
696544,-64,84,-70,-259,1181,-8094,1745143829528707443
696736,-68,86,-77,-242,1209,-8072,1745143829528707443
696928,-73,86,-82,-240,1200,-8077,1745143829528707443
697120,-77,85,-84,-218,1177,-8086,1745143829528707443
697312,-82,86,-84,-241,1199,-8075,1745143829528707443
697504,-85,90,-85,-267,1205,-8062,1745143829528707443
697696,-82,95,-87,-271,1246,-8034,1745143829528707443
697888,-79,99,-92,-257,1270,-8030,1745143829528707443
698080,-76,102,-96,-241,1287,-8024,1745143829528707443
698272,-74,102,-98,-206,1316,-8007,1745143829528707443
698464,-73,103,-98,-208,1309,-8023,1745143829528707443
698656,-70,105,-96,-213,1315,-8036,1745143829587149565
698848,-66,108,-94,-217,1342,-8055,1745143829587149565
699040,-62,109,-95,-217,1315,-8055,1745143829587149565
699232,-58,112,-98,-242,1331,-8067,1745143829587149565
699424,-56,116,-101,-224,1322,-8076,1745143829587149565
699616,-53,120,-100,-209,1312,-8077,1745143829587149565
699808,-49,127,-98,-207,1304,-8081,1745143829587149565
700000,-45,131,-98,-196,1315,-8090,1745143829587149565
700192,-40,136,-102,-202,1294,-8106,1745143829587149565
700384,-36,143,-109,-213,1290,-8135,1745143829587149565
700576,-35,153,-116,-213,1276,-8193,1745143829587149565
700768,-37,163,-123,-232,1263,-8244,1745143829587149565
700960,-42,175,-128,-204,1224,-8298,1745143829645178202
701152,-50,194,-133,-171,1181,-8362,1745143829645178202
701344,-68,215,-141,-127,1096,-8482,1745143829645178202
701536,-106,238,-157,-77,956,-8681,1745143829645178202
701728,-157,265,-179,-19,814,-8907,1745143829645178202
701920,-210,298,-195,44,683,-9147,1745143829645178202
702112,-263,336,-197,178,468,-9414,1745143829645178202
702304,-307,370,-197,330,231,-9718,1745143829645178202
702496,-363,400,-181,519,42,-9976,1745143829645178202
702688,-431,436,-158,817,-345,-10115,1745143829645178202
702880,-502,466,-163,1073,-705,-10112,1745143829645178202
703072,-575,491,-174,1281,-1027,-10242,1745143829645178202
703264,-654,531,-181,1580,-1576,-10604,1745143829700907432
703456,-739,588,-264,1576,-1526,-10929,1745143829700907432
703648,-832,657,-314,1575,-1571,-11018,1745143829700907432
703840,-894,716,-378,1527,-1420,-10957,1745143829700907432
704032,-921,738,-452,1773,-1377,-11110,1745143829700907432
704224,-976,717,-522,2532,-1755,-11680,1745143829700907432
704416,-1097,771,-592,2919,-1749,-12645,1745143829700907432
704608,-1186,855,-621,2779,-1482,-12362,1745143829700907432
704800,-1226,866,-635,2850,-969,-12439,1745143829700907432
704992,-1210,846,-646,2983,-646,-12897,1745143829700907432
705184,-1172,792,-632,3223,-534,-13273,1745143829700907432
705376,-1103,702,-579,3605,-628,-13803,1745143829700907432
705568,-981,580,-493,4048,-599,-14507,1745143829758977527
705760,-825,439,-374,4378,-462,-14727,1745143829758977527
705952,-653,320,-240,4545,-304,-14716,1745143829758977527
706144,-557,245,-60,4696,-829,-13754,1745143829758977527
706336,-514,182,188,4852,-2271,-13354,1745143829758977527
706528,-441,102,518,4792,-3308,-12394,1745143829758977527
706720,-532,79,909,4739,-4102,-11457,1745143829758977527
706912,-676,104,1234,4578,-4773,-11651,1745143829758977527
707104,-722,94,1432,4231,-4409,-12478,1745143829758977527
707296,-605,88,1659,4218,-4172,-12402,1745143829758977527
707488,-326,0,1884,4671,-4355,-12022,1745143829758977527
707680,7,-184,2074,5189,-4831,-11867,1745143829758977527
707872,291,-387,2234,5445,-5313,-11674,1745143829820436861
708064,497,-535,2370,5379,-5414,-11555,1745143829820436861
708256,661,-609,2494,5145,-5065,-11629,1745143829820436861
708448,807,-647,2599,4890,-4308,-11591,1745143829820436861
708640,927,-687,2686,4684,-3520,-11446,1745143829820436861
708832,1017,-729,2778,4569,-2919,-11248,1745143829820436861
709024,1089,-759,2905,4530,-2501,-11057,1745143829820436861
709216,1158,-769,3077,4582,-2219,-10892,1745143829820436861
709408,1230,-767,3286,4691,-2032,-10659,1745143829820436861
709600,1318,-764,3512,4759,-1931,-10461,1745143829820436861
709792,1422,-762,3729,4733,-1845,-10260,1745143829820436861
709984,1549,-752,3926,4602,-1721,-9955,1745143829820436861
710176,1692,-722,4091,4415,-1587,-9642,1745143829879143512
710368,1837,-674,4229,4291,-1484,-9440,1745143829879143512
710560,1979,-610,4348,4213,-1436,-9102,1745143829879143512
710752,2117,-544,4450,4254,-1401,-8714,1745143829879143512
710944,2232,-472,4545,4430,-1376,-8411,1745143829879143512
711136,2286,-367,4643,4716,-1413,-8206,1745143829879143512
