timestamp,gyr_x,gyr_y,gyr_z,acc_x,acc_y,acc_z,pkt_time_ns
144736,-216,-24,22,10,1694,-7333,1745147437991885429
144928,-331,-46,7,212,843,-8687,1745147437991885429
145120,-241,-23,-14,-66,1308,-7867,1745147437991885429
145312,-260,-12,-3,-157,1514,-8036,1745147437991885429
145504,-250,14,-7,-13,1715,-8158,1745147437991885429
145696,-232,20,-15,144,1964,-8074,1745147437991885429
145888,-221,15,-14,310,2063,-8059,1745147437991885429
146080,-191,14,-12,276,2101,-8030,1745147437991885429
146272,-171,17,-9,201,2049,-8029,1745147437991885429
146464,-161,20,-8,148,2092,-7987,1745147437991885429
146656,-133,25,-4,168,2201,-7943,1745147437991885429
146848,-106,26,3,216,2227,-7986,1745147437991885429
146848,-106,26,3,216,2227,-7986,1745147438048507047
147232,-62,53,0,24,1918,-8234,1745147438048507047
147424,-51,72,-6,56,1932,-8318,1745147438048507047
147616,-18,86,-8,215,2230,-8438,1745147438048507047
147808,39,90,-4,492,2591,-8520,1745147438048507047
148000,118,74,-3,732,2854,-8563,1745147438048507047
148192,213,44,-6,986,2740,-7531,1745147438048507047
148384,274,11,-29,370,3311,-10061,1745147438048507047
148576,536,42,15,1015,3258,-7289,1745147438048507047
148768,634,-27,-116,1992,1861,-9844,1745147438048507047
148960,603,247,-268,281,3281,-7753,1745147438048507047
149152,399,124,-52,293,166,-6260,1745147438048507047
149344,398,-82,-34,5,-797,-7477,1745147438108583165
149536,207,-7,-15,-347,-748,-7669,1745147438108583165
149728,15,36,19,-549,-257,-7501,1745147438108583165
149920,-113,107,32,-359,470,-7869,1745147438108583165
150112,-170,106,26,-98,1249,-7873,1745147438108583165
150304,-162,105,8,190,1852,-7908,1745147438108583165
150496,-114,83,-11,389,2140,-7868,1745147438108583165
150688,-52,49,-25,462,2240,-7834,1745147438108583165
150880,-1,28,-31,390,2098,-7837,1745147438108583165
151072,34,13,-31,266,1908,-7841,1745147438108583165
151264,49,6,-28,189,1664,-7839,1745147438108583165
151456,69,9,-21,290,1404,-7829,1745147438108583165
151648,81,13,-18,314,1349,-8001,1745147438165690664
151840,48,19,-17,229,1414,-7978,1745147438165690664
152032,11,18,-15,180,1521,-7992,1745147438165690664
152224,-9,18,-13,172,1658,-7991,1745147438165690664
152416,-19,20,-15,216,1750,-7967,1745147438165690664
152608,-25,19,-17,281,1821,-7934,1745147438165690664
152800,-27,13,-17,306,1880,-7906,1745147438165690664
152992,-25,7,-16,305,1877,-7904,1745147438165690664
153184,-22,1,-15,290,1855,-7905,1745147438165690664
153376,-20,-7,-17,266,1805,-7902,1745147438165690664
153568,-23,-13,-20,250,1752,-7867,1745147438165690664
153760,-30,-18,-22,264,1727,-7858,1745147438165690664
153952,-42,-22,-22,256,1666,-7817,1745147438225705116
154144,-55,-25,-21,264,1664,-7828,1745147438225705116
154336,-64,-29,-25,242,1619,-7810,1745147438225705116
154528,-68,-34,-29,242,1613,-7821,1745147438225705116
154720,-69,-38,-34,249,1608,-7850,1745147438225705116
154912,-70,-42,-38,200,1583,-7828,1745147438225705116
155104,-67,-47,-39,198,1529,-7839,1745147438225705116
155296,-64,-51,-41,187,1532,-7865,1745147438225705116
155488,-65,-54,-42,145,1519,-7884,1745147438225705116
155680,-65,-57,-43,109,1510,-7885,1745147438225705116
155872,-64,-58,-43,88,1538,-7901,1745147438225705116
156064,-65,-59,-44,94,1572,-7882,1745147438225705116
156256,-67,-61,-45,97,1604,-7852,1745147438283588598
156448,-68,-62,-45,91,1625,-7803,1745147438283588598
156640,-73,-63,-46,99,1678,-7789,1745147438283588598
156832,-79,-65,-46,108,1715,-7777,1745147438283588598
157024,-87,-68,-46,95,1778,-7766,1745147438283588598
157216,-97,-71,-47,65,1840,-7785,1745147438283588598
157408,-103,-74,-50,68,1882,-7810,1745147438283588598
157600,-103,-79,-55,63,1914,-7842,1745147438283588598
157792,-100,-82,-57,66,1902,-7856,1745147438283588598
157984,-94,-84,-58,78,1851,-7851,1745147438283588598
158176,-88,-87,-57,71,1805,-7840,1745147438283588598
158368,-83,-89,-58,71,1741,-7808,1745147438283588598
158560,-81,-90,-58,59,1687,-7822,1745147438342389988
158752,-83,-89,-59,46,1665,-7850,1745147438342389988
158944,-85,-87,-60,42,1669,-7867,1745147438342389988
159136,-86,-83,-63,54,1652,-7890,1745147438342389988
159328,-88,-80,-65,61,1685,-7900,1745147438342389988
159520,-89,-74,-65,50,1720,-7908,1745147438342389988
159712,-88,-70,-66,86,1771,-7942,1745147438342389988
159904,-87,-68,-68,106,1785,-8008,1745147438342389988
160096,-84,-68,-71,103,1838,-8089,1745147438342389988
160288,-80,-65,-74,92,1858,-8131,1745147438342389988
160480,-76,-62,-74,84,1845,-8118,1745147438342389988
160672,-72,-60,-74,125,1785,-8090,1745147438342389988
160864,-71,-55,-72,161,1736,-8040,1745147438399570507
161056,-73,-51,-68,195,1709,-8002,1745147438399570507
161248,-79,-47,-64,196,1707,-8015,1745147438399570507
161440,-84,-43,-63,204,1721,-8022,1745147438399570507
161632,-89,-40,-63,178,1752,-8019,1745147438399570507
161824,-92,-38,-63,193,1793,-8000,1745147438399570507
162016,-95,-35,-63,183,1840,-7989,1745147438399570507
162208,-100,-34,-63,169,1880,-7989,1745147438399570507
162400,-104,-33,-61,141,1935,-8008,1745147438399570507
162592,-105,-30,-61,113,1994,-8035,1745147438399570507
162784,-105,-28,-66,65,2033,-8044,1745147438399570507
162976,-103,-24,-70,89,2059,-8018,1745147438399570507
163168,-103,-20,-73,107,2029,-7996,1745147438457423677
163360,-106,-15,-71,153,1995,-8016,1745147438457423677
163552,-110,-14,-68,153,1976,-8027,1745147438457423677
163744,-113,-12,-67,149,1948,-8050,1745147438457423677
163936,-117,-9,-67,127,1909,-8067,1745147438457423677
164128,-120,-6,-67,148,1868,-8066,1745147438457423677
164320,-123,-2,-66,155,1836,-8035,1745147438457423677
164512,-127,0,-65,168,1774,-8025,1745147438457423677
164704,-130,2,-61,179,1751,-8039,1745147438457423677
164896,-134,2,-56,157,1725,-8053,1745147438457423677
165088,-135,4,-52,124,1753,-8032,1745147438457423677
165280,-135,7,-49,86,1779,-7988,1745147438457423677
165472,-136,11,-49,79,1793,-7916,1745147438517735782
165664,-138,16,-49,68,1814,-7886,1745147438517735782
165856,-138,21,-47,76,1854,-7885,1745147438517735782
166048,-140,24,-47,70,1891,-7862,1745147438517735782
166240,-139,27,-47,54,1928,-7908,1745147438517735782
166432,-139,29,-44,36,1976,-7989,1745147438517735782
166624,-127,30,-41,-6,2038,-7964,1745147438517735782
166816,-114,35,-42,-19,2080,-7971,1745147438517735782
167008,-104,38,-45,-4,2083,-7939,1745147438517735782
167200,-97,41,-46,28,2077,-7929,1745147438517735782
167392,-93,44,-44,38,2061,-7932,1745147438517735782
167584,-89,46,-41,33,2076,-7899,1745147438517735782
167776,-84,45,-39,19,2094,-7863,1745147438576325559
167968,-79,46,-37,33,2093,-7823,1745147438576325559
168160,-74,47,-35,44,2049,-7816,1745147438576325559
168352,-70,49,-31,78,2021,-7812,1745147438576325559
168544,-66,50,-26,82,1989,-7831,1745147438576325559
168736,-62,49,-22,71,2002,-7861,1745147438576325559
168928,-57,49,-19,67,1980,-7876,1745147438576325559
169120,-53,50,-16,44,1976,-7908,1745147438576325559
169312,-49,50,-13,51,1969,-7924,1745147438576325559
169504,-47,51,-9,67,1962,-7945,1745147438576325559
169696,-45,53,-4,67,1956,-7932,1745147438576325559
169888,-46,56,0,61,1973,-7920,1745147438576325559
170080,-49,60,1,65,2022,-7904,1745147438632992489
170272,-54,62,1,72,2056,-7893,1745147438632992489
170464,-58,67,3,104,2091,-7897,1745147438632992489
170656,-58,71,5,124,2140,-7899,1745147438632992489
170848,-55,73,6,148,2191,-7919,1745147438632992489
171040,-49,74,8,140,2217,-7936,1745147438632992489
171232,-42,73,7,145,2206,-7932,1745147438632992489
171424,-36,74,8,167,2179,-7955,1745147438632992489
171616,-33,75,11,177,2131,-7968,1745147438632992489
171808,-32,75,14,190,2108,-7958,1745147438632992489
172000,-33,77,18,181,2054,-8001,1745147438632992489
172192,-36,79,23,199,2032,-8019,1745147438632992489
172384,-39,82,28,218,2007,-8052,1745147438693293813
172576,-44,85,31,258,1995,-8041,1745147438693293813
172768,-49,88,35,287,1961,-8056,1745147438693293813
172960,-56,91,41,320,1920,-8070,1745147438693293813
173152,-63,94,46,325,1918,-8079,1745147438693293813
173344,-69,97,51,332,1928,-8096,1745147438693293813
173536,-73,99,55,337,1933,-8113,1745147438693293813
173728,-77,102,57,327,1955,-8122,1745147438693293813
173920,-82,107,59,330,1955,-8155,1745147438693293813
174112,-86,111,63,353,1902,-8109,1745147438693293813
174304,-69,120,73,442,1849,-8123,1745147438693293813
174496,-52,130,74,490,1846,-8209,1745147438693293813
174688,-60,138,68,481,1895,-8241,1745147438750374698
174880,-71,142,66,443,1944,-8256,1745147438750374698
175072,-74,149,67,391,1985,-8278,1745147438750374698
175264,-73,162,68,411,1992,-8290,1745147438750374698
175456,-69,170,67,469,1985,-8284,1745147438750374698
175648,-66,177,67,505,2000,-8313,1745147438750374698
175840,-60,186,67,500,2029,-8339,1745147438750374698
176032,-51,204,74,470,2053,-8338,1745147438750374698
176224,-38,220,86,498,2079,-8330,1745147438750374698
176416,-25,227,99,533,2099,-8324,1745147438750374698
176608,-9,227,105,578,2078,-8330,1745147438750374698
176800,7,235,111,609,2031,-8329,1745147438750374698
176992,25,250,128,643,2000,-8349,1745147438809591605
177184,50,256,153,654,2000,-8351,1745147438809591605
177376,82,252,174,656,1996,-8338,1745147438809591605
177568,118,241,183,599,2038,-8313,1745147438809591605
177760,148,231,180,590,2039,-8269,1745147438809591605
177952,167,243,172,589,2032,-8236,1745147438809591605
178144,173,233,164,616,2034,-8228,1745147438809591605
178336,169,235,158,610,2022,-8205,1745147438809591605
178528,156,241,150,647,2074,-8235,1745147438809591605
178720,140,245,142,706,2099,-8269,1745147438809591605
178912,121,250,129,728,2127,-8318,1745147438809591605
179104,106,245,105,731,2147,-8311,1745147438809591605
179296,102,214,71,734,2146,-8376,1745147438867869667
179488,102,187,44,840,2176,-8708,1745147438867869667
179680,111,204,42,957,2210,-9024,1745147438867869667
179872,98,277,62,1083,2169,-9258,1745147438867869667
180064,99,338,86,1168,2071,-9014,1745147438867869667
180256,107,351,105,1290,1978,-8849,1745147438867869667
180448,132,360,131,1538,1806,-8133,1745147438867869667
180640,165,367,182,2027,1233,-8131,1745147438867869667
180832,210,325,247,2352,659,-8670,1745147438867869667
181024,262,205,296,2554,652,-9030,1745147438867869667
181216,277,194,316,2376,954,-8809,1745147438867869667
181408,282,190,305,2366,1256,-7626,1745147438867869667
181600,320,300,313,2110,1521,-3837,1745147438924234621
181792,346,273,331,2937,-264,-1991,1745147438924234621
181984,465,101,333,4476,-1208,-3640,1745147438924234621
182176,523,-14,461,5670,-2007,-4135,1745147438924234621
182368,581,-203,564,6168,-1831,-3939,1745147438924234621
182560,572,-292,535,5812,-761,-2350,1745147438924234621
182752,328,-225,400,5334,-521,-1978,1745147438924234621
182944,-16,-237,300,5206,-1407,-2944,1745147438924234621
183136,-326,-341,286,5317,-2592,-3758,1745147438924234621
183328,-507,-407,216,5326,-2713,-4453,1745147438924234621
183520,-579,-413,64,5168,-1725,-5150,1745147438924234621
183712,-614,-412,-71,5257,-651,-5954,1745147438924234621
183904,-618,-464,-160,5368,170,-6345,1745147438987388939
184096,-585,-520,-174,5340,730,-6558,1745147438987388939
184288,-511,-530,-98,5127,1030,-6595,1745147438987388939
184480,-394,-495,46,4698,1247,-6484,1745147438987388939
184672,-243,-407,203,4374,1323,-6476,1745147438987388939
184864,-75,-346,333,4161,1291,-6212,1745147438987388939
185056,74,-277,427,3809,1161,-6178,1745147438987388939
185248,178,-192,533,3543,800,-6201,1745147438987388939
185440,252,-119,682,3416,337,-6011,1745147438987388939
185632,306,-46,852,3570,-182,-6165,1745147438987388939
185824,308,13,1037,3737,-602,-6140,1745147438987388939
186016,229,87,1212,3273,-992,-7468,1745147438987388939
186208,-66,254,1371,2293,-1280,-6323,1745147439044785186
186400,-272,349,1488,2179,-1410,-4498,1745147439044785186
186592,-240,244,1487,2995,-617,-2739,1745147439044785186
186784,-76,345,1483,2671,309,-3585,1745147439044785186
186976,-168,699,1840,3011,-476,-3984,1745147439044785186
187168,-335,700,2291,3257,-2155,-2685,1745147439044785186
187360,-498,687,2468,2263,-4117,-2716,1745147439044785186
187552,-806,836,2528,1387,-5779,-2398,1745147439044785186
187744,-1109,1022,2667,1302,-6528,-2701,1745147439044785186
187936,-1393,1232,2863,1490,-6027,-2709,1745147439044785186
188128,-1661,1444,3053,1876,-4900,-2483,1745147439044785186
188320,-1852,1615,3211,2361,-3705,-2407,1745147439044785186
188512,-1919,1744,3342,2822,-2640,-2456,1745147439104802554
188704,-1882,1844,3470,3203,-1740,-2797,1745147439104802554
188896,-1786,1923,3607,3509,-1028,-3228,1745147439104802554
189088,-1659,2002,3753,3682,-510,-3741,1745147439104802554
189280,-1509,2097,3900,3723,-174,-4267,1745147439104802554
189472,-1347,2210,4043,3762,36,-4702,1745147439104802554
189664,-1181,2328,4170,3759,128,-5131,1745147439104802554
189856,-1007,2454,4274,3769,228,-5572,1745147439104802554
190048,-821,2608,4367,3835,417,-6014,1745147439104802554
190240,-635,2785,4461,3951,698,-6492,1745147439104802554
190432,-472,2970,4549,4091,883,-7017,1745147439104802554
190624,-346,3159,4617,4196,916,-7495,1745147439104802554
190816,-252,3364,4676,4289,846,-7836,1745147439161135321
191008,-186,3581,4730,4415,750,-7954,1745147439161135321
191200,-144,3805,4772,4485,738,-7775,1745147439161135321
191392,-114,4058,4803,4489,896,-7459,1745147439161135321
191584,-75,4323,4820,4860,962,-7641,1745147439161135321
191776,-39,4523,4815,5478,1024,-7450,1745147439161135321
191968,-1,4684,4794,6244,977,-6926,1745147439161135321
192160,35,4825,4747,6952,1291,-6942,1745147439161135321
192352,44,4951,4766,7908,1529,-6814,1745147439161135321
192544,13,5031,4846,8908,1270,-6529,1745147439161135321
192736,-26,5061,4900,10134,623,-6423,1745147439161135321
192928,-44,5039,4917,11329,74,-6377,1745147439161135321
193120,-35,4990,4951,12669,-356,-6481,1745147439221357167
193312,-3,4925,4943,13712,-413,-6427,1745147439221357167
193504,73,4881,4853,14285,-83,-6582,1745147439221357167
193696,209,4826,4697,14681,672,-6773,1745147439221357167
193888,397,4798,4522,15043,1557,-6947,1745147439221357167
194080,583,4787,4340,15408,2392,-7073,1745147439221357167
194272,726,4744,4182,15441,3008,-6346,1745147439221357167
194464,818,4586,4069,15686,3402,-6218,1745147439221357167
194656,864,4417,4011,15585,3533,-5620,1745147439221357167
194848,822,4239,3990,15573,3412,-5465,1745147439221357167
195040,683,4069,3993,15517,3048,-5271,1745147439221357167
195232,439,3885,4008,15344,2519,-5051,1745147439221357167
195424,135,3682,4025,15010,1977,-4828,1745147439277984358
195616,-216,3498,4070,14439,1673,-4725,1745147439277984358
195808,-600,3343,4157,14190,901,-4399,1745147439277984358
196000,-979,3234,4160,14079,133,-4002,1745147439277984358
196192,-1365,3147,4144,14146,-171,-3836,1745147439277984358
196384,-1771,3030,4175,14301,-224,-3640,1745147439277984358
196576,-2142,2876,4166,14372,-55,-3488,1745147439277984358
196768,-2449,2709,4065,14377,235,-3310,1745147439277984358
196960,-2646,2476,3863,14146,674,-3161,1745147439277984358
197152,-2722,2208,3581,13717,1264,-3063,1745147439277984358
197344,-2687,1939,3245,13122,1867,-2989,1745147439277984358
197536,-2566,1676,2880,12439,2474,-2863,1745147439277984358
197728,-2388,1420,2507,11738,3042,-2967,1745147439338123965
197920,-2183,1190,2149,11047,3531,-3189,1745147439338123965
198112,-1953,992,1822,10371,3888,-3446,1745147439338123965
198304,-1693,824,1531,9790,4103,-3704,1745147439338123965
198496,-1414,686,1275,9302,4191,-3972,1745147439338123965
198688,-1132,562,1063,8974,4061,-4128,1745147439338123965
198880,-857,457,883,8768,3715,-4219,1745147439338123965
199072,-606,366,728,8610,3192,-4338,1745147439338123965
199264,-380,288,589,8451,2603,-4364,1745147439338123965
199456,-190,231,471,8330,1968,-4386,1745147439338123965
199648,-43,186,376,8235,1316,-4404,1745147439338123965
199840,62,149,304,8104,733,-4347,1745147439338123965
200032,135,123,246,7923,215,-4284,1745147439395567554
200224,180,106,201,7737,-230,-4172,1745147439395567554
200416,191,98,172,7524,-671,-4081,1745147439395567554
200608,171,94,163,7400,-1091,-4001,1745147439395567554
200800,126,95,171,7253,-1442,-3953,1745147439395567554
200992,67,116,195,7059,-1741,-3999,1745147439395567554
201184,-1,146,240,6981,-1990,-3960,1745147439395567554
201376,-82,172,285,6883,-2169,-3917,1745147439395567554
201568,-163,204,332,6795,-2241,-3801,1745147439395567554
201760,-232,235,381,6730,-2222,-3759,1745147439395567554
201952,-289,263,421,6814,-2200,-3692,1745147439395567554
202144,-334,270,428,6979,-2219,-3757,1745147439395567554
202336,-367,277,401,7110,-2208,-3741,1745147439454205144
202528,-376,265,358,7202,-2124,-3635,1745147439454205144
202720,-369,258,324,7204,-1982,-3617,1745147439454205144
202912,-354,256,321,7104,-1751,-3648,1745147439454205144
203104,-318,248,355,7003,-1512,-3698,1745147439454205144
203296,-259,234,406,6915,-1366,-3757,1745147439454205144
203488,-186,214,449,6902,-1297,-3762,1745147439454205144
203680,-104,191,475,6947,-1355,-3691,1745147439454205144
203872,-21,164,465,7017,-1423,-3598,1745147439454205144
204064,50,139,436,7016,-1545,-3559,1745147439454205144
204256,116,119,401,6966,-1657,-3536,1745147439454205144
204448,174,102,370,6920,-1775,-3495,1745147439454205144
204640,224,87,346,6885,-1920,-3437,1745147439513569654
204832,266,64,309,6890,-2013,-3336,1745147439513569654
205024,298,40,276,6931,-2207,-3264,1745147439513569654
205216,325,14,239,6963,-2370,-3195,1745147439513569654
205408,340,-10,194,6972,-2507,-3173,1745147439513569654
205600,339,-30,142,6989,-2602,-3129,1745147439513569654
205792,322,-51,88,6963,-2728,-3083,1745147439513569654
205984,302,-72,41,6954,-2829,-3028,1745147439513569654
206176,287,-95,6,6943,-2899,-2998,1745147439513569654
206368,272,-117,-21,6955,-2964,-2947,1745147439513569654
206560,252,-144,-33,6956,-3010,-2872,1745147439513569654
206752,235,-164,-37,6958,-3025,-2809,1745147439513569654
206944,220,-183,-34,6927,-3042,-2746,1745147439570970848
207136,209,-199,-27,6944,-3095,-2731,1745147439570970848
207328,207,-217,-29,6947,-3135,-2725,1745147439570970848
207520,215,-229,-33,6903,-3145,-2739,1745147439570970848
207712,233,-236,-33,7013,-3085,-2713,1745147439570970848
207904,259,-245,-28,6563,-2999,-2605,1745147439570970848
208096,291,-202,12,6255,-2754,-2660,1745147439570970848
208288,327,-233,68,6901,-3183,-2831,1745147439570970848
208480,322,-183,-39,7293,-3561,-2568,1745147439570970848
208672,300,-204,-213,7331,-3754,-2342,1745147439570970848
208864,313,-193,-307,7050,-3931,-2378,1745147439570970848
209056,314,-199,-305,6764,-3818,-2172,1745147439570970848
209248,313,-207,-239,6617,-3712,-2229,1745147439630536658
209440,304,-211,-167,6604,-3638,-2170,1745147439630536658
209632,300,-215,-129,6667,-3686,-2178,1745147439630536658
209824,293,-209,-123,6814,-3790,-2244,1745147439630536658
210016,284,-199,-138,6892,-3881,-2302,1745147439630536658
210208,269,-187,-155,6955,-3956,-2395,1745147439630536658
210400,247,-169,-160,6903,-3987,-2437,1745147439630536658
210592,223,-142,-152,6821,-3965,-2436,1745147439630536658
210784,202,-116,-133,6769,-3963,-2459,1745147439630536658
210976,192,-90,-111,6747,-3961,-2468,1745147439630536658
211168,192,-68,-92,6735,-3917,-2492,1745147439630536658
211360,197,-46,-77,6751,-3867,-2504,1745147439630536658
211552,202,-24,-68,6748,-3812,-2529,1745147439687728375
211744,210,-7,-62,6780,-3791,-2510,1745147439687728375
211936,220,4,-57,6793,-3787,-2482,1745147439687728375
212128,238,8,-52,6835,-3787,-2441,1745147439687728375
212320,258,7,-48,6866,-3807,-2374,1745147439687728375
212512,279,-1,-45,6887,-3817,-2306,1745147439687728375
212704,302,-15,-46,6916,-3879,-2187,1745147439687728375
212896,323,-35,-49,6962,-3971,-2092,1745147439687728375
213088,344,-57,-51,7000,-4133,-2093,1745147439687728375
213280,364,-73,-54,7042,-4242,-2101,1745147439687728375
213472,374,-81,-61,7063,-4290,-2131,1745147439687728375
213664,367,-89,-69,7060,-4333,-2114,1745147439687728375
213856,348,-99,-73,7051,-4348,-2072,1745147439746577890
214048,327,-108,-71,7036,-4404,-2052,1745147439746577890
214240,306,-117,-61,7037,-4413,-2047,1745147439746577890
214432,286,-124,-46,7017,-4420,-2054,1745147439746577890
214624,263,-131,-33,7000,-4412,-2051,1745147439746577890
214816,239,-139,-24,6978,-4374,-2048,1745147439746577890
215008,212,-144,-19,6924,-4332,-2023,1745147439746577890
215200,186,-143,-13,6876,-4270,-2016,1745147439746577890
215392,160,-139,-7,6786,-4168,-2012,1745147439746577890
215584,136,-133,-6,6716,-4083,-1990,1745147439746577890
215776,122,-129,-6,6707,-4018,-1962,1745147439746577890
215968,118,-128,-7,6728,-3988,-1941,1745147439746577890
216160,122,-128,-11,6754,-3957,-1918,1745147439805632402
216352,131,-127,-19,6821,-3961,-1947,1745147439805632402
216544,142,-125,-31,6857,-3977,-1991,1745147439805632402
216736,155,-124,-45,6907,-3989,-1949,1745147439805632402
216928,168,-127,-59,6955,-4062,-1915,1745147439805632402
217120,184,-129,-71,6952,-4098,-1913,1745147439805632402
217312,203,-130,-81,6922,-4121,-1930,1745147439805632402
217504,216,-124,-91,6835,-4114,-1977,1745147439805632402
217696,216,-109,-96,6776,-4089,-2021,1745147439805632402
217888,208,-96,-96,6740,-4066,-2003,1745147439805632402
218080,194,-85,-97,6810,-4110,-1984,1745147439805632402
218272,181,-79,-103,6870,-4147,-1985,1745147439805632402
218464,166,-77,-112,6914,-4215,-1980,1745147439862530320
218656,147,-65,-116,6848,-4219,-1984,1745147439862530320
218848,125,-60,-104,6870,-4230,-1917,1745147439862530320
219040,103,-67,-102,6976,-4249,-1867,1745147439862530320
219232,86,-90,-125,7036,-4233,-1813,1745147439862530320
219424,77,-110,-148,7045,-4216,-1787,1745147439862530320
219616,73,-125,-157,7021,-4238,-1790,1745147439862530320
219808,76,-129,-152,6940,-4236,-1848,1745147439862530320
220000,77,-130,-141,6881,-4247,-1894,1745147439862530320
220192,74,-125,-134,6817,-4239,-1939,1745147439862530320
220384,69,-116,-132,6767,-4235,-1967,1745147439862530320
220576,70,-104,-127,6758,-4253,-1979,1745147439862530320
220768,76,-91,-118,6765,-4242,-1972,1745147439920366354
220960,78,-74,-110,6780,-4208,-1987,1745147439920366354
221152,77,-58,-101,6796,-4180,-1979,1745147439920366354
221344,80,-49,-93,6838,-4167,-1953,1745147439920366354
221536,85,-44,-86,6876,-4137,-1973,1745147439920366354
221728,92,-45,-83,6897,-4103,-1995,1745147439920366354
221920,100,-46,-83,6904,-4084,-1960,1745147439920366354
222112,108,-52,-85,6922,-4075,-1891,1745147439920366354
222304,117,-63,-85,6950,-4115,-1909,1745147439920366354
222496,131,-73,-82,6927,-4105,-1947,1745147439920366354
222688,143,-74,-77,6882,-4073,-1989,1745147439920366354
222880,150,-70,-73,6830,-4051,-2028,1745147439920366354
223072,154,-68,-70,6799,-4065,-2025,1745147439977513124
223264,160,-67,-65,6806,-4092,-2016,1745147439977513124
223456,171,-65,-59,6803,-4089,-2007,1745147439977513124
223648,179,-61,-53,6814,-4097,-1993,1745147439977513124
223840,179,-60,-52,6842,-4114,-1954,1745147439977513124
224032,180,-63,-52,6869,-4135,-1914,1745147439977513124
224224,185,-65,-51,6849,-4160,-1921,1745147439977513124
224416,190,-65,-51,6825,-4101,-1955,1745147439977513124
224608,189,-58,-54,6788,-4028,-1991,1745147439977513124
224800,181,-49,-59,6769,-3988,-2023,1745147439977513124
224992,172,-41,-59,6752,-3962,-2024,1745147439977513124
225184,169,-36,-55,6783,-3967,-1998,1745147439977513124
225376,169,-32,-52,6818,-3951,-2003,1745147440039504380
225568,168,-28,-51,6831,-3933,-1986,1745147440039504380
225760,165,-25,-56,6819,-3911,-1993,1745147440039504380
225952,160,-20,-63,6807,-3885,-1976,1745147440039504380
226144,154,-20,-69,6824,-3870,-1967,1745147440039504380
226336,150,-24,-71,6835,-3938,-1968,1745147440039504380
226528,153,-27,-72,6856,-3994,-1961,1745147440039504380
226720,157,-26,-74,6855,-4019,-2025,1745147440039504380
226912,155,-22,-77,6844,-4011,-2075,1745147440039504380
227104,148,-17,-83,6846,-3997,-2071,1745147440039504380
227296,138,-14,-87,6862,-3991,-2062,1745147440039504380
227488,131,-12,-86,6888,-4003,-2023,1745147440039504380
227680,126,-12,-81,6929,-4026,-1976,1745147440096654275
227872,118,-19,-74,6957,-4072,-1945,1745147440096654275
228064,107,-27,-67,6979,-4119,-1939,1745147440096654275
228256,97,-37,-59,6995,-4200,-1916,1745147440096654275
228448,86,-43,-54,6960,-4249,-1925,1745147440096654275
228640,73,-42,-51,6922,-4306,-1977,1745147440096654275
228832,56,-37,-51,6868,-4292,-2016,1745147440096654275
229024,33,-27,-54,6796,-4248,-2028,1745147440096654275
229216,9,-16,-52,6755,-4236,-2033,1745147440096654275
229408,-3,-1,-44,6743,-4183,-2055,1745147440096654275
229600,-5,13,-33,6756,-4131,-2098,1745147440096654275
229792,-2,26,-25,6804,-4051,-2119,1745147440096654275
229984,1,34,-24,6869,-3998,-2119,1745147440156554874
230176,7,35,-24,6951,-3982,-2073,1745147440156554874
230368,19,30,-25,6982,-3994,-2034,1745147440156554874
230560,38,24,-27,6991,-4009,-2027,1745147440156554874
230752,56,16,-31,6954,-4035,-2023,1745147440156554874
230944,67,10,-39,6932,-4048,-2035,1745147440156554874
231136,75,9,-44,6897,-4047,-2072,1745147440156554874
231328,79,11,-47,6874,-4054,-2134,1745147440156554874
231520,83,14,-46,6867,-4052,-2141,1745147440156554874
231712,85,16,-45,6888,-4068,-2143,1745147440156554874
231904,86,16,-44,6895,-4068,-2128,1745147440156554874
232096,88,18,-45,6901,-4077,-2124,1745147440156554874
232288,88,17,-44,6940,-4097,-2105,1745147440213682841
232480,85,12,-49,6986,-4114,-2078,1745147440213682841
232672,82,5,-55,7011,-4146,-2065,1745147440213682841
232864,80,-4,-61,7006,-4167,-2037,1745147440213682841
233056,79,-12,-63,6989,-4217,-2015,1745147440213682841
233248,77,-22,-61,6966,-4239,-2005,1745147440213682841
233440,73,-26,-58,6929,-4271,-2024,1745147440213682841
233632,66,-26,-55,6905,-4235,-2040,1745147440213682841
233824,54,-22,-53,6917,-4224,-2053,1745147440213682841
234016,42,-21,-49,6932,-4235,-2040,1745147440213682841
234208,35,-22,-41,6952,-4274,-1996,1745147440213682841
234400,30,-24,-32,6982,-4331,-1987,1745147440213682841
234592,27,-25,-24,6951,-4342,-1994,1745147440271706686
234784,23,-23,-18,6907,-4316,-2018,1745147440271706686
234976,14,-16,-15,6874,-4269,-2023,1745147440271706686
235168,3,-8,-12,6850,-4267,-2005,1745147440271706686
235360,-5,-1,-6,6838,-4251,-1992,1745147440271706686
235552,-11,7,2,6848,-4217,-1993,1745147440271706686
235744,-17,16,10,6848,-4157,-2015,1745147440271706686
235936,-22,24,18,6866,-4141,-2026,1745147440271706686
236128,-24,32,25,6886,-4131,-2008,1745147440271706686
236320,-21,37,32,6913,-4093,-2023,1745147440271706686
236512,-18,41,36,6919,-4068,-2027,1745147440271706686
236704,-17,46,38,6907,-4020,-2043,1745147440271706686
236896,-15,52,39,6902,-3950,-2065,1745147440331878637
237088,-12,57,40,6899,-3919,-2070,1745147440331878637
237280,-6,58,38,6917,-3893,-2064,1745147440331878637
237472,3,57,36,6961,-3892,-2079,1745147440331878637
237664,15,54,33,6979,-3904,-2081,1745147440331878637
237856,26,50,29,6999,-3926,-2083,1745147440331878637
238048,31,44,23,6993,-3935,-2093,1745147440331878637
238240,35,40,17,6977,-3944,-2107,1745147440331878637
238432,37,37,13,6947,-3935,-2129,1745147440331878637
238624,40,35,10,6940,-3927,-2107,1745147440331878637
238816,41,30,7,6950,-3967,-2093,1745147440331878637
239008,40,23,4,6956,-3990,-2070,1745147440331878637
239200,39,15,4,6976,-4041,-2040,1745147440389068843
239392,35,8,4,6976,-4081,-2042,1745147440389068843
239584,31,2,3,6969,-4110,-2034,1745147440389068843
239776,26,-3,-1,6975,-4096,-2040,1745147440389068843
239968,17,-4,-5,6923,-4067,-2062,1745147440389068843
240160,12,-5,-6,6906,-4030,-2073,1745147440389068843
240352,9,-3,-8,6903,-3989,-2103,1745147440389068843
240544,9,-2,-8,6917,-3968,-2114,1745147440389068843
240736,14,-2,-8,6914,-3939,-2117,1745147440389068843
240928,18,-3,-8,6919,-3920,-2092,1745147440389068843
241120,22,-6,-11,6923,-3932,-2075,1745147440389068843
241312,28,-9,-12,6919,-3941,-2088,1745147440389068843
241504,34,-10,-13,6911,-3925,-2084,1745147440448648403
241696,34,-11,-16,6917,-3955,-2066,1745147440448648403
241888,34,-13,-20,6928,-4030,-2043,1745147440448648403
242080,37,-16,-21,6935,-4062,-2025,1745147440448648403
242272,40,-15,-21,6899,-4075,-2052,1745147440448648403
242464,41,-8,-20,6869,-4069,-2085,1745147440448648403
242656,36,-2,-18,6868,-4024,-2109,1745147440448648403
242848,30,2,-16,6872,-4014,-2107,1745147440448648403
243040,28,6,-12,6902,-4021,-2113,1745147440448648403
243232,30,9,-5,6911,-4007,-2087,1745147440448648403
243424,30,9,-1,6933,-3994,-2103,1745147440448648403
243616,28,10,2,6931,-3960,-2105,1745147440448648403
243808,27,9,2,6941,-3954,-2107,1745147440505824912
244000,28,6,1,6945,-3957,-2084,1745147440505824912
244192,30,-2,0,6937,-3993,-2043,1745147440505824912
244384,33,-9,-2,6933,-4009,-2051,1745147440505824912
244576,39,-10,-3,6919,-3997,-2093,1745147440505824912
244768,41,-8,-6,6912,-3954,-2104,1745147440505824912
244960,39,-5,-9,6909,-3937,-2131,1745147440505824912
245152,35,-5,-11,6937,-3919,-2095,1745147440505824912
245344,33,-8,-10,6947,-3948,-2077,1745147440505824912
245536,35,-10,-11,6977,-3999,-2069,1745147440505824912
245728,36,-12,-11,6977,-4011,-2082,1745147440505824912
245920,35,-13,-13,6980,-4017,-2063,1745147440505824912
246112,28,-15,-18,6985,-4041,-2035,1745147440565699730
246304,22,-19,-20,6957,-4052,-2026,1745147440565699730
246496,20,-19,-19,6910,-4044,-2058,1745147440565699730
246688,22,-15,-18,6884,-3989,-2117,1745147440565699730
246880,20,-9,-17,6884,-3937,-2120,1745147440565699730
247072,15,-5,-18,6898,-3942,-2082,1745147440565699730
247264,13,-4,-16,6943,-3961,-2052,1745147440565699730
247456,15,-3,-13,6944,-3966,-2049,1745147440565699730
247648,20,-2,-11,6950,-3942,-2064,1745147440565699730
247840,22,-2,-12,6934,-3904,-2076,1745147440565699730
248032,21,-4,-13,6949,-3921,-2072,1745147440565699730
248224,21,-7,-16,6959,-3967,-2062,1745147440565699730
248416,22,-12,-14,6962,-3996,-2029,1745147440622936967
248608,23,-15,-14,6965,-4029,-2016,1745147440622936967
248800,22,-17,-16,6946,-4039,-2045,1745147440622936967
248992,19,-16,-20,6916,-4008,-2074,1745147440622936967
249184,13,-14,-23,6900,-4014,-2070,1745147440622936967
249376,9,-13,-24,6887,-4010,-2068,1745147440622936967
249568,12,-12,-21,6883,-3988,-2066,1745147440622936967
249760,17,-9,-16,6904,-3966,-2065,1745147440622936967
249952,18,-7,-11,6910,-3943,-2079,1745147440622936967
250144,15,-7,-7,6932,-3961,-2072,1745147440622936967
250336,14,-11,-3,6955,-3976,-2056,1745147440622936967
250528,17,-16,1,6973,-4017,-2043,1745147440622936967
250720,22,-17,3,6959,-4041,-2050,1745147440680808887
250912,22,-14,4,6934,-3997,-2071,1745147440680808887
251104,17,-9,4,6879,-3967,-2101,1745147440680808887
251296,11,-4,6,6881,-3950,-2110,1745147440680808887
251488,10,0,9,6883,-3992,-2079,1745147440680808887
251680,12,1,11,6915,-4033,-2044,1745147440680808887
251872,14,0,11,6934,-4052,-2043,1745147440680808887
252064,14,2,11,6926,-4045,-2076,1745147440680808887
252256,8,6,10,6899,-4001,-2089,1745147440680808887
252448,2,9,6,6883,-3957,-2074,1745147440680808887
252640,0,9,3,6895,-3962,-2052,1745147440680808887
252832,-1,7,3,6918,-3970,-2040,1745147440680808887
253024,0,4,4,6940,-3991,-2027,1745147440740973598
253216,1,1,6,6949,-4015,-2019,1745147440740973598
253408,-1,-2,7,6969,-4029,-2017,1745147440740973598
253600,-5,-4,5,6959,-4045,-2021,1745147440740973598
253792,-7,-5,7,6957,-4052,-2037,1745147440740973598
253984,-5,-7,7,6943,-4043,-2045,1745147440740973598
254176,-4,-6,8,6911,-4008,-2053,1745147440740973598
254368,-4,-2,8,6903,-3985,-2068,1745147440740973598
254560,-7,0,10,6897,-3974,-2057,1745147440740973598
254752,-9,1,13,6922,-4003,-2029,1745147440740973598
254944,-8,-2,16,6946,-4025,-1997,1745147440740973598
255136,-7,-5,16,6954,-4061,-2002,1745147440740973598
255328,-7,-6,16,6944,-4045,-2004,1745147440797959952
255520,-8,-7,15,6931,-4051,-2041,1745147440797959952
255712,-11,-5,16,6903,-4032,-2042,1745147440797959952
255904,-13,-4,15,6886,-4019,-2038,1745147440797959952
256096,-12,-1,16,6880,-4018,-2048,1745147440797959952
256288,-11,3,17,6881,-3990,-2047,1745147440797959952
256480,-11,6,16,6895,-3997,-2027,1745147440797959952
256672,-12,4,16,6906,-4019,-1992,1745147440797959952
256864,-11,2,18,6903,-4044,-1979,1745147440797959952
257056,-8,3,21,6891,-4048,-2009,1745147440797959952
257248,-7,4,25,6901,-4050,-2047,1745147440797959952
257440,-7,6,28,6917,-4045,-2051,1745147440797959952
257632,-4,8,31,6906,-4044,-2033,1745147440857996643
257824,0,8,33,6937,-4076,-2031,1745147440857996643
258016,4,8,35,6932,-4075,-2019,1745147440857996643
258208,8,11,35,6927,-4045,-2037,1745147440857996643
258400,9,14,33,6898,-4024,-2062,1745147440857996643
258592,8,18,34,6878,-3992,-2062,1745147440857996643
258784,6,20,36,6887,-4001,-2050,1745147440857996643
258976,7,19,40,6893,-4036,-2039,1745147440857996643
259168,14,18,46,6882,-4042,-2039,1745147440857996643
259360,22,20,47,6876,-4008,-2057,1745147440857996643
259552,25,23,44,6879,-3992,-2059,1745147440857996643
259744,23,23,39,6897,-4026,-2069,1745147440857996643
259936,25,21,38,6920,-4051,-2064,1745147440914866749
260128,30,20,38,6953,-4073,-2062,1745147440914866749
260320,31,19,35,6954,-4072,-2064,1745147440914866749
260512,28,17,32,6922,-4050,-2076,1745147440914866749
260704,25,17,28,6896,-4020,-2098,1745147440914866749
260896,22,17,26,6867,-3981,-2097,1745147440914866749
261088,17,17,25,6866,-3947,-2076,1745147440914866749
261280,13,13,24,6906,-3997,-2051,1745147440914866749
261472,14,8,24,6938,-4053,-2027,1745147440914866749
261664,17,3,22,6955,-4088,-2025,1745147440914866749
261856,16,-1,17,6963,-4092,-2039,1745147440914866749
262048,9,-4,11,6960,-4082,-2008,1745147440914866749
262240,4,-7,5,6942,-4094,-1990,1745147440975069480
262432,0,-12,3,6937,-4080,-2000,1745147440975069480
262624,-3,-12,4,6917,-4055,-2025,1745147440975069480
262816,-7,-8,4,6893,-4021,-2052,1745147440975069480
263008,-13,-3,6,6900,-3993,-2084,1745147440975069480
263200,-18,0,8,6924,-3993,-2075,1745147440975069480
263392,-20,-1,9,6919,-3979,-2054,1745147440975069480
263584,-19,-3,9,6920,-4004,-2028,1745147440975069480
263776,-15,-5,7,6908,-4011,-2026,1745147440975069480
263968,-11,-6,4,6895,-4016,-2022,1745147440975069480
264160,-9,-6,0,6893,-4030,-2037,1745147440975069480
264352,-8,-4,-4,6873,-3999,-2067,1745147440975069480
264544,-5,-2,-5,6865,-3980,-2076,1745147441032156615
264736,-4,-1,-5,6871,-3977,-2059,1745147441032156615
264928,-3,-2,-4,6899,-4009,-2063,1745147441032156615
265120,2,-1,-1,6897,-4022,-2066,1745147441032156615
265312,5,1,1,6874,-3998,-2073,1745147441032156615
265504,2,4,0,6877,-4001,-2054,1745147441032156615
265696,-2,4,-1,6873,-3992,-2050,1745147441032156615
265888,-2,3,3,6876,-4011,-2047,1745147441032156615
266080,2,3,7,6878,-4011,-2057,1745147441032156615
266272,4,1,9,6900,-4023,-2029,1745147441032156615
266464,2,-1,7,6919,-4044,-2014,1745147441032156615
266656,4,-3,5,6906,-4045,-2013,1745147441032156615
266848,8,-3,3,6904,-4016,-2033,1745147441089931399
267040,6,-3,1,6892,-3982,-2047,1745147441089931399
267232,3,-4,0,6899,-3990,-2044,1745147441089931399
267424,5,-7,1,6922,-4014,-2021,1745147441089931399
267616,9,-10,5,6895,-4020,-2026,1745147441089931399
267808,12,-9,8,6886,-4009,-2054,1745147441089931399
268000,10,-8,9,6887,-4012,-2065,1745147441089931399
268192,8,-8,8,6878,-4027,-2062,1745147441089931399
268384,8,-7,8,6886,-4040,-2039,1745147441089931399
268576,9,-7,8,6883,-4046,-2020,1745147441089931399
268768,8,-6,8,6862,-4021,-2039,1745147441089931399
268960,4,-5,7,6861,-4020,-2029,1745147441089931399
269152,1,-3,7,6859,-4031,-2001,1745147441150257567
269344,-2,-4,5,6889,-4059,-1999,1745147441150257567
269536,-1,-6,6,6889,-4079,-1998,1745147441150257567
269728,2,-6,6,6893,-4081,-1988,1745147441150257567
269920,0,-5,6,6884,-4077,-1999,1745147441150257567
270112,-4,-3,5,6874,-4060,-2025,1745147441150257567
270304,-9,-3,6,6856,-4039,-2027,1745147441150257567
270496,-12,0,10,6833,-4021,-2032,1745147441150257567
270688,-13,2,12,6835,-4038,-2009,1745147441150257567
270880,-14,1,13,6876,-4076,-1984,1745147441150257567
271072,-12,-3,15,6900,-4132,-1976,1745147441150257567
271264,-10,-3,16,6893,-4123,-1983,1745147441150257567
271456,-10,-1,17,6888,-4100,-2000,1745147441207326264
271648,-15,2,18,6879,-4080,-2015,1745147441207326264
271840,-19,4,19,6871,-4084,-2018,1745147441207326264
272032,-19,5,19,6868,-4056,-2017,1745147441207326264
272224,-19,7,19,6875,-4054,-2007,1745147441207326264
272416,-21,8,19,6872,-4044,-2016,1745147441207326264
272608,-20,9,19,6866,-4053,-1989,1745147441207326264
272800,-18,9,20,6858,-4034,-1993,1745147441207326264
272992,-16,10,21,6852,-4038,-2011,1745147441207326264
273184,-15,11,21,6855,-4020,-2001,1745147441207326264
273376,-12,11,20,6865,-4017,-2014,1745147441207326264
273568,-8,10,20,6878,-4027,-2024,1745147441207326264
273760,-3,12,18,6865,-4021,-2019,1745147441266939991
273952,1,14,16,6880,-4009,-2022,1745147441266939991
274144,3,14,14,6881,-4030,-2029,1745147441266939991
274336,6,12,14,6907,-4033,-2049,1745147441266939991
274528,12,12,13,6889,-4037,-2051,1745147441266939991
274720,15,11,12,6881,-4033,-2053,1745147441266939991
274912,17,12,12,6876,-4053,-2061,1745147441266939991
275104,19,12,14,6865,-4036,-2059,1745147441266939991
275296,23,15,15,6864,-4009,-2083,1745147441266939991
275488,23,15,14,6855,-3995,-2092,1745147441266939991
275680,24,16,14,6874,-3991,-2087,1745147441266939991
275872,26,14,12,6902,-4028,-2060,1745147441266939991
276064,29,9,10,6935,-4071,-2051,1745147441325663308
276256,33,3,8,6927,-4105,-2037,1745147441325663308
276448,33,1,4,6916,-4120,-2059,1745147441325663308
276640,27,0,1,6889,-4090,-2084,1745147441325663308
276832,18,-1,-2,6865,-4101,-2084,1745147441325663308
277024,11,-2,-2,6844,-4097,-2066,1745147441325663308
277216,6,-2,1,6846,-4131,-2049,1745147441325663308
277408,2,-2,5,6870,-4116,-2059,1745147441325663308
277600,-3,1,9,6859,-4104,-2066,1745147441325663308
277792,-8,4,9,6866,-4088,-2081,1745147441325663308
277984,-11,5,9,6887,-4085,-2057,1745147441325663308
278176,-13,2,9,6918,-4073,-2040,1745147441325663308
278368,-11,-1,11,6905,-4101,-2053,1745147441383012993
278560,-4,-3,13,6898,-4076,-2061,1745147441383012993
278752,2,-2,11,6883,-4081,-2082,1745147441383012993
278944,3,-1,8,6883,-4076,-2078,1745147441383012993
279136,4,-2,4,6877,-4083,-2038,1745147441383012993
279328,5,-3,4,6880,-4122,-2026,1745147441383012993
279520,7,-4,7,6862,-4134,-2041,1745147441383012993
279712,8,0,9,6833,-4108,-2060,1745147441383012993
279904,6,6,10,6830,-4075,-2066,1745147441383012993
280096,2,9,12,6854,-4076,-2075,1745147441383012993
280288,-1,9,15,6866,-4087,-2041,1745147441383012993
280480,1,7,17,6881,-4109,-2036,1745147441383012993
280672,3,7,19,6885,-4088,-2059,1745147441442824947
280864,3,9,18,6874,-4038,-2080,1745147441442824947
281056,0,10,15,6874,-4032,-2069,1745147441442824947
281248,-1,7,11,6900,-4038,-2068,1745147441442824947
281440,2,2,8,6912,-4043,-2051,1745147441442824947
281632,6,-5,6,6927,-4079,-2021,1745147441442824947
281824,7,-9,5,6916,-4099,-2051,1745147441442824947
282016,9,-11,4,6894,-4115,-2064,1745147441442824947
282208,9,-12,0,6893,-4089,-2071,1745147441442824947
282400,5,-12,-2,6877,-4108,-2038,1745147441442824947
282592,3,-14,-2,6882,-4140,-2024,1745147441442824947
282784,5,-14,2,6881,-4158,-2013,1745147441442824947
282976,6,-14,8,6872,-4166,-2002,1745147441499409430
283168,4,-11,12,6855,-4157,-2032,1745147441499409430
283360,-1,-10,15,6860,-4123,-2066,1745147441499409430
283552,-4,-7,17,6849,-4095,-2068,1745147441499409430
283744,-4,-4,18,6838,-4077,-2062,1745147441499409430
283936,-4,-5,20,6861,-4067,-2038,1745147441499409430
284128,-5,-6,22,6864,-4098,-2017,1745147441499409430
284320,-4,-7,25,6877,-4116,-2027,1745147441499409430
284512,-1,-6,25,6878,-4097,-2062,1745147441499409430
284704,2,-3,20,6865,-4062,-2094,1745147441499409430
284896,2,-1,15,6875,-4031,-2092,1745147441499409430
285088,3,0,10,6855,-3995,-2094,1745147441499409430
285280,3,-2,7,6881,-3989,-2078,1745147441559490495
285472,8,-8,5,6903,-4036,-2076,1745147441559490495
285664,14,-12,2,6891,-4062,-2076,1745147441559490495
285856,18,-16,-1,6882,-4051,-2065,1745147441559490495
286048,18,-17,-5,6874,-4068,-2055,1745147441559490495
286240,15,-18,-6,6879,-4058,-2072,1745147441559490495
286432,10,-20,-7,6883,-4049,-2062,1745147441559490495
286624,7,-22,-6,6888,-4064,-2056,1745147441559490495
286816,9,-23,-4,6877,-4090,-2067,1745147441559490495
287008,14,-25,-3,6883,-4110,-2079,1745147441559490495
287200,14,-27,-5,6883,-4123,-2087,1745147441559490495
287392,14,-27,-7,6869,-4134,-2060,1745147441559490495
287584,10,-26,-7,6843,-4136,-2043,1745147441622734657
287776,3,-24,-5,6848,-4116,-2038,1745147441622734657
287968,-3,-23,-2,6832,-4124,-2048,1745147441622734657
288160,-6,-20,3,6841,-4130,-2035,1745147441622734657
288352,-7,-17,6,6841,-4132,-2033,1745147441622734657
288544,-9,-14,8,6858,-4109,-2060,1745147441622734657
288736,-13,-11,7,6867,-4062,-2098,1745147441622734657
288928,-19,-7,6,6865,-4018,-2112,1745147441622734657
289120,-23,-6,5,6874,-3998,-2040,1745147441622734657
289312,-21,-12,5,6913,-4078,-1970,1745147441622734657
289504,-12,-20,5,6923,-4139,-1977,1745147441622734657
289696,-1,-25,5,6920,-4157,-2033,1745147441622734657
289888,2,-24,1,6893,-4093,-2097,1745147441674524132
290080,-1,-21,-3,6844,-4067,-2115,1745147441674524132
290272,-5,-18,-5,6807,-4024,-2125,1745147441674524132
290464,-4,-15,-3,6815,-3990,-2138,1745147441674524132
290656,0,-14,2,6816,-4008,-2126,1745147441674524132
290848,5,-14,5,6822,-4021,-2139,1745147441674524132
291040,10,-12,4,6856,-4050,-2129,1745147441674524132
291232,11,-13,0,6882,-4068,-2124,1745147441674524132
291424,11,-15,-4,6885,-4069,-2096,1745147441674524132
291616,9,-19,-9,6889,-4089,-2101,1745147441674524132
291808,9,-23,-11,6870,-4078,-2107,1745147441674524132
292000,9,-25,-12,6882,-4053,-2120,1745147441674524132
292192,6,-26,-15,6869,-4057,-2124,1745147441739949836
292384,3,-25,-17,6867,-4055,-2133,1745147441739949836
292576,3,-25,-19,6846,-4029,-2151,1745147441739949836
292768,0,-26,-20,6862,-4041,-2145,1745147441739949836
292960,-3,-30,-21,6898,-4068,-2101,1745147441739949836
293152,-3,-35,-21,6899,-4095,-2104,1745147441739949836
293344,2,-38,-20,6871,-4089,-2119,1745147441739949836
293536,3,-36,-19,6847,-4052,-2145,1745147441739949836
293728,2,-32,-20,6824,-4033,-2166,1745147441739949836
293920,0,-32,-23,6835,-4033,-2149,1745147441739949836
294112,1,-35,-25,6875,-4070,-2125,1745147441739949836
294304,4,-39,-25,6889,-4107,-2118,1745147441739949836
294496,4,-42,-25,6892,-4119,-2118,1745147441797047492
294880,-10,-43,-31,6865,-4104,-2159,1745147441797047492
295072,-13,-43,-30,6857,-4097,-2182,1745147441797047492
295264,-13,-42,-29,6859,-4065,-2192,1745147441797047492
295456,-13,-39,-27,6876,-4037,-2241,1745147441797047492
295648,-13,-38,-25,6887,-4009,-2269,1745147441797047492
295840,-13,-39,-25,6907,-4020,-2274,1745147441797047492
296032,-11,-40,-25,6930,-4024,-2303,1745147441797047492
296224,-11,-42,-27,6920,-4024,-2337,1745147441797047492
296416,-11,-43,-31,6920,-4020,-2351,1745147441797047492
296608,-14,-45,-36,6937,-4033,-2357,1745147441797047492
296800,-17,-48,-42,6919,-4017,-2388,1745147441797047492
296992,-21,-50,-49,6928,-4007,-2436,1745147441858575628
297184,-26,-52,-56,6895,-3978,-2491,1745147441858575628
297376,-33,-51,-63,6885,-3936,-2542,1745147441858575628
297568,-42,-52,-73,6895,-3903,-2597,1745147441858575628
297760,-54,-51,-82,6906,-3856,-2645,1745147441858575628
297952,-68,-51,-91,6940,-3821,-2686,1745147441858575628
298144,-86,-52,-101,7001,-3809,-2778,1745147441858575628
298336,-106,-55,-115,7056,-3789,-2887,1745147441858575628
298528,-131,-61,-134,7118,-3780,-3003,1745147441858575628
298720,-161,-66,-158,7125,-3756,-3195,1745147441858575628
298912,-201,-71,-192,7157,-3709,-3427,1745147441858575628
299104,-256,-72,-231,7147,-3645,-3651,1745147441858575628
299296,-321,-69,-275,7124,-3511,-3839,1745147441920331105
299488,-396,-59,-323,7102,-3335,-4039,1745147441920331105
299680,-486,-42,-374,7125,-3104,-4314,1745147441920331105
299872,-587,-24,-433,7167,-2841,-4584,1745147441920331105
300064,-697,-9,-500,7253,-2556,-4812,1745147441920331105
300256,-813,3,-578,7373,-2302,-4946,1745147441920331105
300448,-928,9,-670,7511,-2039,-5026,1745147441920331105
300640,-1039,10,-772,7601,-1754,-5117,1745147441920331105
300832,-1151,5,-889,7710,-1466,-5319,1745147441920331105
301024,-1265,0,-1020,7872,-1263,-5516,1745147441920331105
301216,-1368,-7,-1162,8085,-1051,-5628,1745147441920331105
301408,-1461,-25,-1318,8369,-903,-5716,1745147441920331105
301600,-1535,-53,-1490,8703,-746,-5728,1745147441975400081
301792,-1581,-86,-1680,9062,-543,-5653,1745147441975400081
301984,-1597,-131,-1889,9475,-323,-5469,1745147441975400081
302176,-1585,-203,-2120,10058,-129,-5377,1745147441975400081
302368,-1541,-322,-2370,10695,74,-5227,1745147441975400081
302560,-1462,-478,-2636,11354,340,-5057,1745147441975400081
302752,-1347,-673,-2899,12031,652,-4907,1745147441975400081
302944,-1203,-903,-3161,12539,1118,-4775,1745147441975400081
303136,-1041,-1138,-3407,12852,1724,-4842,1745147441975400081
303328,-883,-1384,-3619,13099,2353,-4876,1745147441975400081
303520,-722,-1623,-3785,13220,2990,-4863,1745147441975400081
303712,-575,-1868,-3907,13258,3512,-4867,1745147441975400081
303904,-425,-2108,-3977,13212,3976,-4973,1745147442037216183
304096,-286,-2340,-4011,13188,4239,-5058,1745147442037216183
304288,-144,-2542,-4002,13108,4356,-5112,1745147442037216183
304480,2,-2709,-3926,13093,4319,-5015,1745147442037216183
304672,130,-2876,-3838,13085,4317,-4971,1745147442037216183
304864,235,-3035,-3746,12961,4275,-4953,1745147442037216183
305056,334,-3185,-3654,12773,4195,-4933,1745147442037216183
305248,421,-3318,-3577,12525,4087,-4853,1745147442037216183
305440,490,-3445,-3522,12232,3872,-4827,1745147442037216183
305632,539,-3561,-3490,11935,3545,-4838,1745147442037216183
305824,573,-3670,-3501,11607,3103,-4805,1745147442037216183
306016,598,-3768,-3559,11166,2850,-4855,1745147442037216183
306208,604,-3846,-3610,10572,2488,-4790,1745147442094512066
306400,610,-3946,-3683,9927,2246,-4793,1745147442094512066
306592,611,-4051,-3766,9400,2201,-4936,1745147442094512066
306784,566,-4013,-3748,9350,2874,-6770,1745147442094512066
306976,378,-3764,-3673,8501,2324,-5441,1745147442094512066
307168,308,-3706,-3693,8090,2328,-5294,1745147442094512066
307360,255,-3666,-3701,7791,2272,-5456,1745147442094512066
307552,190,-3597,-3719,7396,2235,-5446,1745147442094512066
307744,137,-3522,-3741,6949,2267,-5528,1745147442094512066
307936,88,-3424,-3757,6526,2343,-5517,1745147442094512066
308128,57,-3315,-3764,6228,2452,-5415,1745147442094512066
308320,52,-3201,-3763,6038,2629,-5325,1745147442094512066
308512,77,-3101,-3759,5927,2866,-5273,1745147442147379083
308704,121,-3010,-3757,5838,3099,-5117,1745147442147379083
308896,186,-2938,-3754,5740,3294,-5044,1745147442147379083
309088,275,-2872,-3742,5559,3444,-5005,1745147442147379083
309280,388,-2810,-3719,5360,3517,-4954,1745147442147379083
309472,518,-2753,-3684,5155,3584,-4937,1745147442147379083
309664,641,-2669,-3636,4612,3567,-5053,1745147442147379083
309856,770,-2532,-3558,4154,3314,-4741,1745147442147379083
310048,938,-2526,-3485,4497,2967,-4917,1745147442147379083
310240,1031,-2465,-3497,4976,2659,-5144,1745147442147379083
310432,1102,-2389,-3574,4889,2462,-4951,1745147442147379083
310624,1183,-2317,-3624,4378,2453,-4683,1745147442147379083
310816,1293,-2274,-3546,3805,2465,-4766,1745147442212735257
311008,1394,-2204,-3376,3494,2252,-4844,1745147442212735257
311200,1484,-2144,-3225,3750,1976,-4931,1745147442212735257
311392,1532,-2111,-3155,4023,1799,-5022,1745147442212735257
311584,1546,-2061,-3146,4115,1734,-5025,1745147442212735257
311776,1551,-2013,-3150,4073,1670,-4921,1745147442212735257
311968,1561,-1972,-3138,3997,1491,-4813,1745147442212735257
312160,1587,-1947,-3107,3919,1290,-4814,1745147442212735257
312352,1619,-1928,-3067,3798,1110,-4780,1745147442212735257
312544,1642,-1916,-3030,3672,911,-4790,1745147442212735257
312736,1640,-1901,-2996,3516,691,-4751,1745147442212735257
312928,1631,-1902,-2957,3293,500,-4789,1745147442212735257
313120,1610,-1897,-2919,3114,388,-4822,1745147442270157441
313312,1573,-1881,-2874,2981,255,-4896,1745147442270157441
313504,1520,-1833,-2817,2831,131,-5008,1745147442270157441
313696,1452,-1763,-2755,2655,29,-5031,1745147442270157441
313888,1378,-1703,-2682,2426,-82,-5072,1745147442270157441
314080,1311,-1658,-2609,2235,-205,-5223,1745147442270157441
314272,1239,-1623,-2535,2133,-330,-5264,1745147442270157441
314464,1155,-1601,-2473,2089,-450,-5450,1745147442270157441
314656,1061,-1567,-2409,2057,-610,-5781,1745147442270157441
314848,971,-1480,-2331,1970,-820,-5981,1745147442270157441
315040,886,-1381,-2239,1948,-1058,-5681,1745147442270157441
315232,793,-1349,-2156,2341,-1585,-5539,1745147442270157441
315424,697,-1399,-2091,2489,-1674,-6018,1745147442329816531
315616,566,-1334,-2032,2149,-1528,-6254,1745147442329816531
315808,457,-1273,-2003,2217,-1409,-5428,1745147442329816531
316000,466,-1244,-2000,2101,-912,-5341,1745147442329816531
316192,475,-1181,-1989,1784,-334,-5943,1745147442329816531
316384,390,-1095,-1943,1624,-169,-6108,1745147442329816531
316576,307,-994,-1845,1376,-161,-6378,1745147442329816531
316768,241,-925,-1724,1151,-228,-6550,1745147442329816531
316960,217,-856,-1626,899,-72,-6701,1745147442329816531
317152,182,-765,-1568,872,-108,-6608,1745147442329816531
317344,157,-686,-1509,924,-270,-7121,1745147442329816531
317536,61,-624,-1420,1176,-625,-7044,1745147442329816531
317728,3,-498,-1322,1404,-733,-7022,1745147442387923240
317920,25,-398,-1254,1352,-352,-6800,1745147442387923240
318112,91,-338,-1243,1394,257,-6699,1745147442387923240
318304,143,-301,-1257,1798,766,-6722,1745147442387923240
318496,173,-265,-1229,2226,884,-6748,1745147442387923240
318688,186,-244,-1156,2415,721,-6636,1745147442387923240
318880,206,-263,-1085,2337,506,-6492,1745147442387923240
319072,218,-315,-1048,2105,231,-6557,1745147442387923240
319264,206,-360,-1046,1801,-24,-6781,1745147442387923240
319456,163,-364,-1057,1501,-304,-6970,1745147442387923240
319648,88,-329,-1048,1227,-511,-7139,1745147442387923240
319840,-1,-283,-1017,956,-653,-7117,1745147442387923240
320032,-90,-242,-976,728,-584,-7174,1745147442447176709
320224,-173,-217,-940,603,-464,-7231,1745147442447176709
320416,-226,-156,-894,697,-44,-7890,1745147442447176709
320608,-292,6,-809,544,137,-7531,1745147442447176709
320800,-334,87,-756,630,349,-7554,1745147442447176709
320992,-341,146,-712,683,569,-7614,1745147442447176709
321184,-332,209,-668,786,692,-7580,1745147442447176709
321376,-293,257,-623,849,760,-7541,1745147442447176709
321568,-238,302,-578,873,805,-7451,1745147442447176709
321760,-172,339,-533,854,754,-7385,1745147442447176709
321952,-98,363,-497,870,646,-7347,1745147442447176709
322144,-20,385,-470,847,531,-7331,1745147442447176709
322336,51,402,-451,846,394,-7299,1745147442504306864
322528,108,423,-443,823,258,-7275,1745147442504306864
322720,150,447,-440,786,169,-7265,1745147442504306864
322912,174,472,-431,743,118,-7226,1745147442504306864
323104,183,489,-415,745,61,-7216,1745147442504306864
323296,187,506,-390,748,58,-7272,1745147442504306864
323488,180,532,-360,772,93,-7272,1745147442504306864
323680,161,550,-331,867,110,-7268,1745147442504306864
323872,126,560,-309,975,74,-7258,1745147442504306864
324064,91,557,-292,1103,34,-7250,1745147442504306864
324256,59,544,-278,1198,-3,-7266,1745147442504306864
324448,28,531,-263,1221,5,-7288,1745147442504306864
324640,-6,516,-246,1238,73,-7313,1745147442564086475
324832,-41,506,-225,1199,133,-7351,1745147442564086475
325024,-76,494,-206,1216,246,-7406,1745147442564086475
325216,-112,484,-186,1230,249,-7431,1745147442564086475
325408,-137,472,-166,1250,313,-7493,1745147442564086475
325600,-153,461,-147,1267,337,-7514,1745147442564086475
325792,-169,457,-129,1276,354,-7503,1745147442564086475
325984,-183,457,-111,1247,377,-7529,1745147442564086475
326176,-195,463,-94,1175,408,-7499,1745147442564086475
326368,-199,473,-75,1109,470,-7426,1745147442564086475
326560,-195,483,-59,1066,496,-7387,1745147442564086475
326752,-187,492,-48,1065,502,-7306,1745147442564086475
326944,-180,503,-39,1003,482,-7205,1745147442621015642
327136,-179,517,-26,1000,421,-7105,1745147442621015642
327328,-178,531,-3,943,419,-6962,1745147442621015642
327520,-176,550,26,848,388,-6888,1745147442621015642
327712,-173,572,54,791,386,-6793,1745147442621015642
327904,-175,596,78,702,351,-6727,1745147442621015642
328096,-176,621,99,637,338,-6620,1745147442621015642
328288,-176,651,119,593,339,-6516,1745147442621015642
328480,-160,685,138,580,374,-6486,1745147442621015642
328672,-115,717,164,588,533,-6576,1745147442621015642
328864,-28,740,197,567,816,-6836,1745147442621015642
329056,104,752,220,643,1377,-7169,1745147442621015642
329248,262,720,212,974,1866,-7640,1745147442679885313
329440,475,648,165,1554,2410,-8196,1745147442679885313
329632,725,545,104,2090,2848,-8398,1745147442679885313
329824,962,401,41,2390,3065,-8520,1745147442679885313
330016,1120,253,-16,2408,3019,-8311,1745147442679885313
330208,1203,116,-55,2484,2392,-7738,1745147442679885313
330400,1119,-173,-89,3283,876,-9960,1745147442679885313
330592,804,-513,-70,4060,-277,-12006,1745147442679885313
330784,332,-768,-22,3637,-1111,-11266,1745147442679885313
330976,32,-925,24,2104,-530,-11112,1745147442679885313
331168,-105,-932,84,362,119,-10910,1745147442679885313
331360,-158,-843,88,-999,411,-10894,1745147442679885313
331552,-180,-693,58,-1814,267,-10379,1745147442739263260
331744,-164,-530,34,-2023,-57,-9706,1745147442739263260
331936,-125,-364,32,-1853,-256,-9319,1745147442739263260
332128,-100,-218,48,-1418,-231,-9064,1745147442739263260
332320,-115,-108,70,-852,9,-8719,1745147442739263260
332512,-170,-42,70,-302,352,-8367,1745147442739263260
332704,-227,-26,50,163,698,-8081,1745147442739263260
332896,-263,-45,24,440,1029,-7894,1745147442739263260
333088,-285,-81,11,524,1292,-7753,1745147442739263260
333280,-292,-116,9,427,1433,-7608,1745147442739263260
333472,-263,-152,19,242,1520,-7581,1745147442739263260
333664,-217,-177,33,86,1511,-7581,1745147442739263260
333856,-164,-189,36,-58,1473,-7662,1745147442796450758
334048,-118,-189,28,-136,1406,-7767,1745147442796450758
334240,-76,-180,13,-140,1357,-7911,1745147442796450758
334432,-42,-161,-1,-142,1356,-8024,1745147442796450758
334624,-19,-141,-12,-98,1406,-8178,1745147442796450758
334816,-5,-122,-15,-53,1434,-8263,1745147442796450758
335008,15,-110,-11,41,1430,-8361,1745147442796450758
335200,42,-104,-3,122,1463,-8465,1745147442796450758
335392,67,-98,6,193,1449,-8561,1745147442796450758
335584,81,-99,9,250,1428,-8619,1745147442796450758
335776,86,-100,4,286,1354,-8637,1745147442796450758
335968,85,-103,-4,260,1261,-8607,1745147442796450758
336160,87,-109,-11,244,1119,-8554,1745147442856380471
336352,88,-108,-18,237,1019,-8527,1745147442856380471
336544,83,-100,-24,179,929,-8488,1745147442856380471
336736,71,-88,-30,91,891,-8475,1745147442856380471
336928,53,-75,-34,32,871,-8433,1745147442856380471
337120,35,-61,-36,-40,871,-8366,1745147442856380471
337312,19,-50,-33,-63,858,-8297,1745147442856380471
337504,1,-42,-27,-71,899,-8251,1745147442856380471
337696,-20,-33,-24,-67,919,-8182,1745147442856380471
337888,-37,-24,-24,-67,986,-8129,1745147442856380471
338080,-45,-18,-27,-73,1070,-8085,1745147442856380471
338272,-47,-12,-29,-73,1153,-8053,1745147442856380471
338464,-42,-10,-34,-45,1237,-8043,1745147442913570834
338656,-33,-11,-37,-34,1282,-8040,1745147442913570834
338848,-22,-14,-37,-12,1292,-8013,1745147442913570834
339040,-8,-22,-35,20,1273,-8008,1745147442913570834
339232,4,-29,-33,31,1259,-8022,1745147442913570834
339424,16,-36,-31,14,1232,-8007,1745147442913570834
339616,25,-41,-30,8,1193,-8031,1745147442913570834
339808,28,-43,-30,-14,1135,-8044,1745147442913570834
340000,29,-48,-29,-35,1088,-8039,1745147442913570834
340192,29,-49,-26,-52,1054,-8060,1745147442913570834
340384,29,-49,-24,-47,1045,-8081,1745147442913570834
340576,25,-46,-21,-48,1031,-8105,1745147442913570834
340768,20,-44,-20,-63,1042,-8116,1745147442973548568
340960,15,-41,-20,-57,1053,-8121,1745147442973548568
341152,9,-41,-19,-54,1060,-8127,1745147442973548568
341344,1,-42,-18,-46,1053,-8114,1745147442973548568
341536,-5,-44,-16,-56,1063,-8117,1745147442973548568
341728,-11,-43,-15,-73,1068,-8113,1745147442973548568
341920,-14,-43,-16,-62,1084,-8095,1745147442973548568
342112,-17,-43,-17,-71,1077,-8097,1745147442973548568
342304,-21,-44,-19,-68,1057,-8080,1745147442973548568
342496,-24,-42,-20,-59,1040,-8075,1745147442973548568
342688,-27,-39,-20,-77,1053,-8087,1745147442973548568
342880,-25,-40,-19,-82,1070,-8074,1745147442973548568
343072,-23,-41,-18,-69,1082,-8077,1745147443031841993
343264,-23,-44,-17,-63,1099,-8051,1745147443031841993
343456,-22,-46,-15,-50,1098,-8034,1745147443031841993
343648,-23,-48,-12,-51,1086,-8023,1745147443031841993
343840,-25,-50,-10,-54,1099,-8018,1745147443031841993
344032,-27,-50,-10,-73,1121,-7987,1745147443031841993
344224,-30,-50,-11,-83,1126,-8019,1745147443031841993
344416,-31,-46,-13,-64,1116,-8016,1745147443031841993
344608,-28,-48,-14,-70,1132,-8029,1745147443031841993
344800,-24,-49,-12,-70,1122,-8049,1745147443031841993
344992,-22,-51,-11,-47,1112,-8066,1745147443031841993
345184,-22,-53,-10,-35,1089,-8070,1745147443031841993
345376,-23,-55,-11,-47,1061,-8081,1745147443091661082
345568,-25,-56,-13,-83,1056,-8078,1745147443091661082
345760,-28,-56,-13,-94,1051,-8094,1745147443091661082
345952,-32,-54,-16,-130,1031,-8108,1745147443091661082
346144,-39,-50,-16,-127,1031,-8116,1745147443091661082
346336,-44,-47,-16,-140,1032,-8119,1745147443091661082
346528,-49,-45,-14,-133,1074,-8114,1745147443091661082
346720,-55,-42,-12,-150,1090,-8120,1745147443091661082
346912,-60,-39,-10,-152,1121,-8122,1745147443091661082
347104,-62,-37,-8,-167,1165,-8096,1745147443091661082
347296,-60,-35,-5,-170,1215,-8072,1745147443091661082
347488,-55,-34,-3,-178,1249,-8046,1745147443091661082
347680,-45,-34,-3,-153,1272,-8017,1745147443146753600
347872,-36,-35,-2,-163,1279,-7996,1745147443146753600
348064,-25,-36,-2,-143,1276,-7970,1745147443146753600
348256,-13,-39,-2,-150,1240,-7976,1745147443146753600
348448,-1,-41,-3,-142,1213,-7999,1745147443146753600
348640,9,-42,-3,-169,1186,-8032,1745147443146753600
348832,17,-40,-1,-172,1164,-8072,1745147443146753600
349024,21,-40,-2,-174,1116,-8092,1745147443146753600
349216,22,-39,-3,-175,1086,-8104,1745147443146753600
349408,19,-38,-3,-185,1054,-8096,1745147443146753600
349600,15,-35,-2,-181,1037,-8113,1745147443146753600
349792,8,-30,0,-187,1039,-8119,1745147443146753600
349984,2,-27,1,-200,1043,-8120,1745147443207147423
350176,-4,-21,1,-205,1083,-8131,1745147443207147423
350368,-10,-16,0,-179,1094,-8132,1745147443207147423
350560,-15,-11,1,-191,1123,-8126,1745147443207147423
350752,-20,-6,0,-161,1133,-8114,1745147443207147423
350944,-23,-2,1,-156,1140,-8117,1745147443207147423
351136,-23,2,0,-170,1173,-8111,1745147443207147423
351328,-17,4,-1,-189,1197,-8095,1745147443207147423
351520,-9,3,-2,-180,1199,-8073,1745147443207147423
351712,-3,4,-5,-170,1194,-8049,1745147443207147423
351904,3,5,-8,-161,1162,-8052,1745147443207147423
352096,7,4,-9,-167,1112,-8045,1745147443207147423
352288,8,4,-10,-164,1089,-8045,1745147443265307152
352480,8,5,-12,-194,1075,-8042,1745147443265307152
352672,7,9,-15,-208,1054,-8060,1745147443265307152
352864,4,13,-15,-216,1042,-8073,1745147443265307152
353056,0,17,-16,-204,1050,-8082,1745147443265307152
353248,-3,20,-15,-199,1065,-8089,1745147443265307152
353440,-5,25,-13,-186,1084,-8100,1745147443265307152
353632,-7,30,-12,-164,1097,-8111,1745147443265307152
353824,-7,33,-11,-153,1127,-8105,1745147443265307152
354016,-7,37,-10,-128,1153,-8102,1745147443265307152
354208,-6,40,-9,-130,1159,-8098,1745147443265307152
354400,-5,43,-9,-122,1188,-8102,1745147443265307152
354592,-2,47,-8,-111,1204,-8096,1745147443324915462
354784,2,48,-8,-113,1206,-8089,1745147443324915462
354976,6,50,-8,-113,1207,-8090,1745147443324915462
355168,9,50,-7,-128,1202,-8061,1745147443324915462
355360,11,49,-6,-121,1174,-8051,1745147443324915462
355552,13,47,-6,-131,1148,-8030,1745147443324915462
355744,15,46,-7,-156,1137,-8028,1745147443324915462
355936,15,45,-8,-171,1096,-8017,1745147443324915462
356128,16,44,-8,-190,1087,-8026,1745147443324915462
356320,18,44,-8,-207,1056,-8033,1745147443324915462
356512,17,45,-7,-212,1032,-8038,1745147443324915462
356704,16,44,-4,-210,1034,-8040,1745147443324915462
356896,11,46,-1,-188,1025,-8069,1745147443380640161
357088,7,49,2,-193,1025,-8070,1745147443380640161
357280,2,52,8,-152,1060,-8089,1745147443380640161
357472,-3,53,12,-144,1096,-8072,1745147443380640161
357664,-9,54,16,-108,1113,-8057,1745147443380640161
357856,-12,53,20,-81,1157,-8042,1745147443380640161
358048,-13,52,23,-50,1182,-8026,1745147443380640161
358240,-13,48,26,-28,1210,-8007,1745147443380640161
358432,-11,44,27,-15,1227,-8000,1745147443380640161
358624,-7,39,28,-43,1231,-7990,1745147443380640161
358816,-2,33,27,-53,1216,-7984,1745147443380640161
359008,3,26,23,-92,1193,-7971,1745147443380640161
359200,9,21,22,-109,1161,-7953,1745147443440856538
359392,13,15,21,-116,1097,-7937,1745147443440856538
359584,14,10,21,-130,1062,-7942,1745147443440856538
359776,12,7,22,-136,1015,-7945,1745147443440856538
359968,10,6,23,-120,1001,-7966,1745147443440856538
360160,6,6,25,-108,1001,-7991,1745147443440856538
360352,3,5,27,-106,1027,-8015,1745147443440856538
360544,-3,11,32,-82,1035,-8026,1745147443440856538
360736,-4,14,36,-59,1071,-8052,1745147443440856538
360928,-1,9,37,-61,1129,-8060,1745147443440856538
361120,1,6,34,-44,1174,-8051,1745147443440856538
361312,4,3,32,-50,1184,-8062,1745147443440856538
361504,8,-1,32,-59,1192,-8066,1745147443498946320
361696,10,-6,35,-85,1193,-8067,1745147443498946320
361888,12,-13,33,-84,1166,-8047,1745147443498946320
362080,14,-17,32,-104,1138,-8031,1745147443498946320
362272,14,-19,34,-130,1134,-8049,1745147443498946320
362464,12,-21,37,-156,1104,-8044,1745147443498946320
362656,10,-21,37,-162,1093,-8047,1745147443498946320
362848,9,-20,39,-157,1069,-8051,1745147443498946320
363040,8,-19,41,-145,1082,-8051,1745147443498946320
363232,5,-18,43,-121,1071,-8048,1745147443498946320
363424,2,-19,43,-111,1092,-8041,1745147443498946320
363616,0,-19,42,-98,1095,-8028,1745147443498946320
363808,0,-20,41,-83,1098,-8034,1745147443557681096
364000,0,-23,41,-75,1100,-8029,1745147443557681096
364192,2,-23,41,-76,1103,-8033,1745147443557681096
364384,3,-24,40,-92,1079,-8039,1745147443557681096
364576,5,-25,38,-98,1084,-8039,1745147443557681096
364768,6,-27,36,-99,1055,-8042,1745147443557681096
364960,6,-28,34,-126,1033,-8026,1745147443557681096
365152,6,-27,31,-157,1024,-8024,1745147443557681096
365344,4,-26,32,-155,1028,-8010,1745147443557681096
365536,2,-25,30,-164,1012,-8012,1745147443557681096
365728,3,-27,27,-164,1027,-8010,1745147443557681096
365920,6,-25,24,-179,1030,-8025,1745147443557681096
366112,9,-21,22,-159,1031,-8036,1745147443614621305
366304,8,-17,22,-151,1034,-8073,1745147443614621305
366496,8,-16,21,-132,1073,-8058,1745147443614621305
366688,9,-17,19,-137,1076,-8063,1745147443614621305
366880,9,-17,15,-131,1093,-8079,1745147443614621305
367072,7,-18,12,-133,1109,-8077,1745147443614621305
367264,7,-18,9,-135,1104,-8080,1745147443614621305
367456,7,-15,5,-150,1112,-8078,1745147443614621305
367648,6,-15,2,-183,1098,-8071,1745147443614621305
367840,7,-13,2,-187,1106,-8063,1745147443614621305
368032,9,-10,2,-207,1102,-8054,1745147443614621305
368224,10,-7,1,-199,1084,-8055,1745147443614621305
368416,9,-4,0,-197,1072,-8079,1745147443674954296
368608,7,-2,-2,-178,1054,-8064,1745147443674954296
368800,7,0,-2,-161,1047,-8071,1745147443674954296
368992,7,3,-3,-159,1038,-8079,1745147443674954296
369184,6,6,-4,-135,1053,-8085,1745147443674954296
369376,5,8,-7,-130,1048,-8094,1745147443674954296
369568,4,10,-11,-125,1054,-8089,1745147443674954296
369760,4,11,-13,-111,1052,-8086,1745147443674954296
369952,4,13,-15,-115,1065,-8091,1745147443674954296
370144,4,13,-18,-142,1062,-8090,1745147443674954296
370336,3,14,-21,-148,1075,-8075,1745147443674954296
370528,2,14,-24,-149,1061,-8082,1745147443674954296
370720,1,17,-24,-176,1052,-8076,1745147443733328762
370912,-1,18,-24,-194,1048,-8076,1745147443733328762
371104,-3,21,-24,-163,1044,-8060,1745147443733328762
371296,-4,22,-25,-156,1050,-8061,1745147443733328762
371488,-6,23,-25,-144,1044,-8041,1745147443733328762
371680,-6,25,-26,-142,1064,-8054,1745147443733328762
371872,-5,25,-28,-114,1075,-8061,1745147443733328762
372064,-4,25,-29,-122,1069,-8055,1745147443733328762
372256,-4,23,-31,-123,1068,-8030,1745147443733328762
372448,-2,19,-32,-126,1036,-8003,1745147443733328762
372640,0,18,-32,-134,1055,-8018,1745147443733328762
372832,1,16,-33,-153,1041,-8012,1745147443733328762
373024,0,16,-35,-160,1042,-8018,1745147443790772821
373216,-1,15,-36,-167,1033,-8030,1745147443790772821
373408,-3,16,-36,-164,1027,-8034,1745147443790772821
373600,-5,16,-35,-148,1044,-8037,1745147443790772821
373792,-7,14,-34,-145,1054,-8032,1745147443790772821
373984,-9,13,-34,-133,1068,-8043,1745147443790772821
374176,-10,10,-34,-110,1068,-8046,1745147443790772821
374368,-12,9,-34,-118,1080,-8068,1745147443790772821
374560,-13,10,-34,-121,1089,-8074,1745147443790772821
374752,-13,10,-35,-130,1098,-8080,1745147443790772821
374944,-11,11,-35,-110,1123,-8074,1745147443790772821
375136,-10,10,-35,-108,1088,-8031,1745147443790772821
375328,-31,18,-37,-193,845,-7997,1745147443850253319
375520,-51,26,-36,-208,788,-7992,1745147443850253319
375712,-64,30,-30,-175,844,-7999,1745147443850253319
375904,-80,38,-26,-142,913,-8003,1745147443850253319
376096,-83,35,-27,-94,1089,-8029,1745147443850253319
376288,-85,31,-31,-55,1128,-8011,1745147443850253319
376480,-84,23,-35,-7,1171,-7974,1745147443850253319
376672,-66,4,-37,43,1286,-7988,1745147443850253319
376864,-43,-13,-36,52,1424,-7998,1745147443850253319
377056,-13,-35,-37,54,1487,-8006,1745147443850253319
377248,19,-55,-40,33,1479,-7986,1745147443850253319
377440,48,-75,-44,-2,1413,-7977,1745147443850253319
377632,73,-89,-45,-49,1336,-7997,1745147443908364924
377824,89,-101,-39,-75,1282,-7979,1745147443908364924
378016,90,-111,-26,-85,1128,-8001,1745147443908364924
378208,72,-108,-17,-122,956,-8080,1745147443908364924
378400,52,-91,-29,-250,895,-7984,1745147443908364924
378592,50,-84,-36,-303,889,-8002,1745147443908364924
378784,45,-78,-35,-276,933,-8007,1745147443908364924
378976,43,-75,-32,-219,1051,-8002,1745147443908364924
379168,44,-75,-29,-186,1130,-8018,1745147443908364924
379360,50,-78,-29,-169,1172,-8018,1745147443908364924
379552,61,-84,-30,-152,1203,-8033,1745147443908364924
379744,74,-88,-32,-165,1228,-8055,1745147443908364924
379936,84,-91,-34,-176,1194,-8068,1745147443967006836
380128,90,-92,-34,-202,1132,-8067,1745147443967006836
380320,93,-91,-31,-217,1101,-8073,1745147443967006836
380512,95,-88,-27,-240,1074,-8072,1745147443967006836
380704,96,-86,-22,-249,1016,-8086,1745147443967006836
380896,91,-81,-19,-273,957,-8087,1745147443967006836
381088,81,-73,-17,-300,897,-8108,1745147443967006836
381280,70,-65,-15,-307,856,-8115,1745147443967006836
381472,57,-57,-12,-304,875,-8097,1745147443967006836
381664,45,-50,-9,-302,881,-8077,1745147443967006836
381856,37,-45,-7,-265,917,-8060,1745147443967006836
382048,30,-42,-6,-265,946,-8050,1745147443967006836
382240,23,-40,-6,-271,961,-8050,1745147444025451771
382432,17,-39,-6,-252,945,-8054,1745147444025451771
382624,11,-40,-5,-233,955,-8064,1745147444025451771
382816,7,-42,-4,-227,976,-8045,1745147444025451771
383008,5,-45,-3,-194,1017,-8064,1745147444025451771
383200,4,-50,-2,-165,1026,-8072,1745147444025451771
383392,1,-56,-4,-156,1002,-8085,1745147444025451771
383584,-8,-59,-8,-179,902,-8112,1745147444025451771
383776,-18,-59,-11,-242,873,-8121,1745147444025451771
383968,-28,-54,-14,-312,882,-8138,1745147444025451771
384160,-35,-47,-15,-371,911,-8149,1745147444025451771
384352,-41,-35,-13,-397,923,-8140,1745147444025451771
384544,-47,-25,-9,-389,941,-8138,1745147444084243786
384736,-51,-16,-4,-372,961,-8136,1745147444084243786
384928,-55,-8,-2,-374,995,-8117,1745147444084243786
385120,-55,-1,-1,-338,1043,-8095,1745147444084243786
385312,-54,4,-2,-335,1053,-8101,1745147444084243786
385504,-51,8,-3,-311,1084,-8097,1745147444084243786
385696,-47,10,-2,-297,1107,-8089,1745147444084243786
385888,-41,9,0,-260,1123,-8068,1745147444084243786
386080,-35,7,0,-238,1120,-8054,1745147444084243786
386272,-29,4,1,-238,1104,-8040,1745147444084243786
386464,-25,1,-1,-248,1076,-8026,1745147444084243786
386656,-21,-2,-2,-265,1055,-8009,1745147444084243786
386848,-17,-3,-2,-297,1071,-7997,1745147444142411432
387040,-13,-4,-1,-308,1042,-7971,1745147444142411432
387232,-11,-4,-1,-301,1041,-7964,1745147444142411432
387424,-8,-7,0,-253,1055,-7925,1745147444142411432
387616,-2,-12,4,-210,1115,-7923,1745147444142411432
387808,6,-19,6,-202,1131,-7938,1745147444142411432
388000,14,-25,5,-228,1181,-7934,1745147444142411432
388192,23,-31,2,-241,1174,-7926,1745147444142411432
388384,26,-36,-2,-255,1096,-7871,1745147444142411432
388576,26,-42,0,-279,1025,-7810,1745147444142411432
388768,34,-49,5,-284,1054,-7774,1745147444142411432
388960,45,-59,9,-224,1065,-7798,1745147444142411432
389152,54,-74,9,-131,1075,-7817,1745147444200399496
389344,63,-89,6,-126,1086,-7859,1745147444200399496
389536,70,-100,2,-211,1078,-7906,1745147444200399496
389728,73,-109,-6,-288,982,-7949,1745147444200399496
389920,66,-109,-14,-367,816,-8029,1745147444200399496
390112,44,-99,-16,-485,601,-8103,1745147444200399496
390304,6,-76,-13,-593,428,-8181,1745147444200399496
390496,-39,-46,-7,-642,368,-8245,1745147444200399496
390688,-86,-7,1,-597,455,-8289,1745147444200399496
390880,-127,31,9,-542,546,-8326,1745147444200399496
391072,-165,60,15,-484,645,-8391,1745147444200399496
391264,-201,82,15,-421,745,-8402,1745147444200399496
391456,-224,98,15,-381,909,-8403,1745147444258965367
391648,-233,109,10,-360,1116,-8390,1745147444258965367
391840,-230,117,7,-282,1316,-8372,1745147444258965367
392032,-216,116,7,-185,1468,-8323,1745147444258965367
392224,-189,106,8,-134,1568,-8288,1745147444258965367
392416,-154,95,9,-140,1610,-8229,1745147444258965367
392608,-117,82,11,-136,1594,-8150,1745147444258965367
392800,-82,67,13,-121,1572,-8068,1745147444258965367
392992,-46,49,16,-133,1535,-8017,1745147444258965367
393184,-11,36,19,-215,1464,-7981,1745147444258965367
393376,13,27,16,-278,1303,-7951,1745147444258965367
393568,26,25,10,-323,1137,-7923,1745147444258965367
393760,33,25,9,-329,1070,-7905,1745147444317355563
393952,39,24,14,-308,1097,-7942,1745147444317355563
394144,43,22,18,-244,1090,-7969,1745147444317355563
394336,44,10,17,-147,1056,-8002,1745147444317355563
394528,44,5,14,-227,1045,-8033,1745147444317355563
394720,42,6,8,-317,1002,-8086,1745147444317355563
394912,37,12,2,-385,925,-8114,1745147444317355563
395104,25,24,-1,-409,860,-8118,1745147444317355563
395296,11,37,3,-405,859,-8091,1745147444317355563
395488,-1,51,7,-418,925,-7984,1745147444317355563
395680,-13,60,12,-361,883,-7913,1745147444317355563
395872,-34,62,13,-271,713,-7821,1745147444317355563
396064,-55,62,14,-236,756,-7731,1745147444375435397
396256,-62,56,18,-202,920,-7714,1745147444375435397
396448,-62,37,14,-61,1058,-7749,1745147444375435397
396640,-51,17,1,-20,1214,-7817,1745147444375435397
396832,-30,-3,-18,-37,1313,-7899,1745147444375435397
397024,-5,-21,-41,-71,1348,-7976,1745147444375435397
397216,14,-35,-58,-123,1331,-8045,1745147444375435397
397408,28,-46,-64,-196,1268,-8099,1745147444375435397
397600,38,-52,-61,-236,1233,-8128,1745147444375435397
397792,47,-54,-55,-296,1256,-8116,1745147444375435397
397984,58,-53,-45,-332,1269,-8115,1745147444375435397
398176,63,-53,-37,-336,1189,-8089,1745147444375435397
398368,61,-48,-29,-381,1097,-8088,1745147444433974966
398560,61,-38,-19,-427,1127,-8110,1745147444433974966
398752,64,-28,-10,-412,1179,-8147,1745147444433974966
398944,65,-21,-1,-348,1203,-8195,1745147444433974966
399136,69,-17,5,-285,1232,-8221,1745147444433974966
399328,76,-13,7,-256,1274,-8234,1745147444433974966
399520,86,-12,7,-226,1271,-8232,1745147444433974966
399712,96,-12,7,-217,1266,-8231,1745147444433974966
399904,104,-12,9,-221,1194,-8205,1745147444433974966
400096,110,-11,13,-273,1137,-8144,1745147444433974966
400288,114,-12,17,-285,1074,-8083,1745147444433974966
400480,117,-13,23,-254,1021,-8028,1745147444433974966
400672,112,-16,28,-254,940,-7973,1745147444492049488
400864,103,-14,30,-323,843,-7957,1745147444492049488
401056,92,-8,29,-386,788,-7958,1745147444492049488
401248,79,1,26,-415,790,-7984,1745147444492049488
401440,66,9,25,-401,776,-8023,1745147444492049488
401632,51,17,24,-366,792,-8049,1745147444492049488
401824,37,24,23,-345,790,-8070,1745147444492049488
402016,20,28,22,-319,781,-8076,1745147444492049488
402208,8,32,23,-322,863,-8013,1745147444492049488
402400,6,32,27,-295,983,-7989,1745147444492049488
402592,8,25,31,-209,997,-7931,1745147444492049488
402784,8,14,33,-179,981,-7869,1745147444492049488
462688,173,-58,8,-16,1362,-7378,1745147446070246165
462880,136,-171,5,-160,431,-8013,1745147446070246165
463072,35,-168,-3,-361,815,-7725,1745147446070246165
463264,48,-163,9,-377,761,-7837,1745147446070246165
463456,51,-196,3,-282,714,-7969,1745147446070246165
463648,13,-190,-4,-264,682,-8017,1745147446070246165
463840,3,-194,-10,-284,540,-8154,1745147446070246165
464032,-37,-198,-15,-412,521,-8272,1745147446070246165
464224,-76,-169,-16,-547,624,-8432,1745147446070246165
464416,-108,-152,-15,-572,649,-8557,1745147446070246165
464608,-154,-128,-16,-521,631,-8700,1745147446070246165
464800,-193,-85,-19,-511,765,-8720,1745147446070246165
464992,-217,-56,-18,-510,956,-8779,1745147446128862556
465184,-236,-24,-13,-436,1177,-8913,1745147446128862556
465376,-235,4,-4,-385,1398,-8969,1745147446128862556
465568,-221,19,3,-330,1539,-8939,1745147446128862556
465760,-184,38,9,-312,1778,-8889,1745147446128862556
465952,-126,48,21,-291,2015,-8708,1745147446128862556
466144,-60,45,29,-194,2094,-8502,1745147446128862556
466336,6,42,31,-151,2085,-8289,1745147446128862556
466528,79,42,28,-171,2113,-8084,1745147446128862556
466720,160,41,21,-273,2084,-7882,1745147446128862556
466912,187,22,10,-382,1446,-8123,1745147446128862556
467104,300,44,11,-431,2178,-7434,1745147446128862556
467296,389,55,7,-835,1575,-7593,1745147446187202336
467488,489,112,-35,-928,1045,-7901,1745147446187202336
467680,611,109,-73,-764,862,-8009,1745147446187202336
467872,673,147,-45,-607,373,-7869,1745147446187202336
468064,608,176,11,-404,84,-8044,1745147446187202336
468256,442,196,59,-194,-485,-7862,1745147446187202336
468448,-371,263,32,-1382,-5280,-7474,1745147446187202336
468640,-387,332,2,-1577,-3295,-7374,1745147446187202336
468832,-504,304,46,-1421,-1228,-7170,1745147446187202336
469024,-514,247,75,-723,569,-7972,1745147446187202336
469216,-516,309,31,-167,2146,-8415,1745147446187202336
469408,-464,367,5,360,2576,-7988,1745147446187202336
469600,-347,303,-58,798,2919,-7930,1745147446245471803
469792,-194,213,-80,1054,2924,-8068,1745147446245471803
469984,-73,111,-75,1002,2718,-8042,1745147446245471803
470176,11,33,-66,650,2384,-8023,1745147446245471803
470368,72,-16,-69,150,1979,-7995,1745147446245471803
470560,114,-38,-77,-263,1498,-7974,1745147446245471803
470752,131,-33,-78,-508,1031,-7958,1745147446245471803
470944,123,-17,-66,-576,636,-7971,1745147446245471803
471136,94,4,-47,-551,391,-7996,1745147446245471803
471328,56,27,-30,-508,328,-8022,1745147446245471803
471520,21,47,-23,-430,433,-8021,1745147446245471803
471712,-8,60,-21,-340,595,-8010,1745147446245471803
471904,-26,65,-23,-255,789,-8012,1745147446304329703
472096,-31,60,-25,-155,955,-8000,1745147446304329703
472288,-29,48,-27,-102,1072,-7986,1745147446304329703
472480,-21,34,-30,-84,1133,-7972,1745147446304329703
472672,-11,20,-35,-122,1164,-7965,1745147446304329703
472864,-1,8,-38,-166,1151,-7962,1745147446304329703
473056,8,0,-38,-238,1122,-7977,1745147446304329703
473248,13,-5,-35,-251,1076,-8006,1745147446304329703
473440,15,-6,-31,-273,1049,-8015,1745147446304329703
473632,14,-8,-25,-247,1007,-8019,1745147446304329703
473824,9,-11,-20,-221,972,-8033,1745147446304329703
474016,3,-13,-16,-210,963,-8023,1745147446304329703
474208,-2,-17,-13,-205,958,-8018,1745147446365370552
474400,-7,-21,-11,-191,975,-8011,1745147446365370552
474592,-11,-27,-11,-193,968,-7995,1745147446365370552
474784,-13,-33,-12,-228,964,-7985,1745147446365370552
474976,-14,-38,-13,-265,982,-7990,1745147446365370552
475168,-15,-41,-15,-299,1008,-7984,1745147446365370552
475360,-17,-44,-14,-321,1012,-7960,1745147446365370552
475552,-16,-49,-13,-309,1020,-7948,1745147446365370552
475744,-15,-53,-12,-293,1005,-7941,1745147446365370552
475936,-13,-58,-11,-268,985,-7946,1745147446365370552
476128,-12,-61,-9,-268,966,-7976,1745147446365370552
476320,-10,-63,-8,-269,962,-7992,1745147446365370552
476512,-9,-64,-8,-256,961,-8026,1745147446416150244
476704,-10,-65,-7,-256,959,-8058,1745147446416150244
476896,-12,-65,-7,-266,959,-8099,1745147446416150244
477088,-13,-64,-6,-252,959,-8119,1745147446416150244
477280,-15,-64,-5,-234,972,-8151,1745147446416150244
477472,-17,-61,-4,-248,985,-8161,1745147446416150244
477664,-20,-59,-4,-269,982,-8173,1745147446416150244
477856,-24,-56,-4,-267,988,-8160,1745147446416150244
478048,-28,-53,-4,-274,993,-8151,1745147446416150244
478240,-31,-49,-5,-288,994,-8122,1745147446416150244
478432,-33,-46,-7,-270,1007,-8108,1745147446416150244
478624,-33,-41,-9,-280,1022,-8084,1745147446416150244
478816,-33,-39,-10,-263,1035,-8084,1745147446479565759
479008,-33,-38,-14,-270,1013,-8072,1745147446479565759
479200,-31,-35,-19,-266,1007,-8068,1745147446479565759
479392,-29,-33,-23,-284,1009,-8057,1745147446479565759
479584,-28,-30,-27,-279,973,-8038,1745147446479565759
479776,-27,-28,-32,-304,968,-8069,1745147446479565759
479968,-24,-25,-37,-314,999,-8107,1745147446479565759
480160,-19,-23,-42,-341,1014,-8138,1745147446479565759
480352,-15,-20,-45,-338,1025,-8154,1745147446479565759
480544,-12,-17,-47,-372,1008,-8140,1745147446479565759
480736,-7,-11,-48,-372,976,-8110,1745147446479565759
480928,-4,-7,-48,-371,925,-8082,1745147446479565759
481120,-4,-2,-47,-366,872,-8070,1745147446537644968
481312,-7,4,-45,-379,853,-8054,1745147446537644968
481504,-12,10,-44,-366,858,-8062,1745147446537644968
481696,-18,18,-43,-376,890,-8049,1745147446537644968
481888,-24,25,-43,-367,912,-8052,1745147446537644968
482080,-27,31,-43,-323,949,-8052,1745147446537644968
482272,-28,33,-45,-292,990,-8074,1745147446537644968
482464,-27,36,-48,-299,1047,-8090,1745147446537644968
482656,-24,37,-52,-304,1117,-8120,1745147446537644968
482848,-20,36,-56,-332,1170,-8119,1745147446537644968
483040,-17,35,-60,-370,1191,-8110,1745147446537644968
483232,-13,34,-61,-380,1198,-8081,1745147446537644968
483424,-9,34,-57,-370,1164,-8040,1745147446596248912
483616,-7,33,-52,-356,1096,-8005,1745147446596248912
483808,-8,31,-46,-337,1076,-7983,1745147446596248912
484000,-10,30,-41,-324,1036,-7976,1745147446596248912
484192,-10,29,-37,-302,1022,-7959,1745147446596248912
484384,-9,28,-36,-282,1023,-7950,1745147446596248912
484576,-6,26,-33,-265,1033,-7962,1745147446596248912
484768,1,21,-29,-225,1007,-7993,1745147446596248912
484960,6,15,-26,-203,976,-8027,1745147446596248912
485152,11,7,-23,-216,962,-8050,1745147446596248912
485344,13,0,-22,-225,954,-8062,1745147446596248912
485536,10,-4,-21,-246,916,-8058,1745147446596248912
485728,5,-6,-22,-279,915,-8046,1745147446653486149
485920,-2,-6,-18,-296,928,-8022,1745147446653486149
486112,-10,-6,-13,-289,953,-8020,1745147446653486149
486304,-15,-5,-9,-282,991,-8019,1745147446653486149
486496,-19,-5,-7,-270,1061,-8023,1745147446653486149
486688,-19,-8,-7,-266,1109,-8016,1745147446653486149
486880,-19,-12,-8,-251,1147,-8034,1745147446653486149
487072,-17,-16,-9,-274,1187,-8042,1745147446653486149
487264,-13,-22,-9,-295,1191,-8054,1745147446653486149
487456,-9,-27,-7,-321,1153,-8042,1745147446653486149
487648,-7,-31,-6,-336,1130,-8039,1745147446653486149
487840,-5,-34,-5,-340,1077,-8033,1745147446653486149
488032,-4,-36,-1,-342,1015,-8014,1745147446713303363
488224,-5,-36,4,-339,970,-7993,1745147446713303363
488416,-7,-36,9,-332,941,-7994,1745147446713303363
488608,-10,-36,11,-327,927,-7994,1745147446713303363
488800,-11,-36,13,-338,944,-7997,1745147446713303363
488992,-13,-37,14,-310,935,-8011,1745147446713303363
489184,-12,-38,15,-298,948,-8027,1745147446713303363
489376,-10,-40,16,-279,954,-8028,1745147446713303363
489568,-7,-44,18,-298,962,-8043,1745147446713303363
489760,-7,-48,18,-301,971,-8065,1745147446713303363
489952,-7,-50,17,-337,970,-8065,1745147446713303363
490144,-10,-49,14,-363,988,-8073,1745147446713303363
490336,-13,-47,12,-400,1019,-8073,1745147446772427667
490528,-18,-44,12,-382,1036,-8051,1745147446772427667
490720,-20,-40,12,-396,1058,-8048,1745147446772427667
490912,-20,-37,14,-365,1089,-8042,1745147446772427667
491104,-19,-35,14,-357,1111,-8035,1745147446772427667
491296,-18,-34,12,-353,1150,-8051,1745147446772427667
491488,-13,-34,9,-350,1138,-8061,1745147446772427667
491680,-7,-33,9,-340,1151,-8062,1745147446772427667
491872,-2,-33,8,-348,1120,-8070,1745147446772427667
492064,5,-35,7,-355,1075,-8078,1745147446772427667
492256,12,-35,7,-362,1025,-8083,1745147446772427667
492448,15,-33,8,-356,968,-8074,1745147446772427667
492640,16,-31,8,-366,912,-8074,1745147446830254274
492832,15,-27,11,-381,875,-8082,1745147446830254274
493024,11,-23,13,-383,866,-8073,1745147446830254274
493216,6,-18,14,-374,843,-8078,1745147446830254274
493408,3,-13,15,-367,875,-8091,1745147446830254274
493600,1,-9,14,-343,897,-8102,1745147446830254274
493792,-2,-5,14,-338,935,-8096,1745147446830254274
493984,-3,-4,13,-332,978,-8096,1745147446830254274
494176,-4,-2,12,-346,1009,-8117,1745147446830254274
494368,-5,0,9,-383,1059,-8111,1745147446830254274
494560,-5,2,7,-409,1084,-8103,1745147446830254274
494752,-5,5,6,-425,1120,-8086,1745147446830254274
494944,-4,8,6,-424,1131,-8067,1745147446888556554
495136,0,12,6,-414,1166,-8056,1745147446888556554
495328,2,14,8,-404,1131,-8048,1745147446888556554
495520,5,14,10,-390,1113,-8036,1745147446888556554
495712,7,16,13,-367,1072,-8042,1745147446888556554
495904,9,17,14,-360,1067,-8075,1745147446888556554
496096,11,18,14,-354,1045,-8101,1745147446888556554
496288,14,20,15,-364,1029,-8115,1745147446888556554
496480,15,21,17,-358,995,-8113,1745147446888556554
496672,15,23,19,-342,931,-8115,1745147446888556554
496864,15,23,20,-340,893,-8107,1745147446888556554
497056,11,23,21,-335,860,-8097,1745147446888556554
497248,5,25,22,-345,846,-8067,1745147446946734408
497440,-3,28,24,-350,840,-8056,1745147446946734408
497632,-12,32,26,-350,872,-8059,1745147446946734408
497824,-18,35,27,-342,922,-8068,1745147446946734408
498016,-22,37,28,-317,972,-8059,1745147446946734408
498208,-21,38,27,-319,1032,-8068,1745147446946734408
498400,-20,37,26,-302,1078,-8084,1745147446946734408
498592,-18,34,24,-302,1122,-8077,1745147446946734408
498784,-15,33,22,-340,1114,-8082,1745147446946734408
498976,-12,32,22,-345,1115,-8087,1745147446946734408
499168,-11,32,22,-377,1102,-8074,1745147446946734408
499360,-8,33,23,-358,1109,-8063,1745147446946734408
499552,-7,35,26,-363,1071,-8042,1745147447005524860
499744,-7,36,28,-341,1043,-8041,1745147447005524860
499936,-8,35,30,-321,1008,-8025,1745147447005524860
500128,-9,34,32,-300,970,-8031,1745147447005524860
500320,-11,32,33,-293,955,-8047,1745147447005524860
500512,-12,29,32,-277,933,-8034,1745147447005524860
500704,-16,26,33,-291,927,-8058,1745147447005524860
500896,-17,24,34,-322,928,-8072,1745147447005524860
501088,-18,21,32,-340,939,-8078,1745147447005524860
501280,-19,20,33,-346,952,-8086,1745147447005524860
501472,-20,20,33,-348,949,-8071,1745147447005524860
501664,-25,21,35,-348,943,-8069,1745147447005524860
501856,-30,22,37,-344,978,-8055,1745147447063802088
502048,-34,25,38,-337,1022,-8029,1745147447063802088
502240,-35,28,38,-348,1070,-8036,1745147447063802088
502432,-36,31,37,-331,1102,-8054,1745147447063802088
502624,-35,32,34,-308,1123,-8049,1745147447063802088
502816,-29,31,33,-307,1146,-8029,1745147447063802088
503008,-23,28,33,-316,1154,-8045,1745147447063802088
503200,-19,27,29,-312,1119,-8046,1745147447063802088
503392,-13,25,23,-325,1085,-8037,1745147447063802088
503584,-7,24,17,-335,1017,-8022,1745147447063802088
503776,-6,25,16,-353,982,-8013,1745147447063802088
503968,-7,25,17,-330,935,-8016,1745147447063802088
504160,-9,27,17,-340,908,-8024,1745147447122607385
504352,-12,28,16,-319,888,-8019,1745147447122607385
504544,-15,30,13,-304,892,-8019,1745147447122607385
504736,-18,31,8,-293,903,-8022,1745147447122607385
504928,-20,33,3,-303,925,-8044,1745147447122607385
505120,-20,33,0,-314,949,-8048,1745147447122607385
505312,-19,33,-3,-314,964,-8057,1745147447122607385
505504,-16,34,-6,-320,996,-8062,1745147447122607385
505696,-14,34,-8,-309,1009,-8066,1745147447122607385
505888,-14,35,-11,-307,1007,-8056,1745147447122607385
506080,-13,36,-12,-318,1010,-8034,1745147447122607385
506272,-14,38,-12,-321,1039,-8036,1745147447122607385
506464,-13,40,-14,-320,1055,-8029,1745147447182646576
506656,-13,40,-16,-314,1058,-8025,1745147447182646576
506848,-12,40,-17,-289,1048,-8015,1745147447182646576
507040,-11,39,-19,-280,1066,-8000,1745147447182646576
507232,-10,37,-20,-269,1049,-8008,1745147447182646576
507424,-8,33,-20,-274,1044,-8024,1745147447182646576
507616,-4,29,-20,-259,1047,-8034,1745147447182646576
507808,-4,27,-21,-261,1047,-8029,1745147447182646576
508000,-4,25,-22,-280,1033,-8041,1745147447182646576
508192,-6,24,-20,-276,1032,-8045,1745147447182646576
508384,-8,24,-18,-285,1019,-8039,1745147447182646576
508576,-10,23,-13,-270,1003,-8035,1745147447182646576
508768,-12,22,-10,-254,1007,-8045,1745147447237435867
508960,-13,21,-8,-242,991,-8024,1745147447237435867
509152,-13,18,-6,-225,1009,-8027,1745147447237435867
509344,-14,16,-5,-217,1023,-8019,1745147447237435867
509536,-13,12,-5,-223,1043,-8011,1745147447237435867
509728,-13,9,-4,-234,1043,-8014,1745147447237435867
509920,-13,5,-4,-242,1062,-8012,1745147447237435867
510112,-13,0,-4,-250,1048,-8013,1745147447237435867
510304,-14,-3,-3,-270,1051,-8007,1745147447237435867
510496,-15,-6,-1,-273,1043,-8019,1745147447237435867
510688,-17,-9,1,-283,1042,-7999,1745147447237435867
510880,-18,-12,1,-276,1058,-7998,1745147447237435867
511072,-18,-14,2,-295,1076,-8002,1745147447297574953
511264,-17,-15,3,-285,1080,-7997,1745147447297574953
511456,-15,-18,6,-268,1079,-8014,1745147447297574953
511648,-12,-22,8,-260,1074,-8027,1745147447297574953
511840,-9,-23,7,-264,1067,-8033,1745147447297574953
512032,-6,-26,8,-252,1054,-8025,1745147447297574953
512224,-6,-29,8,-267,1021,-8024,1745147447297574953
512416,-7,-31,10,-260,1001,-8023,1745147447297574953
512608,-9,-33,13,-280,981,-8012,1745147447297574953
512800,-11,-35,15,-288,990,-8011,1745147447297574953
512992,-13,-36,16,-291,978,-8012,1745147447297574953
513184,-14,-37,16,-270,988,-8009,1745147447297574953
513376,-16,-37,17,-284,976,-8020,1745147447354151988
513568,-18,-38,17,-262,999,-8015,1745147447354151988
513760,-20,-43,17,-247,1025,-8024,1745147447354151988
513952,-21,-45,17,-233,1037,-8025,1745147447354151988
514144,-21,-48,18,-233,1061,-8020,1745147447354151988
514336,-19,-53,19,-249,1085,-8012,1745147447354151988
514528,-19,-58,19,-222,1078,-8058,1745147447354151988
514720,-21,-72,18,-190,1060,-7942,1745147447354151988
514912,-21,-83,20,-198,1047,-7841,1745147447354151988
515104,-18,-92,27,-203,1041,-7885,1745147447354151988
515296,-13,-109,32,-156,1014,-7857,1745147447354151988
515488,-8,-131,33,-99,979,-7821,1745147447354151988
515680,-2,-157,31,-28,954,-7830,1745147447414729612
515872,5,-190,33,70,928,-7779,1745147447414729612
516064,13,-231,37,199,912,-7669,1745147447414729612
516256,22,-257,42,286,991,-7605,1745147447414729612
516448,22,-235,42,447,1015,-7435,1745147447414729612
516640,-26,-178,13,543,1005,-7253,1745147447414729612
516832,-78,-206,-16,296,481,-5496,1745147447414729612
517024,-69,-495,-113,1243,386,-6249,1745147447414729612
517216,-127,-705,-201,1807,-307,-7012,1745147447414729612
517408,-181,-874,-275,2284,-909,-7964,1745147447414729612
517600,-205,-1051,-348,2551,-948,-8256,1745147447414729612
517792,-230,-1192,-447,2513,-777,-7905,1745147447414729612
517984,-279,-1293,-578,2434,-725,-8075,1745147447472812571
518176,-589,-1240,-658,2230,-518,-6761,1745147447472812571
518368,-1311,-1036,-717,2419,-1843,-5259,1745147447472812571
518560,-1528,-1087,-825,2609,-887,-7521,1745147447472812571
518752,-1562,-1121,-801,2686,845,-7451,1745147447472812571
518944,-1708,-1011,-846,3012,2452,-7513,1745147447472812571
519136,-1783,-989,-952,3330,3671,-7719,1745147447472812571
519328,-1754,-1002,-1066,3529,4471,-7641,1745147447472812571
519520,-1670,-1003,-1110,3296,4883,-7768,1745147447472812571
519712,-1499,-992,-1062,2720,5144,-7858,1745147447472812571
519904,-1315,-917,-954,2245,5064,-7702,1745147447472812571
520096,-1100,-830,-866,2000,4848,-7694,1745147447472812571
520288,-846,-783,-821,1943,4600,-7656,1745147447531707918
520480,-614,-732,-817,1982,4254,-7766,1745147447531707918
520672,-408,-667,-816,1979,3846,-7734,1745147447531707918
520864,-194,-612,-779,2057,3519,-7693,1745147447531707918
521056,10,-577,-712,2138,3140,-7774,1745147447531707918
521248,177,-583,-641,2153,2694,-7759,1745147447531707918
521440,305,-585,-584,2018,2166,-7785,1745147447531707918
521632,391,-579,-520,1860,1576,-7517,1745147447531707918
521824,439,-505,-434,1087,1203,-6720,1745147447531707918
522016,450,-320,-317,389,629,-7102,1745147447531707918
522208,426,-169,-150,295,-32,-7168,1745147447531707918
522400,313,-43,39,506,-814,-6820,1745147447531707918
522592,130,66,232,773,-1544,-6468,1745147447589548848
522784,-86,167,438,841,-2095,-6058,1745147447589548848
522976,-319,257,656,844,-2510,-5766,1745147447589548848
523168,-545,336,861,850,-2801,-5498,1745147447589548848
523360,-756,394,1039,855,-2992,-5308,1745147447589548848
523552,-945,453,1194,828,-3068,-5221,1745147447589548848
523744,-1094,517,1339,823,-2945,-5276,1745147447589548848
523936,-1204,583,1480,788,-2647,-5334,1745147447589548848
524128,-1266,651,1609,735,-2320,-5413,1745147447589548848
524320,-1280,725,1732,664,-2122,-5501,1745147447589548848
524512,-1249,809,1857,621,-2092,-5556,1745147447589548848
524704,-1174,900,1990,593,-2164,-5520,1745147447589548848
524896,-1060,991,2121,461,-2311,-5518,1745147447643358200
525088,-924,1093,2242,293,-2480,-5522,1745147447643358200
525280,-770,1208,2352,161,-2612,-5549,1745147447643358200
525472,-613,1338,2459,52,-2641,-5586,1745147447643358200
525664,-466,1478,2567,77,-2522,-5608,1745147447643358200
525856,-336,1608,2676,186,-2338,-5337,1745147447643358200
526048,-216,1728,2784,293,-2229,-5008,1745147447643358200
526240,-99,1840,2895,407,-2163,-4811,1745147447643358200
526432,7,1935,3006,539,-2129,-4746,1745147447643358200
526624,87,2028,3115,640,-2140,-4776,1745147447643358200
526816,133,2117,3224,766,-2217,-4714,1745147447643358200
527008,142,2210,3334,968,-2328,-4725,1745147447643358200
527200,125,2307,3441,1166,-2384,-4727,1745147447705518570
527392,91,2398,3542,1462,-2306,-4752,1745147447705518570
527584,43,2481,3632,1829,-2124,-4817,1745147447705518570
527776,-18,2548,3708,2294,-1885,-4967,1745147447705518570
527968,-83,2600,3773,2685,-1528,-5125,1745147447705518570
528160,-137,2667,3834,2968,-1060,-5391,1745147447705518570
528352,-189,2739,3890,3221,-539,-5720,1745147447705518570
528544,-235,2821,3940,3454,26,-6084,1745147447705518570
528736,-256,2911,3989,3721,559,-6382,1745147447705518570
528928,-261,3006,4035,4036,1095,-6620,1745147447705518570
529120,-259,3108,4088,4352,1513,-6782,1745147447705518570
529312,-252,3203,4138,4737,1844,-6944,1745147447705518570
529504,-257,3282,4172,5112,2024,-7131,1745147447764894382
529696,-280,3352,4189,5460,2141,-7352,1745147447764894382
529888,-312,3422,4201,5772,2233,-7423,1745147447764894382
530080,-340,3493,4205,6138,2482,-7428,1745147447764894382
530272,-361,3540,4193,6636,2832,-7417,1745147447764894382
530464,-373,3553,4160,7216,3164,-7461,1745147447764894382
530656,-362,3535,4120,7840,3504,-7424,1745147447764894382
530848,-320,3479,4082,8528,3739,-7370,1745147447764894382
531040,-268,3381,4028,9223,3799,-7381,1745147447764894382
531232,-224,3254,3950,9721,3756,-7492,1745147447764894382
531424,-176,3132,3861,9896,3827,-7740,1745147447764894382
531616,-112,3045,3775,9772,4130,-8008,1745147447764894382
531808,-46,2994,3695,9663,4591,-8276,1745147447824345610
532000,3,2969,3633,9648,4972,-8459,1745147447824345610
532192,43,2959,3612,9735,5203,-8517,1745147447824345610
532384,76,2959,3635,9823,5249,-8427,1745147447824345610
532576,81,2966,3675,9976,5092,-8494,1745147447824345610
532768,62,2970,3713,9946,4817,-8258,1745147447824345610
532960,27,2985,3749,9838,4442,-8114,1745147447824345610
533152,-29,3002,3775,9841,4057,-7925,1745147447824345610
533344,-117,3017,3787,9927,3624,-7703,1745147447824345610
533536,-228,3019,3791,10080,3224,-7439,1745147447824345610
533728,-347,3010,3789,10251,2972,-7164,1745147447824345610
533920,-464,2987,3772,10468,2868,-6921,1745147447824345610
534112,-569,2946,3723,10725,2858,-6650,1745147447882136644
534304,-674,2874,3643,11056,2858,-6356,1745147447882136644
534496,-770,2760,3546,11383,2839,-6131,1745147447882136644
534688,-843,2629,3434,11529,2876,-5996,1745147447882136644
534880,-895,2497,3310,11446,3009,-5944,1745147447882136644
535072,-924,2370,3184,11225,3222,-5957,1745147447882136644
535264,-939,2248,3066,10950,3422,-6006,1745147447882136644
535456,-955,2129,2957,10727,3549,-6078,1745147447882136644
535648,-970,2013,2856,10502,3559,-6146,1745147447882136644
535840,-975,1906,2770,10253,3523,-6110,1745147447882136644
536032,-977,1814,2695,10011,3429,-6062,1745147447882136644
536224,-987,1734,2624,9779,3272,-6003,1745147447882136644
536416,-1001,1661,2558,9536,3045,-5942,1745147447940758713
536608,-1009,1595,2491,9278,2774,-5843,1745147447940758713
536800,-1019,1535,2417,9034,2499,-5744,1745147447940758713
536992,-1038,1485,2342,8771,2243,-5618,1745147447940758713
537184,-1058,1449,2269,8493,2038,-5449,1745147447940758713
537376,-1081,1426,2193,8290,1912,-5322,1745147447940758713
537568,-1111,1405,2118,8112,1841,-5274,1745147447940758713
537760,-1141,1395,2042,8020,1678,-5188,1745147447940758713
537952,-1155,1377,1944,7939,1605,-5093,1745147447940758713
538144,-1150,1360,1845,7906,1583,-4996,1745147447940758713
538336,-1120,1343,1757,7924,1465,-4919,1745147447940758713
538528,-1077,1317,1672,7899,1412,-4827,1745147447940758713
538720,-1018,1289,1618,7851,1453,-4772,1745147447998069804
538912,-943,1263,1592,7851,1241,-4712,1745147447998069804
539104,-852,1233,1532,7823,1163,-4701,1745147447998069804
539296,-758,1198,1466,7784,1130,-4683,1745147447998069804
539488,-665,1163,1396,7745,1094,-4681,1745147447998069804
539680,-576,1127,1330,7688,1008,-4683,1745147447998069804
539872,-487,1089,1273,7665,896,-4658,1745147447998069804
540064,-395,1052,1224,7623,751,-4670,1745147447998069804
540256,-312,1015,1184,7584,574,-4588,1745147447998069804
540448,-240,972,1138,7523,262,-4487,1745147447998069804
540640,-171,921,1079,7445,172,-4487,1745147447998069804
540832,-115,901,1052,7218,55,-4454,1745147447998069804
541024,-74,881,1030,7163,-111,-4482,1745147448057703738
541216,-54,854,989,7129,-239,-4588,1745147448057703738
541408,-50,831,951,7098,-369,-4635,1745147448057703738
541600,-52,810,926,7120,-503,-4663,1745147448057703738
541792,-68,790,909,7167,-643,-4666,1745147448057703738
541984,-96,760,896,7173,-783,-4588,1745147448057703738
542176,-132,727,886,7175,-888,-4510,1745147448057703738
542368,-174,695,880,7238,-1138,-4353,1745147448057703738
542560,-208,657,860,7263,-1339,-4218,1745147448057703738
542752,-243,616,826,7287,-1459,-4147,1745147448057703738
542944,-281,577,788,7295,-1530,-4135,1745147448057703738
543136,-320,546,742,7287,-1527,-4158,1745147448057703738
543328,-357,520,693,7251,-1457,-4214,1745147448116079351
543520,-389,497,652,7212,-1328,-4258,1745147448116079351
543712,-409,480,620,7171,-1163,-4290,1745147448116079351
543904,-415,460,591,7206,-1155,-4287,1745147448116079351
544096,-407,433,541,7221,-1055,-4268,1745147448116079351
544288,-390,401,501,7252,-1063,-4219,1745147448116079351
544480,-363,365,460,7293,-1193,-4115,1745147448116079351
544672,-325,323,418,7337,-1355,-4036,1745147448116079351
544864,-279,293,375,7339,-1478,-4022,1745147448116079351
545056,-233,268,329,7341,-1550,-4013,1745147448116079351
545248,-195,247,279,7271,-1551,-4009,1745147448116079351
545440,-165,234,236,7147,-1536,-3992,1745147448116079351
545632,-132,216,205,7206,-1544,-4028,1745147448175031312
545824,-104,203,157,7371,-1674,-4064,1745147448175031312
546016,-85,181,78,7468,-1773,-3915,1745147448175031312
546208,-62,152,17,7440,-1875,-3755,1745147448175031312
546400,-31,122,-5,7326,-1941,-3661,1745147448175031312
546592,-2,93,0,7258,-1958,-3654,1745147448175031312
546784,16,65,12,7251,-2003,-3685,1745147448175031312
546976,28,40,11,7271,-2084,-3648,1745147448175031312
547168,42,18,-3,7322,-2193,-3609,1745147448175031312
547360,57,-3,-21,7362,-2319,-3575,1745147448175031312
547552,70,-25,-42,7375,-2454,-3560,1745147448175031312
547744,77,-39,-64,7357,-2589,-3547,1745147448175031312
547936,77,-48,-84,7309,-2699,-3482,1745147448237374076
548128,68,-61,-97,7277,-2812,-3360,1745147448237374076
548320,55,-78,-98,7280,-2947,-3262,1745147448237374076
548512,46,-95,-92,7275,-3047,-3214,1745147448237374076
548704,40,-103,-86,7251,-3100,-3247,1745147448237374076
548896,29,-101,-86,7238,-3088,-3302,1745147448237374076
549088,10,-90,-87,7191,-3024,-3322,1745147448237374076
549280,-10,-77,-86,7149,-2936,-3298,1745147448237374076
549472,-26,-64,-78,7116,-2861,-3298,1745147448237374076
549664,-32,-51,-65,7095,-2787,-3303,1745147448237374076
549856,-33,-38,-49,7107,-2774,-3307,1745147448237374076
550048,-27,-28,-34,7148,-2794,-3266,1745147448237374076
550240,-20,-23,-22,7194,-2884,-3182,1745147448289848753
550432,-14,-23,-10,7214,-2966,-3144,1745147448289848753
550624,-3,-20,3,7225,-3015,-3128,1745147448289848753
550816,10,-14,12,7197,-2985,-3165,1745147448289848753
551008,16,-5,13,7146,-2921,-3173,1745147448289848753
551200,15,-1,9,7123,-2871,-3131,1745147448289848753
551392,17,-1,8,7130,-2868,-3097,1745147448289848753
551584,26,-1,12,7135,-2850,-3095,1745147448289848753
551776,37,3,17,7156,-2826,-3116,1745147448289848753
551968,46,6,20,7185,-2793,-3138,1745147448289848753
552160,52,3,18,7210,-2775,-3121,1745147448289848753
552352,59,-3,17,7231,-2759,-3085,1745147448289848753
552544,67,-9,15,7228,-2748,-3080,1745147448349943152
552736,71,-14,13,7238,-2729,-3065,1745147448349943152
552928,69,-23,9,7252,-2742,-3034,1745147448349943152
553120,67,-33,5,7267,-2780,-3026,1745147448349943152
553312,68,-44,1,7263,-2816,-2968,1745147448349943152
553504,66,-53,-6,7264,-2821,-2970,1745147448349943152
553696,60,-59,-13,7241,-2818,-2977,1745147448349943152
553888,53,-65,-21,7254,-2834,-2976,1745147448349943152
554080,46,-72,-26,7256,-2859,-2985,1745147448349943152
554272,48,-76,-31,7248,-2859,-2985,1745147448349943152
554464,55,-77,-36,7220,-2821,-3021,1745147448349943152
554656,58,-74,-43,7190,-2752,-3057,1745147448349943152
554848,56,-70,-48,7136,-2692,-3055,1745147448403286154
555040,58,-65,-51,7104,-2671,-3049,1745147448403286154
555232,64,-64,-54,7112,-2659,-3021,1745147448403286154
555424,71,-68,-61,7144,-2680,-2990,1745147448403286154
555616,75,-72,-71,7147,-2657,-2987,1745147448403286154
555808,75,-79,-82,7156,-2686,-2983,1745147448403286154
556000,74,-85,-98,7178,-2699,-2975,1745147448403286154
556192,68,-94,-116,7198,-2695,-2943,1745147448403286154
556384,63,-106,-136,7204,-2701,-2934,1745147448403286154
556576,60,-116,-155,7193,-2654,-2963,1745147448403286154
556768,58,-123,-174,7193,-2609,-3027,1745147448403286154
556960,53,-129,-196,7213,-2564,-3070,1745147448403286154
557152,44,-142,-218,7257,-2578,-2978,1745147448466930833
557344,36,-166,-238,7317,-2718,-2882,1745147448466930833
557536,44,-192,-254,7366,-2872,-2853,1745147448466930833
557728,61,-212,-267,7361,-2986,-2860,1745147448466930833
557920,72,-223,-279,7327,-3048,-2909,1745147448466930833
558112,76,-229,-289,7248,-3046,-2953,1745147448466930833
558304,81,-226,-288,7155,-2971,-3021,1745147448466930833
558496,87,-219,-278,7063,-2855,-3083,1745147448466930833
558688,92,-210,-261,7025,-2783,-3098,1745147448466930833
558880,100,-200,-239,7003,-2776,-3109,1745147448466930833
559072,110,-189,-211,7001,-2803,-3090,1745147448466930833
559264,116,-177,-182,7015,-2853,-3069,1745147448466930833
559456,114,-164,-155,7000,-2960,-3053,1745147448525424049
559648,104,-150,-129,6986,-3038,-3038,1745147448525424049
559840,91,-136,-107,6952,-3138,-3007,1745147448525424049
560032,76,-120,-90,6930,-3192,-3027,1745147448525424049
560224,58,-102,-79,6911,-3199,-3051,1745147448525424049
560416,39,-82,-72,6920,-3192,-3056,1745147448525424049
560608,21,-66,-67,6957,-3141,-3033,1745147448525424049
560800,9,-56,-64,7035,-3105,-2983,1745147448525424049
560992,4,-53,-62,7097,-3064,-2943,1745147448525424049
561184,8,-50,-63,7134,-2993,-2947,1745147448525424049
561376,16,-49,-66,7133,-2894,-2985,1745147448525424049
561568,24,-49,-71,7141,-2842,-3004,1745147448525424049
561760,33,-54,-75,7153,-2851,-3003,1745147448583763985
561952,46,-61,-76,7158,-2903,-2982,1745147448583763985
562144,66,-67,-72,7178,-2979,-2986,1745147448583763985
562336,87,-71,-69,7191,-3040,-3011,1745147448583763985
562528,100,-72,-68,7190,-3111,-2984,1745147448583763985
562720,107,-72,-67,7154,-3141,-2960,1745147448583763985
562912,114,-67,-63,7122,-3146,-2981,1745147448583763985
563104,118,-59,-57,7115,-3116,-2983,1745147448583763985
563296,117,-51,-49,7100,-3082,-2983,1745147448583763985
563488,117,-45,-40,7119,-3076,-2965,1745147448583763985
563680,121,-41,-29,7122,-3029,-2961,1745147448583763985
563872,125,-35,-19,7118,-2995,-2987,1745147448583763985
564064,126,-30,-11,7110,-2951,-3029,1745147448642051213
564256,125,-29,-7,7085,-2934,-3029,1745147448642051213
564448,121,-31,-6,7092,-2984,-2960,1745147448642051213
564640,115,-34,-5,7095,-3054,-2909,1745147448642051213
564832,112,-35,-6,7097,-3118,-2915,1745147448642051213
565024,109,-30,-8,7075,-3115,-2973,1745147448642051213
565216,101,-21,-14,7060,-3044,-3031,1745147448642051213
565408,91,-15,-23,7063,-2993,-3015,1745147448642051213
565600,78,-16,-29,7116,-3013,-2980,1745147448642051213
565792,79,-21,-29,7177,-3063,-2901,1745147448642051213
565984,90,-22,-26,7212,-3063,-2896,1745147448642051213
566176,93,-22,-27,7220,-3037,-2899,1745147448642051213
566368,88,-26,-31,7196,-3026,-2876,1745147448697408363
566560,84,-30,-30,7148,-3010,-2881,1745147448697408363
566752,81,-34,-25,7108,-2997,-2896,1745147448697408363
566944,76,-33,-16,7081,-2997,-2916,1745147448697408363
567136,67,-32,-8,7068,-3012,-2914,1745147448697408363
567328,57,-31,1,7074,-3043,-2898,1745147448697408363
567520,46,-30,9,7072,-3064,-2874,1745147448697408363
567712,34,-28,16,7077,-3127,-2879,1745147448697408363
567904,27,-24,23,7064,-3124,-2906,1745147448697408363
568096,18,-15,27,7016,-3089,-2910,1745147448697408363
568288,7,-4,30,6992,-3018,-2904,1745147448697408363
568480,-6,5,33,6993,-2973,-2883,1745147448697408363
568672,-12,10,39,7009,-2962,-2849,1745147448756270274
568864,-7,16,45,7017,-2932,-2877,1745147448756270274
569056,0,23,48,7009,-2881,-2914,1745147448756270274
569248,4,30,49,7012,-2838,-2955,1745147448756270274
569440,8,38,50,7010,-2791,-2982,1745147448756270274
569632,19,45,52,7006,-2754,-2975,1745147448756270274
569824,34,50,55,7026,-2733,-2952,1745147448756270274
570016,46,49,55,7044,-2751,-2945,1745147448756270274
570208,59,46,54,7095,-2794,-2928,1745147448756270274
570400,71,43,52,7095,-2839,-2926,1745147448756270274
570592,78,38,49,7089,-2886,-2924,1745147448756270274
570784,79,34,45,7072,-2931,-2903,1745147448756270274
570976,78,32,44,7043,-2958,-2902,1745147448814333493
571168,74,33,42,7026,-2941,-2936,1745147448814333493
571360,64,37,42,7011,-2868,-2968,1745147448814333493
571552,53,40,42,7005,-2798,-2984,1745147448814333493
571744,45,41,45,7006,-2747,-3013,1745147448814333493
571936,41,39,47,7057,-2726,-3000,1745147448814333493
572128,40,35,47,7094,-2729,-3002,1745147448814333493
572320,41,27,46,7150,-2765,-2971,1745147448814333493
572512,41,18,41,7170,-2809,-2921,1745147448814333493
572704,41,8,34,7166,-2827,-2929,1745147448814333493
572896,39,1,26,7092,-2814,-2933,1745147448814333493
573088,34,-3,17,7049,-2799,-2915,1745147448814333493
573280,28,-7,8,7015,-2799,-2911,1745147448876320167
573472,25,-10,4,7002,-2785,-2919,1745147448876320167
573664,22,-10,1,7005,-2775,-2948,1745147448876320167
573856,19,-8,1,7006,-2737,-2962,1745147448876320167
574048,18,-6,0,7033,-2738,-2936,1745147448876320167
574240,17,-8,1,7048,-2758,-2919,1745147448876320167
574432,18,-10,0,7089,-2785,-2927,1745147448876320167
574624,22,-10,-1,7086,-2813,-2917,1745147448876320167
574816,25,-9,-3,7076,-2845,-2923,1745147448876320167
575008,25,-10,-6,7095,-2874,-2930,1745147448876320167
575200,26,-12,-7,7077,-2915,-2910,1745147448876320167
575392,27,-9,-8,7051,-2913,-2951,1745147448876320167
575584,23,-3,-10,7030,-2902,-2986,1745147448934879059
575776,19,4,-11,6993,-2873,-2985,1745147448934879059
575968,19,9,-11,6981,-2834,-2989,1745147448934879059
576160,18,11,-11,6987,-2802,-2992,1745147448934879059
576352,16,13,-9,6985,-2798,-2982,1745147448934879059
576544,17,13,-8,7026,-2790,-2960,1745147448934879059
576736,20,10,-7,7046,-2821,-2943,1745147448934879059
576928,22,4,-8,7079,-2868,-2904,1745147448934879059
577120,21,-5,-10,7111,-2957,-2866,1745147448934879059
577312,23,-11,-12,7116,-3026,-2887,1745147448934879059
577504,27,-13,-12,7069,-3033,-2930,1745147448934879059
577696,25,-7,-12,7016,-2972,-2996,1745147448934879059
577888,19,2,-11,6980,-2874,-3037,1745147448992826706
578080,11,10,-9,6965,-2824,-3050,1745147448992826706
578272,9,17,-3,6966,-2795,-3037,1745147448992826706
578464,12,22,4,7033,-2808,-3024,1745147448992826706
578656,17,22,8,7083,-2832,-3010,1745147448992826706
578848,19,19,8,7112,-2868,-3009,1745147448992826706
579040,23,15,7,7112,-2897,-3027,1745147448992826706
579232,26,11,3,7106,-2911,-3009,1745147448992826706
579424,24,10,-2,7069,-2909,-3014,1745147448992826706
579616,21,9,-8,7078,-2908,-3008,1745147448992826706
579808,19,10,-12,7073,-2935,-3010,1745147448992826706
580000,22,9,-14,7106,-2948,-3012,1745147448992826706
580192,25,7,-14,7126,-2947,-3035,1745147449051539451
580384,25,6,-13,7140,-2942,-3045,1745147449051539451
580576,26,6,-12,7118,-2926,-3062,1745147449051539451
580768,23,6,-10,7111,-2911,-3054,1745147449051539451
580960,17,6,-8,7084,-2927,-3043,1745147449051539451
581152,12,5,-5,7053,-2934,-3035,1745147449051539451
581344,7,7,-2,7022,-2945,-3056,1745147449051539451
581536,-2,11,2,7016,-2957,-3062,1745147449051539451
581728,-9,13,3,7032,-2966,-3031,1745147449051539451
581920,-14,12,4,7054,-3007,-3010,1745147449051539451
582112,-16,12,4,7069,-3001,-3027,1745147449051539451
582304,-15,16,4,7070,-2960,-3049,1745147449051539451
582496,-16,21,3,7071,-2878,-3071,1745147449109629285
582688,-16,25,1,7075,-2796,-3066,1745147449109629285
582880,-14,26,0,7092,-2761,-3047,1745147449109629285
583072,-10,23,-1,7115,-2761,-3031,1745147449109629285
583264,-3,18,-1,7123,-2777,-3042,1745147449109629285
583456,5,13,-1,7159,-2813,-3038,1745147449109629285
583648,10,9,-3,7153,-2844,-3030,1745147449109629285
583840,9,5,-7,7155,-2877,-2999,1745147449109629285
584032,7,0,-12,7143,-2922,-2952,1745147449109629285
584224,5,-5,-17,7116,-2940,-2963,1745147449109629285
584416,4,-7,-20,7102,-2931,-2950,1745147449109629285
584608,2,-6,-21,7090,-2935,-2991,1745147449109629285
584800,1,-5,-21,7105,-2905,-2988,1745147449168216094
584992,3,-5,-21,7123,-2916,-2995,1745147449168216094
585184,6,-5,-19,7120,-2934,-2983,1745147449168216094
585376,9,-6,-17,7131,-2948,-2991,1745147449168216094
585568,11,-6,-14,7129,-2947,-2997,1745147449168216094
585760,11,-5,-12,7108,-2941,-3015,1745147449168216094
585952,9,-2,-9,7069,-2968,-3048,1745147449168216094
586144,5,0,-6,7072,-2969,-3047,1745147449168216094
586336,3,3,-4,7064,-2989,-3033,1745147449168216094
586528,2,8,-2,7055,-2994,-3026,1745147449168216094
586720,-1,13,0,7070,-2974,-3040,1745147449168216094
586912,-5,17,-1,7091,-2939,-3058,1745147449168216094
587104,-8,19,-2,7095,-2920,-3072,1745147449226481030
587296,-6,19,-3,7104,-2892,-3069,1745147449226481030
587488,-2,18,-5,7103,-2872,-3055,1745147449226481030
587680,3,15,-8,7122,-2877,-3030,1745147449226481030
587872,10,9,-10,7144,-2926,-2999,1745147449226481030
588064,19,1,-12,7167,-2971,-2969,1745147449226481030
588256,26,-5,-13,7156,-3009,-2966,1745147449226481030
588448,27,-11,-15,7146,-3012,-2979,1745147449226481030
588640,24,-12,-18,7111,-3015,-3007,1745147449226481030
588832,18,-12,-15,7089,-2968,-3009,1745147449226481030
589024,11,-12,-13,7091,-2973,-2989,1745147449226481030
589216,5,-14,-10,7122,-3000,-2974,1745147449226481030
589408,4,-15,-5,7134,-3035,-2965,1745147449285705541
589600,1,-17,0,7146,-3077,-2962,1745147449285705541
589792,-4,-20,3,7149,-3120,-2962,1745147449285705541
589984,-4,-19,7,7137,-3128,-2985,1745147449285705541
590176,-6,-15,10,7094,-3092,-2994,1745147449285705541
590368,-12,-7,12,7053,-3055,-3013,1745147449285705541
590560,-15,0,16,7004,-3001,-3024,1745147449285705541
590752,-12,7,22,6968,-2944,-3051,1745147449285705541
590944,-10,14,28,7006,-2951,-3043,1745147449285705541
591136,-10,17,30,7042,-2943,-3027,1745147449285705541
591328,-12,19,32,7068,-2952,-3027,1745147449285705541
591520,-16,23,32,7113,-2941,-3043,1745147449285705541
591712,-21,25,30,7090,-2941,-3035,1745147449344061831
591904,-22,23,27,7098,-2938,-3006,1745147449344061831
592096,-20,21,22,7092,-2931,-3026,1745147449344061831
592288,-16,22,16,7072,-2879,-3037,1745147449344061831
592480,-16,23,11,7077,-2825,-3023,1745147449344061831
592672,-18,18,5,7107,-2844,-2964,1745147449344061831
592864,-15,9,2,7157,-2921,-2919,1745147449344061831
593056,-3,3,0,7176,-2960,-2895,1745147449344061831
593248,11,-1,-1,7170,-2954,-2945,1745147449344061831
593440,14,0,-3,7159,-2915,-2984,1745147449344061831
593632,10,-1,-5,7144,-2892,-2979,1745147449344061831
593824,8,-4,-3,7147,-2902,-2961,1745147449344061831
594016,8,-6,1,7126,-2909,-2947,1745147449402062291
594208,9,-6,4,7098,-2930,-2943,1745147449402062291
594400,9,-5,8,7093,-2943,-2950,1745147449402062291
594592,4,-4,10,7091,-2940,-2967,1745147449402062291
594784,-1,-1,12,7080,-2932,-2982,1745147449402062291
594976,-6,1,12,7092,-2932,-2972,1745147449402062291
595168,-9,0,12,7109,-2950,-2945,1745147449402062291
595360,-4,-2,12,7108,-2981,-2927,1745147449402062291
595552,5,-1,11,7097,-2958,-2935,1745147449402062291
595744,7,1,11,7080,-2924,-2956,1745147449402062291
595936,4,3,9,7070,-2934,-2969,1745147449402062291
596128,2,4,10,7067,-2940,-2958,1745147449402062291
596320,2,2,13,7074,-2945,-2967,1745147449460912430
596512,1,4,13,7078,-2962,-2967,1745147449460912430
596704,-3,8,15,7064,-2958,-2990,1745147449460912430
596896,-7,10,16,7096,-2958,-2974,1745147449460912430
597088,-11,9,15,7092,-2966,-2967,1745147449460912430
597280,-12,7,15,7090,-2950,-2974,1745147449460912430
597472,-12,7,13,7061,-2939,-2971,1745147449460912430
597664,-16,5,11,7079,-2942,-2911,1745147449460912430
597856,-19,-2,10,7087,-2983,-2882,1745147449460912430
598048,-17,-8,10,7094,-3038,-2877,1745147449460912430
598240,-12,-8,12,7075,-3031,-2924,1745147449460912430
598432,-16,-3,12,7057,-2976,-2982,1745147449460912430
598624,-25,5,14,7022,-2916,-3005,1745147449518877161
598816,-30,10,17,6998,-2856,-3008,1745147449518877161
599008,-29,14,21,7009,-2817,-3017,1745147449518877161
599200,-26,16,23,7027,-2809,-3011,1745147449518877161
599392,-20,15,24,7083,-2825,-3004,1745147449518877161
599584,-12,13,22,7103,-2824,-2987,1745147449518877161
599776,-5,9,18,7130,-2835,-2985,1745147449518877161
599968,-4,3,12,7126,-2851,-2950,1745147449518877161
600160,-1,-5,5,7104,-2882,-2930,1745147449518877161
600352,4,-12,0,7095,-2921,-2920,1745147449518877161
600544,8,-15,-4,7075,-2924,-2936,1745147449518877161
600736,6,-13,-7,7044,-2920,-2936,1745147449518877161
600928,0,-11,-9,7052,-2905,-2962,1745147449577672406
601120,-7,-7,-9,7039,-2911,-2967,1745147449577672406
601312,-12,-3,-9,7048,-2909,-2968,1745147449577672406
601504,-17,-1,-8,7052,-2897,-2978,1745147449577672406
601696,-21,2,-6,7069,-2875,-2973,1745147449577672406
601888,-24,3,-3,7094,-2889,-2955,1745147449577672406
602080,-27,1,-4,7101,-2914,-2942,1745147449577672406
602272,-27,-4,-8,7104,-2911,-2934,1745147449577672406
602464,-26,-5,-12,7054,-2901,-2974,1745147449577672406
602656,-24,-4,-15,7041,-2873,-3014,1745147449577672406
602848,-24,-3,-21,7049,-2849,-3028,1745147449577672406
603040,-25,-4,-23,7085,-2859,-2950,1745147449577672406
603232,-25,-9,-25,7126,-2951,-2900,1745147449640769485
603424,-21,-13,-24,7144,-2989,-2916,1745147449640769485
603616,-19,-12,-24,7099,-3001,-2946,1745147449640769485
603808,-24,-9,-24,7078,-2998,-2972,1745147449640769485
604000,-31,-3,-23,7040,-2992,-3006,1745147449640769485
604192,-34,3,-19,7034,-2950,-2992,1745147449640769485
604384,-33,7,-14,7047,-2926,-2989,1745147449640769485
604576,-30,8,-10,7084,-2938,-2949,1745147449640769485
604768,-27,5,-6,7109,-2966,-2905,1745147449640769485
604960,-23,-2,-5,7118,-3032,-2859,1745147449640769485
605152,-21,-4,-6,7118,-3059,-2868,1745147449640769485
605344,-18,-4,-6,7065,-3045,-2909,1745147449640769485
605536,-19,-1,-7,7038,-3006,-2964,1745147449692569116
605728,-20,6,-5,6987,-2984,-2995,1745147449692569116
605920,-20,13,0,7032,-2949,-2996,1745147449692569116
606112,-19,18,5,7053,-2965,-2984,1745147449692569116
606304,-16,21,10,7082,-2999,-2972,1745147449692569116
606496,-15,23,13,7122,-3025,-2948,1745147449692569116
606688,-17,23,14,7120,-3061,-2955,1745147449692569116
606880,-21,25,14,7120,-3062,-2966,1745147449692569116
607072,-28,27,13,7084,-3031,-2962,1745147449692569116
607264,-36,25,12,7078,-3012,-2952,1745147449692569116
607456,-41,27,14,7032,-3000,-2960,1745147449692569116
607648,-43,29,18,7028,-2986,-2969,1745147449692569116
607840,-44,32,20,7060,-2954,-3009,1745147449752954971
608032,-44,34,20,7075,-2929,-3024,1745147449752954971
608224,-40,35,21,7102,-2910,-3021,1745147449752954971
608416,-33,35,20,7127,-2910,-3022,1745147449752954971
608608,-27,32,19,7135,-2891,-3014,1745147449752954971
608800,-21,29,19,7149,-2889,-3015,1745147449752954971
608992,-17,26,19,7143,-2915,-3003,1745147449752954971
609184,-13,22,19,7133,-2945,-2996,1745147449752954971
609376,-11,20,20,7099,-2952,-3018,1745147449752954971
609568,-11,20,19,7097,-2954,-3019,1745147449752954971
609760,-17,20,18,7106,-2973,-3014,1745147449752954971
609952,-25,18,17,7117,-2980,-3016,1745147449752954971
610144,-30,17,18,7106,-3008,-2997,1745147449816049655
610336,-34,16,18,7106,-2990,-2991,1745147449816049655
610528,-41,17,16,7087,-2964,-3016,1745147449816049655
610720,-46,17,15,7088,-2951,-3023,1745147449816049655
610912,-48,16,14,7101,-2942,-3045,1745147449816049655
611104,-47,16,13,7089,-2928,-3039,1745147449816049655
611296,-47,17,11,7090,-2914,-3047,1745147449816049655
611488,-45,18,10,7082,-2874,-3068,1745147449816049655
611680,-40,17,9,7082,-2871,-3068,1745147449816049655
611872,-34,18,8,7082,-2839,-3055,1745147449816049655
612064,-28,17,6,7091,-2836,-3047,1745147449816049655
612256,-23,15,5,7111,-2860,-3040,1745147449816049655
612448,-20,10,2,7130,-2919,-3044,1745147449874815889
612832,-8,9,1,7107,-2928,-3070,1745147449874815889
613024,-9,10,0,7099,-2895,-3068,1745147449874815889
613216,-16,9,-2,7086,-2887,-3042,1745147449874815889
613408,-21,7,-3,7099,-2908,-3041,1745147449874815889
613600,-23,3,-2,7100,-2937,-3027,1745147449874815889
613792,-26,3,0,7118,-2946,-3051,1745147449874815889
613984,-31,2,0,7112,-2930,-3051,1745147449874815889
614176,-39,-1,0,7111,-2915,-3034,1745147449874815889
614368,-46,-6,-1,7128,-2928,-2999,1745147449874815889
614560,-49,-11,0,7130,-2971,-2977,1745147449874815889
614752,-47,-11,2,7103,-2983,-2986,1745147449874815889
614944,-46,-9,4,7084,-2976,-3031,1745147449937949531
615136,-49,-4,6,7068,-2945,-3062,1745147449937949531
615328,-51,2,8,7054,-2910,-3091,1745147449937949531
615520,-51,8,10,7032,-2856,-3094,1745147449937949531
615712,-46,13,13,7032,-2839,-3093,1745147449937949531
615904,-39,16,15,7062,-2850,-3090,1745147449937949531
616096,-31,18,15,7092,-2871,-3068,1745147449937949531
616288,-21,15,13,7125,-2906,-3042,1745147449937949531
616480,-16,11,10,7132,-2943,-3001,1745147449937949531
616672,-15,9,7,7112,-2960,-2997,1745147449937949531
616864,-17,8,6,7082,-2956,-3015,1745147449937949531
617056,-20,10,6,7055,-2920,-3042,1745147449937949531
617248,-25,11,8,7029,-2898,-3059,1745147449996595141
617440,-27,15,11,7031,-2883,-3070,1745147449996595141
617632,-25,18,15,7078,-2887,-3071,1745147449996595141
617824,-24,19,16,7099,-2900,-3064,1745147449996595141
618016,-23,18,16,7132,-2897,-3078,1745147449996595141
618208,-24,14,15,7141,-2887,-3088,1745147449996595141
618400,-24,11,14,7127,-2882,-3060,1745147449996595141
618592,-21,6,13,7094,-2877,-3037,1745147449996595141
618784,-17,2,12,7082,-2871,-3049,1745147449996595141
618976,-15,0,8,7076,-2877,-3077,1745147449996595141
619168,-15,-1,5,7068,-2864,-3095,1745147449996595141
619360,-15,-1,2,7076,-2849,-3075,1745147449996595141
619552,-18,-2,0,7105,-2856,-3045,1745147450055288407
619744,-19,-7,-1,7112,-2907,-2997,1745147450055288407
619936,-19,-12,-3,7119,-2935,-2963,1745147450055288407
620128,-18,-12,-2,7114,-2964,-2979,1745147450055288407
620320,-19,-11,-1,7101,-2957,-3012,1745147450055288407
620512,-25,-7,-1,7085,-2941,-3046,1745147450055288407
620704,-30,-5,1,7084,-2907,-3033,1745147450055288407
620896,-29,-3,4,7082,-2929,-3036,1745147450055288407
621088,-23,-2,8,7073,-2927,-3037,1745147450055288407
621280,-17,2,11,7066,-2930,-3064,1745147450055288407
621472,-15,6,12,7067,-2912,-3095,1745147450055288407
621664,-13,9,13,7064,-2906,-3083,1745147450055288407
621856,-11,11,13,7076,-2914,-3046,1745147450113555844
622048,-10,9,14,7099,-2920,-3002,1745147450113555844
622240,-10,5,14,7107,-2943,-2980,1745147450113555844
622432,-9,3,15,7098,-2971,-2998,1745147450113555844
622624,-11,3,15,7093,-2967,-2997,1745147450113555844
622816,-18,2,13,7091,-2944,-3004,1745147450113555844
623008,-27,3,11,7078,-2927,-3021,1745147450113555844
623200,-33,4,11,7068,-2887,-3034,1745147450113555844
623392,-35,5,11,7055,-2872,-3037,1745147450113555844
623584,-38,6,12,7090,-2873,-3025,1745147450113555844
623776,-38,5,11,7118,-2893,-3029,1745147450113555844
623968,-36,4,10,7126,-2898,-3048,1745147450113555844
624160,-30,3,7,7124,-2876,-3070,1745147450165516098
624352,-26,2,3,7108,-2838,-3063,1745147450165516098
624544,-27,-1,-3,7084,-2849,-3056,1745147450165516098
624736,-22,-3,-6,7069,-2864,-3069,1745147450165516098
624928,-13,-3,-6,7062,-2870,-3085,1745147450165516098
625120,-9,-3,-7,7047,-2879,-3098,1745147450165516098
625312,-10,-3,-8,7044,-2888,-3072,1745147450165516098
625504,-13,-6,-8,7050,-2907,-3055,1745147450165516098
625696,-16,-8,-6,7045,-2960,-3054,1745147450165516098
625888,-19,-9,-4,7045,-2979,-3057,1745147450165516098
626080,-23,-9,-2,7054,-2978,-3061,1745147450165516098
626272,-31,-7,-1,7037,-2955,-3078,1745147450165516098
626464,-42,-5,0,7017,-2923,-3065,1745147450230751388
626656,-49,-4,1,7024,-2919,-3048,1745147450230751388
626848,-48,-4,1,7031,-2901,-3046,1745147450230751388
627040,-46,-3,1,7046,-2876,-3061,1745147450230751388
627232,-44,-3,-2,7047,-2839,-3067,1745147450230751388
627424,-46,-2,-6,7065,-2797,-3070,1745147450230751388
627616,-47,-3,-10,7056,-2791,-3064,1745147450230751388
627808,-46,-2,-12,7050,-2768,-3069,1745147450230751388
628000,-44,-3,-15,7065,-2746,-3061,1745147450230751388
628192,-47,-4,-21,7088,-2764,-3058,1745147450230751388
628384,-52,-7,-28,7113,-2785,-3019,1745147450230751388
628576,-56,-13,-34,7151,-2831,-3011,1745147450230751388
628768,-56,-20,-40,7150,-2876,-3000,1745147450289313978
628960,-57,-24,-46,7153,-2894,-3031,1745147450289313978
629152,-64,-26,-53,7116,-2889,-3052,1745147450289313978
629344,-76,-26,-58,7087,-2882,-3038,1745147450289313978
629536,-86,-28,-60,7077,-2914,-2987,1745147450289313978
629728,-90,-32,-57,7077,-2979,-2955,1745147450289313978
629920,-89,-33,-53,7073,-3019,-2972,1745147450289313978
