timestamp,gyr_x,gyr_y,gyr_z,acc_x,acc_y,acc_z,pkt_time_ns
114784,-278,88,55,-1003,1732,-7681,1745146176304258759
114976,-32,-68,56,-809,1526,-8067,1745146176304258759
115168,-43,-75,63,-926,1524,-7826,1745146176304258759
115360,-60,-46,69,-946,1494,-7995,1745146176304258759
115552,-81,-59,75,-914,1591,-8048,1745146176304258759
115744,-110,-38,77,-878,1708,-8150,1745146176304258759
115936,-96,-33,69,-890,1742,-8252,1745146176304258759
116128,-97,-31,56,-912,1628,-8274,1745146176304258759
116320,-101,-14,37,-895,1588,-8285,1745146176304258759
116512,-99,-13,24,-801,1618,-8246,1745146176304258759
116704,-118,-12,22,-760,1695,-8238,1745146176304258759
116896,-114,8,24,-821,1906,-8347,1745146176304258759
117088,-82,28,23,-929,2194,-8440,1745146176357994622
117280,-32,57,9,-998,2291,-8570,1745146176357994622
117472,34,65,-20,-887,2318,-8571,1745146176357994622
117664,77,73,-39,-662,2288,-8485,1745146176357994622
117856,106,84,-40,-468,2302,-8379,1745146176357994622
118048,142,86,-24,-398,2350,-8003,1745146176357994622
118240,92,61,-13,-451,1930,-8756,1745146176357994622
118432,236,57,6,-318,3054,-7947,1745146176357994622
118624,311,58,2,-739,2750,-8115,1745146176357994622
118816,365,96,-23,-843,2044,-8412,1745146176357994622
119008,342,97,-43,-777,1693,-8032,1745146176357994622
119200,346,139,15,-1053,2808,-8860,1745146176357994622
119392,117,473,219,-1616,-2368,-8012,1745146176420734570
119584,-165,636,-80,-3053,-842,-5618,1745146176420734570
119776,-260,278,-40,-1060,-1035,-7294,1745146176420734570
119968,-399,263,-25,-277,-122,-7668,1745146176420734570
120160,-522,234,-21,-31,975,-7445,1745146176420734570
120352,-547,198,-52,-135,1969,-7470,1745146176420734570
120544,-466,132,-77,-513,2612,-7673,1745146176420734570
120736,-346,102,-72,-928,3069,-7620,1745146176420734570
120928,-219,98,-27,-1032,3147,-7659,1745146176420734570
121120,-108,91,-12,-955,2984,-7696,1745146176420734570
121312,-22,91,-35,-847,2707,-7738,1745146176420734570
121504,37,82,-54,-750,2395,-7734,1745146176420734570
121696,78,71,-55,-703,2075,-7738,1745146176475332925
121888,88,61,-43,-735,1813,-7743,1745146176475332925
122080,78,54,-30,-807,1614,-7752,1745146176475332925
122272,55,49,-23,-876,1511,-7781,1745146176475332925
122464,26,51,-21,-894,1474,-7812,1745146176475332925
122656,1,56,-22,-864,1521,-7851,1745146176475332925
122848,-22,60,-23,-804,1578,-7870,1745146176475332925
123040,-40,63,-23,-717,1681,-7898,1745146176475332925
123232,-49,62,-23,-661,1780,-7914,1745146176475332925
123424,-52,58,-25,-624,1852,-7925,1745146176475332925
123616,-49,54,-26,-612,1912,-7926,1745146176475332925
123808,-44,50,-28,-582,1939,-7950,1745146176475332925
124000,-39,46,-29,-581,1910,-7960,1745146176530602577
124192,-35,42,-28,-587,1897,-7948,1745146176530602577
124384,-34,39,-30,-578,1854,-7958,1745146176530602577
124576,-35,38,-30,-580,1819,-7949,1745146176530602577
124768,-40,36,-29,-591,1793,-7951,1745146176530602577
124960,-45,34,-30,-591,1779,-7937,1745146176530602577
125152,-49,33,-32,-609,1762,-7913,1745146176530602577
125344,-51,32,-33,-605,1764,-7914,1745146176530602577
125536,-54,28,-35,-618,1761,-7904,1745146176530602577
125728,-55,23,-36,-648,1749,-7892,1745146176530602577
125920,-56,20,-39,-673,1736,-7884,1745146176530602577
126112,-56,18,-43,-696,1726,-7854,1745146176530602577
126304,-54,17,-45,-716,1713,-7814,1745146176594103299
126496,-51,17,-46,-732,1717,-7768,1745146176594103299
126688,-47,16,-47,-751,1703,-7746,1745146176594103299
126880,-41,12,-47,-755,1699,-7736,1745146176594103299
127072,-36,10,-48,-770,1705,-7742,1745146176594103299
127264,-31,7,-50,-800,1716,-7726,1745146176594103299
127456,-27,4,-52,-813,1742,-7734,1745146176594103299
127648,-19,0,-52,-828,1712,-7746,1745146176594103299
127840,3,-4,-51,-776,1662,-7669,1745146176594103299
128032,32,1,-58,-757,1671,-7732,1745146176594103299
128224,26,0,-74,-775,1737,-7694,1745146176594103299
128416,1,-17,-87,-773,1756,-7596,1745146176594103299
128608,-20,-34,-89,-822,1717,-7643,1745146176650935279
128800,-34,-37,-82,-881,1726,-7734,1745146176650935279
128992,-44,-33,-72,-1014,1833,-7749,1745146176650935279
129184,-42,-27,-66,-1081,1982,-7713,1745146176650935279
129376,-28,-21,-68,-1115,2077,-7712,1745146176650935279
129568,-7,-13,-75,-1077,2124,-7702,1745146176650935279
129760,11,-10,-83,-1007,2108,-7685,1745146176650935279
129952,22,-14,-88,-946,2050,-7688,1745146176650935279
130144,27,-20,-87,-919,1940,-7706,1745146176650935279
130336,28,-26,-83,-919,1878,-7710,1745146176650935279
130528,29,-29,-81,-932,1837,-7697,1745146176650935279
130720,30,-27,-81,-959,1786,-7699,1745146176650935279
130912,31,-24,-80,-973,1784,-7728,1745146176710480933
131104,32,-21,-82,-928,1783,-7751,1745146176710480933
131296,36,-19,-85,-891,1795,-7781,1745146176710480933
131488,42,-20,-87,-843,1831,-7819,1745146176710480933
131680,48,-24,-89,-819,1856,-7858,1745146176710480933
131872,55,-27,-88,-819,1856,-7870,1745146176710480933
132064,62,-29,-84,-805,1854,-7876,1745146176710480933
132256,68,-30,-82,-793,1815,-7871,1745146176710480933
132448,74,-31,-79,-794,1778,-7867,1745146176710480933
132640,77,-32,-78,-775,1747,-7866,1745146176710480933
132832,79,-34,-77,-771,1746,-7853,1745146176710480933
133024,78,-35,-78,-758,1742,-7849,1745146176710480933
133216,76,-36,-76,-751,1748,-7853,1745146176769204668
133408,74,-38,-74,-750,1755,-7865,1745146176769204668
133600,74,-40,-72,-739,1772,-7887,1745146176769204668
133792,75,-43,-71,-745,1805,-7922,1745146176769204668
133984,74,-45,-71,-761,1833,-7940,1745146176769204668
134176,73,-47,-72,-788,1855,-7963,1745146176769204668
134368,73,-46,-72,-777,1897,-7982,1745146176769204668
134560,71,-44,-70,-752,1927,-7968,1745146176769204668
134752,71,-45,-68,-729,1940,-7972,1745146176769204668
134944,72,-47,-65,-697,1921,-7957,1745146176769204668
135136,73,-50,-62,-685,1895,-7938,1745146176769204668
135328,72,-55,-61,-690,1874,-7921,1745146176769204668
135520,72,-59,-57,-691,1855,-7893,1745146176826554196
135712,70,-61,-54,-705,1819,-7885,1745146176826554196
135904,68,-63,-50,-720,1779,-7905,1745146176826554196
136096,67,-66,-45,-723,1742,-7919,1745146176826554196
136288,68,-68,-38,-722,1696,-7954,1745146176826554196
136480,69,-71,-33,-737,1686,-7973,1745146176826554196
136672,70,-72,-27,-740,1656,-8000,1745146176826554196
136864,69,-72,-24,-761,1639,-7986,1745146176826554196
137056,67,-70,-20,-777,1622,-7973,1745146176826554196
137248,61,-69,-16,-783,1622,-7950,1745146176826554196
137440,54,-67,-12,-790,1657,-7947,1745146176826554196
137632,47,-65,-8,-790,1710,-7935,1745146176826554196
137824,42,-63,-4,-790,1746,-7943,1745146176886109329
138016,37,-61,0,-798,1810,-7972,1745146176886109329
138208,34,-60,5,-816,1864,-7985,1745146176886109329
138400,34,-58,8,-841,1895,-8007,1745146176886109329
138592,34,-56,11,-878,1902,-8009,1745146176886109329
138784,33,-54,13,-877,1899,-8007,1745146176886109329
138976,33,-51,18,-874,1863,-8018,1745146176886109329
139168,30,-47,24,-856,1835,-8015,1745146176886109329
139360,25,-44,28,-847,1779,-7986,1745146176886109329
139552,21,-40,34,-843,1733,-7982,1745146176886109329
139744,16,-35,39,-835,1692,-7965,1745146176886109329
139936,11,-32,43,-830,1651,-7962,1745146176886109329
140128,8,-28,47,-818,1618,-7946,1745146176943052090
140320,7,-27,50,-826,1590,-7958,1745146176943052090
140512,5,-24,52,-839,1605,-7964,1745146176943052090
140704,5,-22,54,-845,1577,-7985,1745146176943052090
140896,5,-20,55,-863,1584,-8004,1745146176943052090
141088,5,-16,56,-885,1590,-7998,1745146176943052090
141280,5,-11,56,-912,1587,-7993,1745146176943052090
141472,6,-6,56,-922,1613,-7987,1745146176943052090
141664,5,0,56,-934,1637,-7954,1745146176943052090
141856,5,4,55,-927,1670,-7911,1745146176943052090
142048,5,7,55,-934,1706,-7893,1745146176943052090
142240,6,11,54,-922,1746,-7886,1745146176943052090
142432,8,15,53,-906,1766,-7895,1745146177002901543
142624,12,19,54,-908,1803,-7924,1745146177002901543
142816,16,22,55,-925,1823,-7952,1745146177002901543
143008,20,25,54,-894,1815,-7993,1745146177002901543
143200,24,28,54,-892,1802,-7994,1745146177002901543
143392,25,31,53,-881,1741,-8017,1745146177002901543
143584,25,34,54,-875,1689,-8012,1745146177002901543
143776,23,37,55,-859,1634,-7999,1745146177002901543
143968,19,41,56,-838,1575,-7983,1745146177002901543
144160,13,44,56,-825,1552,-7959,1745146177002901543
144352,5,48,57,-798,1536,-7954,1745146177002901543
144544,-1,51,57,-774,1541,-7945,1745146177002901543
144736,-7,53,58,-760,1566,-7960,1745146177059604254
144928,-10,55,57,-754,1589,-7976,1745146177059604254
145120,-13,58,56,-757,1624,-8007,1745146177059604254
145312,-14,61,55,-749,1666,-8028,1745146177059604254
145504,-15,63,55,-771,1689,-8058,1745146177059604254
145696,-16,67,55,-792,1724,-8062,1745146177059604254
145888,-19,71,54,-785,1729,-8051,1745146177059604254
146080,-22,75,53,-801,1719,-8016,1745146177059604254
146272,-26,79,52,-806,1730,-7978,1745146177059604254
146464,-31,83,53,-781,1739,-7946,1745146177059604254
146656,-38,85,55,-775,1737,-7910,1745146177059604254
146848,-42,87,54,-757,1745,-7903,1745146177059604254
147040,-45,88,55,-778,1758,-7913,1745146177119646050
147232,-46,88,57,-788,1742,-7936,1745146177119646050
147424,-44,89,57,-809,1751,-7939,1745146177119646050
147616,-42,90,57,-807,1725,-7965,1745146177119646050
147808,-40,91,56,-818,1696,-7970,1745146177119646050
148000,-38,92,56,-796,1645,-7976,1745146177119646050
148192,-39,94,58,-805,1618,-7963,1745146177119646050
148384,-40,95,59,-779,1593,-7960,1745146177119646050
148576,-43,97,60,-777,1563,-7927,1745146177119646050
148768,-48,99,59,-791,1567,-7900,1745146177119646050
148960,-53,100,57,-766,1587,-7898,1745146177119646050
149152,-59,102,55,-760,1606,-7884,1745146177119646050
149344,-62,103,52,-769,1630,-7886,1745146177178170411
149536,-64,103,50,-781,1676,-7891,1745146177178170411
149728,-63,103,47,-776,1697,-7904,1745146177178170411
149920,-61,101,44,-794,1727,-7908,1745146177178170411
150112,-58,102,40,-790,1745,-7911,1745146177178170411
150304,-56,102,36,-777,1729,-7904,1745146177178170411
150496,-54,101,33,-775,1725,-7899,1745146177178170411
150688,-54,101,30,-770,1714,-7877,1745146177178170411
150880,-55,101,27,-752,1712,-7860,1745146177178170411
151072,-55,101,24,-753,1696,-7847,1745146177178170411
151264,-57,100,21,-740,1693,-7835,1745146177178170411
151456,-57,97,18,-733,1695,-7822,1745146177178170411
151648,-57,95,15,-725,1681,-7809,1745146177237233101
151840,-55,92,12,-716,1683,-7826,1745146177237233101
152032,-53,89,7,-718,1667,-7848,1745146177237233101
152224,-50,86,3,-723,1649,-7866,1745146177237233101
152416,-47,84,-1,-735,1634,-7874,1745146177237233101
152608,-43,82,-6,-732,1620,-7872,1745146177237233101
152800,-42,81,-11,-724,1604,-7865,1745146177237233101
152992,-43,80,-17,-714,1604,-7858,1745146177237233101
153184,-45,78,-20,-706,1597,-7832,1745146177237233101
153376,-46,77,-24,-700,1627,-7827,1745146177237233101
153568,-48,76,-28,-707,1644,-7817,1745146177237233101
153760,-48,73,-33,-704,1689,-7790,1745146177237233101
153952,-45,71,-37,-702,1719,-7803,1745146177293539357
154144,-42,69,-41,-703,1768,-7813,1745146177293539357
154336,-37,66,-45,-679,1786,-7820,1745146177293539357
154528,-30,62,-49,-687,1802,-7841,1745146177293539357
154720,-22,58,-51,-685,1804,-7862,1745146177293539357
154912,-16,56,-53,-675,1796,-7866,1745146177293539357
155104,-9,54,-53,-664,1770,-7863,1745146177293539357
155296,-5,53,-55,-648,1759,-7860,1745146177293539357
155488,-3,50,-55,-627,1749,-7867,1745146177293539357
155680,-3,48,-55,-606,1741,-7860,1745146177293539357
155872,-3,45,-55,-591,1727,-7859,1745146177293539357
156064,-2,43,-55,-575,1733,-7869,1745146177293539357
156256,-2,41,-53,-575,1734,-7893,1745146177353731099
156448,-3,39,-52,-572,1751,-7913,1745146177353731099
156640,-3,38,-53,-565,1776,-7958,1745146177353731099
156832,-4,37,-53,-561,1787,-7987,1745146177353731099
157024,-4,39,-53,-553,1785,-8030,1745146177353731099
157216,-5,42,-55,-559,1785,-8064,1745146177353731099
157408,-5,44,-55,-558,1778,-8077,1745146177353731099
157600,-8,49,-56,-532,1750,-8097,1745146177353731099
157792,-14,55,-58,-554,1735,-8124,1745146177353731099
157984,-21,61,-59,-525,1706,-8161,1745146177353731099
158176,-29,70,-60,-514,1687,-8191,1745146177353731099
158368,-38,80,-60,-477,1692,-8226,1745146177353731099
158560,-48,92,-61,-441,1693,-8297,1745146177409668036
158752,-61,105,-62,-413,1697,-8389,1745146177409668036
158944,-75,119,-63,-360,1693,-8477,1745146177409668036
159136,-89,134,-64,-312,1694,-8599,1745146177409668036
159328,-102,151,-64,-244,1708,-8745,1745146177409668036
159520,-116,168,-65,-116,1715,-8910,1745146177409668036
159712,-131,180,-64,79,1689,-9098,1745146177409668036
159904,-148,179,-61,344,1666,-9225,1745146177409668036
160096,-165,165,-53,575,1619,-9305,1745146177409668036
160288,-176,136,-30,813,1497,-9397,1745146177409668036
160480,-155,95,17,1063,1325,-9178,1745146177409668036
160672,-95,56,61,1194,1311,-9175,1745146177409668036
160864,-79,39,77,1191,1438,-8937,1745146177470041443
161056,-65,32,68,1238,1456,-8227,1745146177470041443
161248,0,4,38,1570,1200,-7605,1745146177470041443
161440,61,-66,-25,2106,728,-6817,1745146177470041443
161632,87,-121,-71,2443,79,-6436,1745146177470041443
161824,58,-126,20,3235,-1040,-7079,1745146177470041443
162016,6,-187,104,4139,-2185,-7830,1745146177470041443
162208,-223,-174,55,4095,-1734,-6263,1745146177470041443
162400,-658,-197,-34,4377,-1764,-7144,1745146177470041443
162592,-1054,-339,-190,4272,-1519,-6869,1745146177470041443
162784,-1452,-344,-317,4315,-1254,-6489,1745146177470041443
162976,-1905,-368,-370,4718,-1187,-6865,1745146177470041443
163168,-2287,-469,-347,4764,-680,-7084,1745146177526740352
163360,-2575,-523,-265,4334,420,-7030,1745146177526740352
163552,-2777,-504,-167,3936,1651,-7250,1745146177526740352
163744,-2872,-469,-75,3796,2780,-7254,1745146177526740352
163936,-2877,-459,5,3964,3367,-7118,1745146177526740352
164128,-2761,-477,50,4094,3945,-6972,1745146177526740352
164320,-2523,-523,143,4252,4287,-6858,1745146177526740352
164512,-2188,-571,274,4393,4511,-6890,1745146177526740352
164704,-1793,-611,425,4423,4599,-6829,1745146177526740352
164896,-1354,-661,590,4369,4448,-6833,1745146177526740352
165088,-877,-735,745,4168,3947,-7088,1745146177526740352
165280,-399,-812,863,3836,3201,-7238,1745146177526740352
165472,22,-847,960,3459,2298,-7241,1745146177587191154
165664,387,-839,1062,2946,1483,-7174,1745146177587191154
165856,606,-783,1201,2513,485,-6857,1745146177587191154
166048,732,-686,1325,2221,-168,-6536,1745146177587191154
166240,760,-557,1445,2009,-578,-6072,1745146177587191154
166432,694,-407,1602,2043,-1030,-5475,1745146177587191154
166624,554,-261,1746,2139,-1359,-4948,1745146177587191154
166816,347,-121,1885,2111,-1617,-4535,1745146177587191154
167008,127,2,2048,1963,-1827,-4068,1745146177587191154
167200,-84,116,2215,1757,-1988,-3792,1745146177587191154
167392,-271,214,2383,1555,-2110,-3482,1745146177587191154
167584,-428,293,2543,1354,-2331,-3226,1745146177587191154
167776,-536,364,2694,1138,-2595,-3005,1745146177640680509
167968,-606,449,2835,913,-2808,-2822,1745146177640680509
168160,-654,562,2980,718,-2862,-2771,1745146177640680509
168352,-700,697,3129,685,-2703,-2868,1745146177640680509
168544,-765,837,3273,790,-2403,-2927,1745146177640680509
168736,-852,964,3416,1018,-2129,-2900,1745146177640680509
168928,-931,1076,3565,1219,-2061,-2976,1745146177640680509
169120,-972,1193,3726,1203,-2024,-3154,1745146177640680509
169312,-982,1332,3892,1134,-1990,-3322,1745146177640680509
169504,-986,1489,4047,1094,-1926,-3444,1745146177640680509
169696,-996,1651,4190,1136,-1842,-3585,1745146177640680509
169888,-1014,1823,4332,1219,-1688,-3710,1745146177640680509
170080,-1033,2009,4480,1280,-1388,-3833,1745146177703160303
170272,-1063,2205,4635,1382,-968,-4056,1745146177703160303
170464,-1108,2406,4795,1530,-415,-4299,1745146177703160303
170656,-1182,2603,4954,1737,128,-4479,1745146177703160303
170848,-1284,2792,5110,2007,629,-4658,1745146177703160303
171040,-1407,2961,5273,2330,1075,-4758,1745146177703160303
171232,-1544,3114,5445,2660,1468,-4806,1745146177703160303
171424,-1685,3251,5615,2986,1881,-4938,1745146177703160303
171616,-1798,3388,5771,3383,2422,-5130,1745146177703160303
171808,-1854,3528,5909,3871,3094,-5438,1745146177703160303
172000,-1846,3636,6003,4639,3680,-5637,1745146177703160303
172192,-1768,3693,6013,5587,4286,-5643,1745146177703160303
172384,-1639,3682,5987,6707,4655,-5753,1745146177760723006
172576,-1409,3612,5915,7746,4801,-5879,1745146177760723006
172768,-1077,3530,5798,8536,5107,-5909,1745146177760723006
172960,-648,3464,5670,9101,5474,-6062,1745146177760723006
173152,-155,3413,5565,9504,6010,-6272,1745146177760723006
173344,350,3397,5493,9870,6169,-6342,1745146177760723006
173536,837,3380,5394,10281,6137,-6289,1745146177760723006
173728,1263,3352,5287,10711,5931,-6184,1745146177760723006
173920,1606,3313,5171,11085,5557,-6148,1745146177760723006
174112,1878,3297,5051,11284,5211,-6069,1745146177760723006
174304,2077,3324,4943,11337,4941,-6032,1745146177760723006
174496,2205,3392,4852,11376,4766,-5945,1745146177760723006
174688,2263,3479,4781,11464,4592,-5883,1745146177820723656
174880,2249,3569,4734,11666,4359,-5775,1745146177820723656
175072,2155,3677,4713,11967,4037,-5631,1745146177820723656
175264,1986,3767,4721,12312,3574,-5242,1745146177820723656
175456,1750,3812,4740,12722,3057,-5019,1745146177820723656
175648,1448,3858,4771,13147,2518,-4743,1745146177820723656
175840,1085,3886,4814,13600,1917,-4569,1745146177820723656
176032,692,3881,4852,14020,1497,-4394,1745146177820723656
176224,220,3846,4876,14350,920,-4190,1745146177820723656
176416,-259,3791,4882,14635,572,-4113,1745146177820723656
176608,-741,3709,4885,14999,138,-3797,1745146177820723656
176800,-1198,3586,4797,15331,-167,-3407,1745146177820723656
176992,-1603,3413,4608,15554,-161,-2914,1745146177877806884
177184,-1961,3221,4400,15875,-148,-2548,1745146177877806884
177376,-2256,3015,4219,16240,-40,-2237,1745146177877806884
177568,-2517,2796,4084,16525,382,-2106,1745146177877806884
177760,-2751,2572,3981,16605,1056,-1963,1745146177877806884
177952,-2970,2374,3898,16433,2339,-2469,1745146177877806884
178144,-3171,2203,3785,15580,2920,-2018,1745146177877806884
178336,-3268,1990,3547,14587,3760,-1907,1745146177877806884
178528,-3314,1724,3316,12988,4474,-1325,1745146177877806884
178720,-3257,1482,3114,12037,4534,-2185,1745146177877806884
178912,-3152,1253,2889,11378,4632,-1424,1745146177877806884
179104,-3026,977,2699,11212,4666,-2070,1745146177877806884
179296,-2856,802,2520,10996,4718,-2285,1745146177938158416
179488,-2666,647,2365,10864,4695,-2595,1745146177938158416
179680,-2450,523,2186,10431,4288,-3093,1745146177938158416
179872,-2189,429,1923,9741,4055,-3370,1745146177938158416
180064,-1940,325,1635,9013,3672,-3711,1745146177938158416
180256,-1667,279,1379,8433,3452,-3986,1745146177938158416
180448,-1408,278,1175,7923,3064,-3912,1745146177938158416
180640,-1174,302,1032,7755,2866,-4252,1745146177938158416
180832,-958,374,968,7690,2505,-3975,1745146177938158416
181024,-760,391,918,7704,2407,-3861,1745146177938158416
181216,-575,419,915,7532,2522,-3800,1745146177938158416
181408,-410,431,982,7627,2186,-3721,1745146177938158416
181600,-221,430,938,7874,1550,-3748,1745146177996271271
181792,-64,415,750,7862,1394,-3703,1745146177996271271
181984,56,396,572,7911,1050,-3670,1745146177996271271
182176,150,375,402,7844,740,-3642,1745146177996271271
182368,223,355,287,7710,395,-3576,1745146177996271271
182560,273,334,238,7619,-52,-3488,1745146177996271271
182752,289,302,203,7527,-317,-3520,1745146177996271271
182944,282,273,210,7573,-647,-3554,1745146177996271271
183136,255,252,212,7630,-892,-3611,1745146177996271271
183328,204,243,200,7596,-1085,-3666,1745146177996271271
183520,124,241,182,7517,-1282,-3756,1745146177996271271
183712,34,254,169,7447,-1495,-3869,1745146177996271271
183904,-51,293,167,7343,-1611,-3884,1745146178053424759
184096,-140,327,193,7227,-1748,-3916,1745146178053424759
184288,-210,360,233,7114,-1784,-3954,1745146178053424759
184480,-261,381,279,7073,-1687,-3935,1745146178053424759
184672,-288,386,323,7116,-1558,-3941,1745146178053424759
184864,-301,368,346,7272,-1405,-3853,1745146178053424759
185056,-283,328,342,7467,-1254,-3842,1745146178053424759
185248,-232,293,310,7617,-1114,-3807,1745146178053424759
185440,-165,256,263,7648,-1041,-3808,1745146178053424759
185632,-69,227,218,7604,-983,-3810,1745146178053424759
185824,23,179,181,7568,-1055,-3736,1745146178053424759
186016,128,131,143,7491,-1198,-3743,1745146178053424759
186208,234,93,103,7376,-1313,-3669,1745146178113259317
186400,326,60,68,7295,-1470,-3654,1745146178113259317
186592,405,38,31,7208,-1654,-3650,1745146178113259317
186784,471,25,-3,7177,-1821,-3600,1745146178113259317
186976,510,4,-27,7226,-2045,-3511,1745146178113259317
187168,537,-24,-52,7301,-2306,-3467,1745146178113259317
187360,554,-49,-89,7326,-2516,-3419,1745146178113259317
187552,559,-68,-132,7338,-2731,-3413,1745146178113259317
187744,557,-79,-171,7354,-2942,-3450,1745146178113259317
187936,547,-85,-212,7339,-3059,-3460,1745146178113259317
188128,521,-85,-252,7288,-3138,-3444,1745146178113259317
188320,481,-83,-291,7232,-3158,-3418,1745146178113259317
188512,434,-75,-320,7152,-3139,-3366,1745146178170669053
188704,383,-75,-333,7113,-3208,-3217,1745146178170669053
188896,335,-83,-330,7114,-3316,-3104,1745146178170669053
189088,301,-93,-317,7143,-3424,-3053,1745146178170669053
189280,275,-100,-301,7148,-3445,-3017,1745146178170669053
189472,241,-101,-289,7176,-3420,-3016,1745146178170669053
189664,200,-101,-280,7179,-3359,-3021,1745146178170669053
189856,162,-108,-273,7225,-3322,-2989,1745146178170669053
190048,133,-116,-266,7267,-3294,-2928,1745146178170669053
190240,109,-129,-259,7323,-3274,-2847,1745146178170669053
190432,90,-147,-251,7352,-3293,-2762,1745146178170669053
190624,82,-166,-240,7418,-3307,-2697,1745146178170669053
190816,82,-184,-232,7477,-3349,-2693,1745146178230106739
191008,86,-202,-229,7531,-3354,-2716,1745146178230106739
191200,90,-215,-231,7524,-3331,-2756,1745146178230106739
191392,89,-223,-236,7487,-3235,-2763,1745146178230106739
191584,87,-227,-234,7437,-3189,-2741,1745146178230106739
191776,84,-233,-223,7392,-3211,-2700,1745146178230106739
191968,89,-243,-200,7354,-3225,-2685,1745146178230106739
192160,104,-248,-174,7329,-3283,-2677,1745146178230106739
192352,118,-248,-151,7311,-3302,-2683,1745146178230106739
192544,124,-246,-137,7336,-3362,-2707,1745146178230106739
192736,127,-235,-129,7286,-3359,-2680,1745146178230106739
192928,120,-232,-120,7249,-3384,-2633,1745146178230106739
193120,116,-224,-110,7231,-3430,-2599,1745146178283546511
193312,112,-224,-95,7203,-3478,-2553,1745146178283546511
193504,120,-216,-77,7192,-3498,-2536,1745146178283546511
193696,129,-210,-59,7201,-3530,-2530,1745146178283546511
193888,143,-196,-44,7215,-3516,-2553,1745146178283546511
194080,155,-182,-37,7222,-3427,-2568,1745146178283546511
194272,155,-167,-34,7228,-3343,-2587,1745146178283546511
194464,149,-157,-29,7236,-3298,-2601,1745146178283546511
194656,144,-146,-18,7217,-3265,-2604,1745146178283546511
194848,148,-137,-2,7206,-3233,-2613,1745146178283546511
195040,157,-126,18,7185,-3206,-2601,1745146178283546511
195232,166,-118,35,7198,-3178,-2582,1745146178283546511
195424,172,-112,43,7210,-3183,-2575,1745146178347233013
195616,175,-112,45,7247,-3195,-2521,1745146178347233013
195808,174,-116,40,7275,-3268,-2458,1745146178347233013
196000,174,-120,31,7282,-3319,-2405,1745146178347233013
196192,179,-123,26,7243,-3328,-2377,1745146178347233013
196384,180,-123,22,7254,-3322,-2368,1745146178347233013
196576,175,-126,15,7251,-3339,-2376,1745146178347233013
196768,175,-127,4,7247,-3344,-2411,1745146178347233013
196960,178,-127,-4,7234,-3319,-2451,1745146178347233013
197152,177,-123,-8,7216,-3294,-2466,1745146178347233013
197344,174,-122,-8,7182,-3273,-2461,1745146178347233013
197536,174,-121,-2,7200,-3251,-2419,1745146178347233013
197728,172,-120,6,7167,-3274,-2453,1745146178400457527
197920,162,-122,9,7122,-3308,-2515,1745146178400457527
198112,157,-116,12,7065,-3268,-2515,1745146178400457527
198304,156,-112,24,7112,-3196,-2528,1745146178400457527
198496,148,-108,29,7060,-3244,-2526,1745146178400457527
198688,120,-98,0,6931,-3341,-2607,1745146178400457527
198880,114,-71,-21,6902,-3161,-2639,1745146178400457527
199072,110,-71,0,7038,-3099,-2444,1745146178400457527
199264,109,-97,7,7298,-3275,-2391,1745146178400457527
199456,122,-136,-27,7472,-3327,-2375,1745146178400457527
199648,130,-165,-72,7465,-3396,-2335,1745146178400457527
199840,136,-180,-107,7379,-3455,-2387,1745146178400457527
200032,136,-185,-122,7239,-3483,-2438,1745146178463812417
200224,130,-184,-121,7089,-3483,-2497,1745146178463812417
200416,118,-178,-111,6968,-3447,-2549,1745146178463812417
200608,104,-167,-102,6917,-3410,-2574,1745146178463812417
200800,89,-152,-99,6895,-3366,-2577,1745146178463812417
200992,74,-136,-99,6900,-3359,-2564,1745146178463812417
201184,59,-119,-98,6930,-3333,-2575,1745146178463812417
201376,46,-102,-89,6930,-3348,-2585,1745146178463812417
201568,33,-86,-78,6950,-3348,-2528,1745146178463812417
201760,18,-78,-67,7031,-3373,-2460,1745146178463812417
201952,3,-81,-63,7108,-3471,-2431,1745146178463812417
202144,-1,-87,-68,7175,-3505,-2425,1745146178463812417
202336,0,-87,-78,7196,-3484,-2443,1745146178521118456
202528,1,-84,-96,7155,-3392,-2465,1745146178521118456
202720,-4,-81,-114,7083,-3327,-2470,1745146178521118456
202912,-8,-80,-123,7051,-3300,-2463,1745146178521118456
203104,-4,-83,-122,7039,-3326,-2440,1745146178521118456
203296,8,-90,-116,7062,-3401,-2386,1745146178521118456
203488,22,-97,-109,7104,-3467,-2387,1745146178521118456
203680,38,-100,-105,7108,-3520,-2414,1745146178521118456
203872,47,-99,-106,7088,-3547,-2418,1745146178521118456
204064,51,-96,-105,7051,-3516,-2424,1745146178521118456
204256,55,-92,-99,7025,-3484,-2457,1745146178521118456
204448,59,-88,-89,7001,-3416,-2520,1745146178521118456
204640,61,-82,-77,6968,-3349,-2584,1745146178580685099
204832,62,-75,-63,6961,-3287,-2610,1745146178580685099
205024,71,-70,-48,7000,-3273,-2616,1745146178580685099
205216,83,-66,-35,7047,-3261,-2594,1745146178580685099
205408,94,-66,-26,7087,-3269,-2546,1745146178580685099
205600,101,-68,-18,7103,-3342,-2499,1745146178580685099
205792,107,-74,-11,7116,-3431,-2494,1745146178580685099
205984,117,-77,-5,7094,-3497,-2505,1745146178580685099
206176,123,-76,-5,7056,-3517,-2532,1745146178580685099
206368,120,-71,-11,7001,-3497,-2565,1745146178580685099
206560,112,-59,-20,6958,-3462,-2594,1745146178580685099
206752,103,-49,-26,6933,-3454,-2569,1745146178580685099
206944,97,-43,-27,6977,-3458,-2543,1745146178636972033
207136,96,-40,-22,6993,-3481,-2548,1745146178636972033
207328,96,-34,-17,7028,-3436,-2553,1745146178636972033
207520,96,-29,-13,7071,-3410,-2570,1745146178636972033
207712,89,-27,-10,7117,-3378,-2587,1745146178636972033
207904,87,-28,-4,7122,-3378,-2601,1745146178636972033
208096,89,-30,5,7131,-3335,-2640,1745146178636972033
208288,94,-29,15,7108,-3295,-2664,1745146178636972033
208480,96,-26,23,7081,-3265,-2690,1745146178636972033
208672,95,-25,30,7083,-3243,-2685,1745146178636972033
208864,95,-24,36,7077,-3251,-2676,1745146178636972033
209056,99,-19,43,7075,-3250,-2672,1745146178636972033
209248,104,-15,50,7099,-3250,-2659,1745146178695493686
209440,105,-13,53,7112,-3289,-2655,1745146178695493686
209632,107,-14,53,7147,-3319,-2658,1745146178695493686
209824,110,-15,53,7182,-3338,-2671,1745146178695493686
210016,110,-15,50,7204,-3334,-2661,1745146178695493686
210208,106,-17,47,7245,-3338,-2648,1745146178695493686
210400,102,-18,48,7274,-3370,-2658,1745146178695493686
210592,102,-19,53,7302,-3361,-2712,1745146178695493686
210784,106,-16,60,7297,-3289,-2771,1745146178695493686
210976,105,-9,64,7295,-3227,-2828,1745146178695493686
211168,101,-4,69,7330,-3196,-2822,1745146178695493686
211360,99,-4,77,7361,-3201,-2834,1745146178695493686
211552,103,-7,89,7368,-3215,-2852,1745146178755016579
211744,107,-9,99,7336,-3175,-2905,1745146178755016579
211936,107,-5,105,7305,-3132,-2931,1745146178755016579
212128,101,0,108,7289,-3065,-2937,1745146178755016579
212320,89,1,109,7295,-3067,-2915,1745146178755016579
212512,78,-2,110,7308,-3079,-2890,1745146178755016579
212704,69,-8,110,7325,-3101,-2871,1745146178755016579
212896,57,-13,106,7344,-3113,-2867,1745146178755016579
213088,40,-17,97,7353,-3118,-2890,1745146178755016579
213280,23,-21,84,7349,-3116,-2889,1745146178755016579
213472,10,-25,71,7315,-3065,-2915,1745146178755016579
213664,0,-29,59,7267,-3001,-2956,1745146178755016579
213856,-3,-33,45,7239,-2943,-2981,1745146178814759836
214048,-1,-44,34,7259,-2944,-2943,1745146178814759836
214240,7,-60,22,7251,-2983,-2895,1745146178814759836
214432,21,-76,12,7252,-3033,-2891,1745146178814759836
214624,35,-92,5,7260,-3071,-2909,1745146178814759836
214816,46,-107,-4,7248,-3092,-2923,1745146178814759836
215008,58,-122,-12,7215,-3103,-2951,1745146178814759836
215200,64,-134,-18,7161,-3106,-2968,1745146178814759836
215392,71,-142,-21,7103,-3110,-2987,1745146178814759836
215584,78,-148,-20,7059,-3115,-2973,1745146178814759836
215776,83,-155,-17,7007,-3146,-2958,1745146178814759836
215968,90,-162,-13,6991,-3197,-2957,1745146178814759836
216160,95,-171,-10,6980,-3239,-2912,1745146178871955459
216352,100,-180,-9,6978,-3340,-2874,1745146178871955459
216544,104,-187,-10,6933,-3408,-2836,1745146178871955459
216736,105,-187,-12,6878,-3426,-2852,1745146178871955459
216928,99,-183,-16,6829,-3444,-2868,1745146178871955459
217120,89,-177,-17,6793,-3442,-2866,1745146178871955459
217312,82,-169,-16,6770,-3451,-2867,1745146178871955459
217504,81,-159,-12,6789,-3439,-2872,1745146178871955459
217696,82,-148,-7,6821,-3431,-2885,1745146178871955459
217888,87,-140,-2,6853,-3404,-2859,1745146178871955459
218080,92,-132,4,6872,-3375,-2844,1745146178871955459
218272,96,-128,9,6897,-3357,-2800,1745146178871955459
218464,101,-129,17,6920,-3372,-2777,1745146178931743767
218656,112,-134,28,6924,-3415,-2728,1745146178931743767
218848,123,-141,39,6907,-3465,-2690,1745146178931743767
219040,130,-146,46,6871,-3468,-2718,1745146178931743767
219232,129,-144,53,6846,-3480,-2768,1745146178931743767
219424,120,-137,61,6803,-3450,-2776,1745146178931743767
219616,107,-126,71,6787,-3429,-2788,1745146178931743767
219808,98,-117,82,6787,-3441,-2793,1745146178931743767
220000,92,-114,93,6787,-3461,-2787,1745146178931743767
220192,93,-112,100,6784,-3452,-2774,1745146178931743767
220384,95,-110,101,6741,-3422,-2788,1745146178931743767
220576,96,-107,99,6701,-3392,-2787,1745146178931743767
220768,98,-103,97,6654,-3348,-2768,1745146178988959234
220960,100,-100,96,6628,-3320,-2788,1745146178988959234
221152,101,-98,98,6633,-3310,-2781,1745146178988959234
221344,102,-97,101,6625,-3320,-2791,1745146178988959234
221536,108,-94,105,6652,-3299,-2822,1745146178988959234
221728,115,-89,105,6667,-3277,-2829,1745146178988959234
221920,116,-85,103,6708,-3287,-2844,1745146178988959234
222112,116,-86,100,6748,-3316,-2806,1745146178988959234
222304,120,-87,100,6765,-3362,-2780,1745146178988959234
222496,120,-87,99,6759,-3337,-2793,1745146178988959234
222688,115,-86,95,6728,-3329,-2791,1745146178988959234
222880,109,-87,88,6715,-3348,-2725,1745146178988959234
223072,108,-93,84,6707,-3439,-2664,1745146179048544315
223264,114,-101,84,6720,-3479,-2700,1745146179048544315
223456,117,-106,83,6731,-3503,-2739,1745146179048544315
223648,113,-106,80,6706,-3497,-2779,1745146179048544315
223840,102,-98,79,6683,-3504,-2814,1745146179048544315
224032,91,-89,81,6682,-3509,-2860,1745146179048544315
224224,85,-81,87,6703,-3518,-2885,1745146179048544315
224416,88,-70,97,6721,-3526,-2891,1745146179048544315
224608,95,-59,104,6751,-3522,-2903,1745146179048544315
224800,100,-52,107,6797,-3531,-2923,1745146179048544315
224992,103,-48,107,6820,-3568,-2929,1745146179048544315
225184,112,-45,108,6820,-3593,-2894,1745146179048544315
225376,127,-43,112,6801,-3575,-2899,1745146179105708897
225568,137,-40,112,6773,-3562,-2939,1745146179105708897
225760,143,-37,111,6753,-3532,-2951,1745146179105708897
225952,145,-36,111,6745,-3559,-2952,1745146179105708897
226144,148,-37,111,6727,-3591,-2966,1745146179105708897
226336,151,-36,114,6737,-3622,-3003,1745146179105708897
226528,151,-31,115,6742,-3611,-3024,1745146179105708897
226720,148,-24,115,6793,-3612,-3045,1745146179105708897
226912,146,-20,112,6846,-3614,-3016,1745146179105708897
227104,154,-21,113,6921,-3641,-3021,1745146179105708897
227296,177,-26,117,6964,-3624,-3068,1745146179105708897
227488,210,-32,117,7011,-3569,-3111,1745146179105708897
227680,241,-37,112,7005,-3487,-3144,1745146179165652151
227872,270,-42,104,6994,-3456,-3135,1745146179165652151
228064,294,-51,102,6994,-3492,-3096,1745146179165652151
228256,318,-65,107,6965,-3580,-3029,1745146179165652151
228448,346,-78,119,6942,-3673,-3013,1745146179165652151
228640,367,-86,130,6920,-3747,-3041,1745146179165652151
228832,372,-91,136,6902,-3828,-3070,1745146179165652151
229024,363,-93,139,6891,-3895,-3054,1745146179165652151
229216,345,-95,143,6864,-3939,-3018,1745146179165652151
229408,324,-94,150,6833,-3980,-2998,1745146179165652151
229600,302,-91,156,6812,-3971,-3016,1745146179165652151
229792,277,-88,157,6831,-3958,-3021,1745146179165652151
229984,248,-87,153,6862,-3957,-3013,1745146179222849962
230176,222,-91,148,6893,-3982,-2995,1745146179222849962
230368,200,-98,144,6910,-3968,-2968,1745146179222849962
230560,178,-106,137,6919,-3952,-2951,1745146179222849962
230752,153,-110,125,6895,-3907,-2934,1745146179222849962
230944,125,-116,112,6880,-3890,-2921,1745146179222849962
231136,97,-122,101,6857,-3898,-2902,1745146179222849962
231328,74,-131,96,6830,-3914,-2924,1745146179222849962
231520,57,-136,93,6817,-3904,-2948,1745146179222849962
231712,41,-138,89,6812,-3889,-2951,1745146179222849962
231904,29,-138,85,6796,-3862,-2946,1745146179222849962
232096,19,-137,78,6810,-3823,-2937,1745146179222849962
232288,7,-138,72,6818,-3773,-2926,1745146179284296588
232480,-4,-140,67,6834,-3746,-2903,1745146179284296588
232672,-12,-144,66,6835,-3715,-2885,1745146179284296588
232864,-14,-148,66,6819,-3702,-2850,1745146179284296588
233056,-16,-154,63,6804,-3675,-2830,1745146179284296588
233248,-19,-160,59,6775,-3687,-2816,1745146179284296588
233440,-18,-163,53,6732,-3703,-2804,1745146179284296588
233632,-14,-163,50,6703,-3701,-2805,1745146179284296588
233824,-10,-161,46,6703,-3711,-2837,1745146179284296588
234016,-10,-159,41,6711,-3743,-2883,1745146179284296588
234208,-9,-158,38,6696,-3775,-2864,1745146179284296588
234400,-4,-154,36,6690,-3775,-2877,1745146179284296588
234592,0,-147,36,6688,-3762,-2886,1745146179339099265
234784,2,-140,37,6679,-3753,-2918,1745146179339099265
234976,6,-131,40,6670,-3732,-2922,1745146179339099265
235168,12,-125,44,6651,-3719,-2907,1745146179339099265
235360,20,-119,52,6648,-3724,-2900,1745146179339099265
235552,32,-117,58,6641,-3706,-2852,1745146179339099265
235744,43,-119,65,6631,-3719,-2831,1745146179339099265
235936,56,-120,70,6615,-3723,-2858,1745146179339099265
236128,71,-119,76,6621,-3720,-2867,1745146179339099265
236320,82,-117,79,6581,-3703,-2882,1745146179339099265
236512,91,-113,81,6558,-3664,-2886,1745146179339099265
236704,100,-109,83,6549,-3645,-2876,1745146179339099265
236896,107,-105,85,6547,-3618,-2860,1745146179394353656
237088,115,-104,85,6584,-3632,-2842,1745146179394353656
237280,126,-105,84,6564,-3654,-2820,1745146179394353656
237472,136,-106,80,6562,-3677,-2767,1745146179394353656
237664,142,-109,74,6541,-3681,-2749,1745146179394353656
237856,143,-114,67,6517,-3717,-2711,1745146179394353656
238048,141,-118,63,6465,-3773,-2666,1745146179394353656
238240,139,-122,61,6407,-3796,-2653,1745146179394353656
238432,140,-120,63,6338,-3829,-2631,1745146179394353656
238624,144,-113,68,6257,-3822,-2676,1745146179394353656
238816,154,-103,80,6190,-3805,-2726,1745146179394353656
239008,167,-94,92,6121,-3754,-2769,1745146179394353656
239200,180,-83,97,6076,-3735,-2813,1745146179462776937
239392,190,-66,99,6057,-3707,-2854,1745146179462776937
239584,197,-45,106,6073,-3706,-2865,1745146179462776937
239776,202,-25,116,6180,-3748,-2870,1745146179462776937
239968,206,-4,129,6318,-3790,-2843,1745146179462776937
240160,206,13,141,6484,-3807,-2762,1745146179462776937
240352,203,24,146,6632,-3813,-2721,1745146179462776937
240544,197,30,144,6740,-3771,-2682,1745146179462776937
240736,189,30,135,6841,-3720,-2666,1745146179462776937
240928,185,23,123,6875,-3688,-2646,1745146179462776937
241120,185,12,113,6906,-3679,-2603,1745146179462776937
241312,186,-4,102,6930,-3683,-2608,1745146179462776937
241504,185,-19,93,6928,-3715,-2649,1745146179520043914
241504,185,-19,93,6928,-3715,-2649,1745146179520043914
241888,181,-33,75,6855,-3743,-2734,1745146179520043914
242080,177,-35,66,6820,-3753,-2753,1745146179520043914
242272,173,-37,58,6804,-3766,-2740,1745146179520043914
242464,169,-41,52,6797,-3811,-2754,1745146179520043914
242656,166,-43,45,6793,-3833,-2763,1745146179520043914
242848,163,-42,35,6777,-3848,-2770,1745146179520043914
243040,160,-43,25,6770,-3849,-2756,1745146179520043914
243232,159,-46,12,6749,-3873,-2740,1745146179520043914
243424,160,-52,1,6743,-3904,-2737,1745146179520043914
243616,166,-58,-7,6717,-3951,-2745,1745146179520043914
243808,171,-62,-15,6686,-3982,-2749,1745146179579614828
244000,168,-62,-23,6645,-4006,-2789,1745146179579614828
244192,160,-61,-29,6598,-4057,-2799,1745146179579614828
244384,152,-56,-31,6555,-4089,-2816,1745146179579614828
244576,146,-49,-30,6485,-4105,-2832,1745146179579614828
244768,137,-42,-28,6466,-4139,-2836,1745146179579614828
244960,129,-35,-27,6458,-4170,-2853,1745146179579614828
245152,119,-30,-27,6451,-4203,-2883,1745146179579614828
245344,109,-24,-26,6496,-4260,-2906,1745146179579614828
245536,101,-18,-26,6486,-4276,-2869,1745146179579614828
245728,91,-14,-23,6490,-4284,-2833,1745146179579614828
245920,85,-12,-20,6517,-4330,-2830,1745146179579614828
246112,87,-12,-15,6497,-4324,-2840,1745146179631754820
246304,89,-9,-13,6497,-4284,-2858,1745146179631754820
246496,86,-6,-16,6490,-4250,-2885,1745146179631754820
246688,83,-4,-17,6499,-4259,-2885,1745146179631754820
246880,85,-6,-11,6506,-4279,-2894,1745146179631754820
247072,94,-12,-1,6501,-4327,-2906,1745146179631754820
247264,106,-16,8,6483,-4351,-2903,1745146179631754820
247456,114,-16,13,6470,-4352,-2886,1745146179631754820
247648,118,-15,15,6437,-4353,-2894,1745146179631754820
247840,119,-14,18,6402,-4346,-2924,1745146179631754820
248032,122,-15,22,6379,-4371,-2937,1745146179631754820
248224,125,-17,28,6366,-4366,-2932,1745146179631754820
248416,126,-15,33,6341,-4357,-2925,1745146179697572605
248608,126,-12,38,6352,-4363,-2930,1745146179697572605
248800,126,-8,45,6346,-4352,-2928,1745146179697572605
248992,132,-8,52,6377,-4340,-2948,1745146179697572605
249184,139,-7,57,6378,-4306,-2917,1745146179697572605
249376,146,-9,61,6400,-4323,-2890,1745146179697572605
249568,151,-11,62,6399,-4341,-2866,1745146179697572605
249760,156,-12,63,6368,-4308,-2876,1745146179697572605
249952,158,-12,66,6370,-4288,-2896,1745146179697572605
250144,160,-8,69,6340,-4254,-2906,1745146179697572605
250336,159,-4,73,6368,-4259,-2931,1745146179697572605
250528,158,-3,78,6432,-4283,-2925,1745146179697572605
250720,157,-2,83,6494,-4320,-2941,1745146179751620496
250912,158,0,86,6532,-4307,-2943,1745146179751620496
251104,156,2,85,6559,-4263,-2926,1745146179751620496
251296,149,3,79,6567,-4214,-2894,1745146179751620496
251488,143,-3,72,6584,-4202,-2859,1745146179751620496
251680,142,-12,68,6587,-4200,-2860,1745146179751620496
251872,144,-24,64,6561,-4176,-2827,1745146179751620496
252064,142,-34,59,6546,-4198,-2813,1745146179751620496
252256,138,-42,55,6544,-4203,-2829,1745146179751620496
252448,134,-46,51,6510,-4221,-2839,1745146179751620496
252640,126,-47,43,6496,-4203,-2831,1745146179751620496
252832,116,-48,37,6508,-4226,-2823,1745146179751620496
253024,105,-50,34,6497,-4247,-2796,1745146179813283214
253216,98,-53,31,6504,-4268,-2774,1745146179813283214
253408,94,-56,27,6499,-4268,-2748,1745146179813283214
253600,88,-60,19,6508,-4266,-2723,1745146179813283214
253792,81,-62,10,6496,-4241,-2711,1745146179813283214
253984,73,-64,1,6494,-4248,-2708,1745146179813283214
254176,64,-64,-4,6481,-4241,-2699,1745146179813283214
254368,57,-63,-7,6472,-4226,-2652,1745146179813283214
254560,48,-64,-11,6458,-4231,-2626,1745146179813283214
254752,39,-65,-13,6451,-4253,-2614,1745146179813283214
254944,32,-62,-17,6436,-4263,-2639,1745146179813283214
255136,24,-56,-20,6411,-4251,-2666,1745146179813283214
255328,17,-48,-24,6427,-4242,-2639,1745146179870402849
255520,16,-43,-27,6453,-4254,-2609,1745146179870402849
255712,18,-39,-30,6466,-4247,-2602,1745146179870402849
255904,19,-38,-33,6488,-4253,-2619,1745146179870402849
256096,19,-36,-35,6489,-4244,-2583,1745146179870402849
256288,19,-33,-37,6501,-4256,-2584,1745146179870402849
256480,20,-30,-37,6475,-4252,-2613,1745146179870402849
256672,20,-24,-37,6449,-4215,-2646,1745146179870402849
256864,16,-19,-39,6426,-4187,-2648,1745146179870402849
257056,10,-14,-41,6416,-4188,-2626,1745146179870402849
257248,7,-12,-42,6381,-4192,-2619,1745146179870402849
257440,7,-9,-43,6366,-4206,-2581,1745146179870402849
257632,5,-8,-46,6355,-4236,-2574,1745146179930474904
257824,5,-9,-48,6369,-4264,-2624,1745146179930474904
258016,10,-8,-52,6361,-4282,-2662,1745146179930474904
258208,15,-6,-57,6344,-4260,-2715,1745146179930474904
258400,17,-2,-63,6340,-4258,-2730,1745146179930474904
258592,20,2,-66,6350,-4235,-2718,1745146179930474904
258784,22,2,-66,6338,-4257,-2690,1745146179930474904
258976,24,2,-63,6353,-4298,-2677,1745146179930474904
259168,27,0,-58,6358,-4327,-2679,1745146179930474904
259360,28,-2,-55,6376,-4369,-2693,1745146179930474904
259552,22,-1,-55,6375,-4383,-2718,1745146179930474904
259744,11,1,-55,6380,-4402,-2705,1745146179930474904
259936,-1,4,-53,6380,-4402,-2699,1745146179987636778
260128,-11,8,-48,6380,-4393,-2713,1745146179987636778
260320,-24,12,-44,6384,-4367,-2723,1745146179987636778
260512,-37,18,-43,6396,-4324,-2718,1745146179987636778
260704,-49,21,-45,6396,-4296,-2708,1745146179987636778
260896,-56,21,-48,6418,-4241,-2721,1745146179987636778
261088,-60,20,-53,6411,-4216,-2749,1745146179987636778
261280,-59,17,-59,6408,-4186,-2754,1745146179987636778
261472,-54,14,-65,6400,-4192,-2767,1745146179987636778
261664,-46,12,-71,6385,-4185,-2756,1745146179987636778
261856,-38,10,-77,6347,-4186,-2749,1745146179987636778
262048,-32,11,-82,6331,-4169,-2765,1745146179987636778
262240,-32,14,-87,6328,-4167,-2776,1745146180044068085
262432,-34,17,-90,6359,-4181,-2749,1745146180044068085
262624,-31,18,-90,6410,-4224,-2755,1745146180044068085
262816,-26,19,-89,6478,-4256,-2768,1745146180044068085
263008,-22,20,-88,6525,-4275,-2778,1745146180044068085
263200,-22,21,-88,6566,-4287,-2767,1745146180044068085
263392,-22,21,-87,6554,-4273,-2767,1745146180044068085
263584,-26,22,-87,6541,-4238,-2756,1745146180044068085
263776,-30,22,-86,6516,-4215,-2739,1745146180044068085
263968,-32,21,-81,6492,-4246,-2709,1745146180044068085
264160,-29,18,-75,6493,-4277,-2696,1745146180044068085
264352,-23,15,-69,6507,-4343,-2668,1745146180044068085
264544,-19,15,-66,6519,-4372,-2703,1745146180105611325
264736,-21,19,-62,6494,-4367,-2751,1745146180105611325
264928,-28,28,-59,6477,-4341,-2782,1745146180105611325
265120,-37,39,-53,6464,-4302,-2812,1745146180105611325
265312,-42,49,-45,6447,-4276,-2813,1745146180105611325
265504,-43,59,-38,6475,-4222,-2799,1745146180105611325
265696,-43,66,-33,6516,-4222,-2766,1745146180105611325
265888,-41,68,-30,6558,-4238,-2741,1745146180105611325
266080,-35,66,-29,6591,-4268,-2739,1745146180105611325
266272,-27,66,-30,6598,-4241,-2777,1745146180105611325
266464,-24,69,-33,6588,-4173,-2808,1745146180105611325
266656,-26,72,-37,6554,-4134,-2812,1745146180105611325
266848,-28,74,-39,6560,-4102,-2817,1745146180162950072
267040,-26,75,-38,6555,-4076,-2825,1745146180162950072
267232,-25,77,-37,6555,-4070,-2819,1745146180162950072
267424,-27,79,-39,6579,-4054,-2825,1745146180162950072
267616,-30,81,-45,6608,-4060,-2819,1745146180162950072
267808,-32,78,-51,6642,-4066,-2794,1745146180162950072
268000,-32,70,-59,6681,-4091,-2766,1745146180162950072
268192,-29,59,-66,6684,-4144,-2741,1745146180162950072
268384,-23,49,-71,6682,-4197,-2772,1745146180162950072
268576,-15,45,-75,6657,-4195,-2831,1745146180162950072
268768,-13,48,-78,6623,-4144,-2864,1745146180162950072
268960,-18,53,-81,6616,-4127,-2835,1745146180162950072
269152,-24,53,-78,6635,-4124,-2803,1745146180222468122
269344,-20,51,-69,6650,-4146,-2784,1745146180222468122
269536,-8,51,-60,6679,-4140,-2811,1745146180222468122
269728,-1,53,-53,6711,-4120,-2832,1745146180222468122
269920,1,56,-50,6723,-4092,-2829,1745146180222468122
270112,1,55,-49,6740,-4110,-2804,1745146180222468122
270304,4,50,-45,6742,-4122,-2737,1745146180222468122
270496,7,43,-43,6720,-4153,-2681,1745146180222468122
270688,11,38,-42,6710,-4196,-2693,1745146180222468122
270880,12,36,-42,6689,-4240,-2703,1745146180222468122
271072,12,37,-41,6647,-4287,-2758,1745146180222468122
271264,15,41,-39,6636,-4299,-2796,1745146180222468122
271456,17,50,-36,6611,-4260,-2816,1745146180279411144
271648,12,59,-33,6607,-4197,-2818,1745146180279411144
271840,7,64,-26,6633,-4194,-2777,1745146180279411144
272032,7,64,-17,6647,-4216,-2756,1745146180279411144
272224,8,64,-7,6665,-4220,-2772,1745146180279411144
272416,8,63,-2,6694,-4231,-2768,1745146180279411144
272608,3,60,0,6727,-4270,-2742,1745146180279411144
272800,-4,57,0,6745,-4313,-2726,1745146180279411144
272992,-10,54,1,6714,-4300,-2724,1745146180279411144
273184,-19,56,3,6665,-4243,-2750,1745146180279411144
273376,-31,59,3,6594,-4171,-2752,1745146180279411144
273568,-40,64,2,6562,-4090,-2758,1745146180279411144
273760,-45,66,-1,6572,-4038,-2731,1745146180338107378
273952,-46,64,-3,6616,-4051,-2676,1745146180338107378
274144,-43,59,-4,6683,-4098,-2682,1745146180338107378
274336,-36,54,-6,6725,-4096,-2743,1745146180338107378
274528,-31,52,-10,6715,-4081,-2789,1745146180338107378
274720,-28,51,-16,6691,-4061,-2793,1745146180338107378
274912,-26,48,-23,6675,-4058,-2767,1745146180338107378
275104,-24,43,-26,6681,-4096,-2735,1745146180338107378
275296,-21,38,-25,6686,-4160,-2701,1745146180338107378
275488,-17,34,-24,6681,-4222,-2708,1745146180338107378
275680,-11,33,-21,6684,-4243,-2726,1745146180338107378
275872,-10,33,-19,6664,-4239,-2719,1745146180338107378
276064,-16,33,-15,6658,-4212,-2725,1745146180397657928
276256,-22,32,-8,6647,-4218,-2694,1745146180397657928
276448,-27,30,3,6625,-4246,-2665,1745146180397657928
276640,-27,29,13,6624,-4254,-2682,1745146180397657928
276832,-28,33,20,6598,-4240,-2720,1745146180397657928
277024,-32,39,24,6601,-4223,-2755,1745146180397657928
277216,-37,44,27,6599,-4208,-2751,1745146180397657928
277408,-38,48,31,6614,-4190,-2726,1745146180397657928
277600,-38,49,32,6622,-4180,-2703,1745146180397657928
277792,-38,50,34,6626,-4143,-2690,1745146180397657928
277984,-37,50,31,6613,-4124,-2663,1745146180397657928
278176,-37,48,27,6601,-4108,-2626,1745146180397657928
278368,-37,45,25,6603,-4112,-2620,1745146180454545846
278560,-36,42,23,6611,-4148,-2624,1745146180454545846
278752,-37,42,24,6606,-4165,-2668,1745146180454545846
278944,-42,45,25,6600,-4162,-2699,1745146180454545846
279136,-48,51,26,6597,-4126,-2714,1745146180454545846
279328,-57,57,28,6609,-4094,-2715,1745146180454545846
279520,-62,61,31,6638,-4082,-2693,1745146180454545846
279712,-61,63,35,6686,-4079,-2665,1745146180454545846
279904,-55,62,38,6724,-4064,-2659,1745146180454545846
280096,-48,59,39,6747,-4037,-2654,1745146180454545846
280288,-42,55,36,6758,-4012,-2660,1745146180454545846
280480,-39,51,34,6734,-3992,-2670,1745146180454545846
280672,-36,47,34,6720,-3968,-2663,1745146180514284154
280864,-31,45,36,6700,-3948,-2684,1745146180514284154
281056,-25,43,38,6653,-3954,-2683,1745146180514284154
281248,-22,39,35,6643,-3943,-2669,1745146180514284154
281440,-19,37,31,6636,-3955,-2660,1745146180514284154
281632,-17,35,26,6631,-3991,-2665,1745146180514284154
281824,-16,32,22,6637,-3970,-2649,1745146180514284154
282016,-16,29,18,6654,-3966,-2632,1745146180514284154
282208,-16,24,14,6670,-3980,-2635,1745146180514284154
282400,-16,19,10,6686,-4003,-2630,1745146180514284154
282592,-15,16,7,6696,-4019,-2612,1745146180514284154
282784,-15,14,4,6685,-3998,-2626,1745146180514284154
282976,-16,15,1,6667,-3995,-2635,1745146180572677267
283168,-22,17,-2,6651,-3966,-2631,1745146180572677267
283360,-28,20,-3,6644,-3954,-2622,1745146180572677267
283552,-32,21,-1,6633,-3954,-2602,1745146180572677267
283744,-32,22,1,6650,-3969,-2612,1745146180572677267
283936,-29,23,-1,6661,-3986,-2611,1745146180572677267
284128,-29,25,-3,6668,-4002,-2640,1745146180572677267
284320,-29,27,-6,6679,-4044,-2651,1745146180572677267
284512,-25,30,-7,6662,-4037,-2657,1745146180572677267
284704,-21,35,-5,6626,-4010,-2668,1745146180572677267
284896,-17,42,-4,6610,-3981,-2674,1745146180572677267
285088,-13,47,-3,6612,-3971,-2647,1745146180572677267
285280,-10,47,0,6632,-4012,-2650,1745146180631573239
285472,1,46,6,6647,-4030,-2652,1745146180631573239
285664,12,46,11,6668,-4043,-2676,1745146180631573239
285856,17,47,15,6684,-4031,-2715,1745146180631573239
286048,19,49,18,6689,-4027,-2702,1745146180631573239
286240,22,48,23,6705,-4049,-2673,1745146180631573239
286432,25,45,28,6711,-4078,-2673,1745146180631573239
286624,28,43,32,6699,-4074,-2716,1745146180631573239
286816,27,45,32,6679,-4074,-2733,1745146180631573239
287008,22,47,28,6683,-4063,-2768,1745146180631573239
287200,16,47,25,6714,-4073,-2768,1745146180631573239
287392,9,44,22,6734,-4097,-2747,1745146180631573239
287584,4,38,19,6729,-4114,-2737,1745146180684933898
287776,-2,35,14,6730,-4100,-2741,1745146180684933898
287968,-10,34,9,6705,-4083,-2768,1745146180684933898
288160,-18,32,2,6714,-4078,-2774,1745146180684933898
288352,-21,28,-3,6734,-4090,-2782,1745146180684933898
288544,-18,23,-6,6750,-4106,-2823,1745146180684933898
288736,-12,21,-6,6756,-4087,-2846,1745146180684933898
288928,-12,21,-8,6780,-4074,-2854,1745146180684933898
289120,-13,18,-8,6794,-4099,-2844,1745146180684933898
289312,-11,15,-8,6804,-4104,-2849,1745146180684933898
289504,-10,10,-5,6829,-4130,-2846,1745146180684933898
289696,-12,4,-6,6835,-4179,-2872,1745146180684933898
289888,-15,-1,-7,6817,-4215,-2892,1745146180748224726
290080,-19,-2,-8,6791,-4230,-2895,1745146180748224726
290272,-25,-3,-7,6756,-4236,-2903,1745146180748224726
290464,-31,-1,-4,6737,-4229,-2918,1745146180748224726
290656,-36,2,-1,6723,-4189,-2957,1745146180748224726
290848,-43,3,0,6741,-4151,-2985,1745146180748224726
291040,-50,2,-1,6782,-4157,-2956,1745146180748224726
291232,-57,-6,-1,6824,-4220,-2938,1745146180748224726
291424,-58,-14,2,6856,-4266,-2947,1745146180748224726
291616,-57,-20,4,6867,-4266,-3023,1745146180748224726
291808,-63,-22,3,6839,-4234,-3091,1745146180748224726
292000,-75,-22,0,6801,-4185,-3121,1745146180748224726
292192,-88,-22,-2,6769,-4146,-3153,1745146180807117833
292384,-96,-24,-1,6770,-4133,-3166,1745146180807117833
292576,-99,-27,3,6799,-4145,-3198,1745146180807117833
292768,-97,-29,4,6825,-4146,-3274,1745146180807117833
292960,-94,-30,1,6863,-4133,-3371,1745146180807117833
293152,-93,-31,-7,6866,-4081,-3435,1745146180807117833
293344,-94,-34,-18,6885,-4042,-3507,1745146180807117833
293536,-99,-40,-28,6891,-4038,-3597,1745146180807117833
293728,-104,-47,-36,6871,-4046,-3723,1745146180807117833
293920,-106,-53,-44,6842,-4043,-3853,1745146180807117833
294112,-104,-56,-55,6844,-4038,-3993,1745146180807117833
294304,-106,-63,-73,6842,-4038,-4202,1745146180807117833
294496,-111,-76,-91,6868,-4044,-4373,1745146180863820284
294688,-119,-92,-110,6898,-4035,-4530,1745146180863820284
294880,-129,-111,-131,6956,-4043,-4658,1745146180863820284
295072,-137,-136,-153,7065,-4037,-4745,1745146180863820284
295264,-142,-173,-180,7240,-3991,-4859,1745146180863820284
295456,-142,-224,-217,7424,-3866,-5064,1745146180863820284
295648,-132,-287,-269,7601,-3596,-5343,1745146180863820284
295840,-106,-364,-341,7773,-3193,-5658,1745146180863820284
296032,-63,-466,-429,8019,-2693,-5945,1745146180863820284
296224,-2,-607,-535,8385,-2204,-6287,1745146180863820284
296416,74,-797,-660,8882,-1735,-6509,1745146180863820284
296608,168,-1046,-814,9525,-1328,-6651,1745146180863820284
296800,274,-1368,-1003,10196,-903,-6773,1745146180923728018
296992,389,-1751,-1228,10845,-364,-7037,1745146180923728018
297184,498,-2176,-1499,11271,281,-7183,1745146180923728018
297376,582,-2617,-1812,11510,927,-7548,1745146180923728018
297568,649,-3043,-2152,11585,1498,-7927,1745146180923728018
297760,714,-3445,-2485,11526,1965,-8299,1745146180923728018
297952,773,-3836,-2790,11562,2244,-8524,1745146180923728018
298144,825,-4224,-3071,11711,2377,-8879,1745146180923728018
298336,849,-4579,-3329,11713,2448,-9211,1745146180923728018
298528,836,-4864,-3559,11508,2471,-9542,1745146180923728018
298720,769,-5076,-3748,11166,2407,-9755,1745146180923728018
298912,663,-5187,-3897,10708,2399,-9922,1745146180923728018
299104,519,-5213,-4007,10306,2426,-10076,1745146180980610572
299296,341,-5240,-4088,10023,2565,-10297,1745146180980610572
299488,153,-5167,-4168,10039,2544,-10549,1745146180980610572
299680,-35,-5078,-4227,10182,2695,-10418,1745146180980610572
299872,-222,-4998,-4269,10470,2972,-10325,1745146180980610572
300064,-374,-4903,-4282,10802,3476,-10109,1745146180980610572
300256,-479,-4822,-4275,11055,4094,-9920,1745146180980610572
300448,-533,-4748,-4278,11145,4720,-9698,1745146180980610572
300640,-556,-4688,-4296,11200,5161,-9495,1745146180980610572
300832,-540,-4634,-4335,11208,5362,-9276,1745146180980610572
301024,-504,-4592,-4362,11176,5538,-8913,1745146180980610572
301216,-447,-4545,-4374,11096,5436,-8560,1745146180980610572
301408,-378,-4506,-4379,10976,5197,-8126,1745146181040522733
301600,-304,-4471,-4387,10724,4930,-7755,1745146181040522733
301792,-226,-4430,-4394,10302,4701,-7491,1745146181040522733
301984,-151,-4380,-4391,9783,4484,-7252,1745146181040522733
302176,-82,-4319,-4375,9259,4172,-7056,1745146181040522733
302368,-23,-4239,-4350,8742,3792,-6949,1745146181040522733
302560,20,-4147,-4318,8305,3406,-6835,1745146181040522733
302752,51,-4045,-4286,7992,3009,-6621,1745146181040522733
302944,67,-3954,-4255,7747,2617,-6275,1745146181040522733
303136,88,-3864,-4221,7498,2223,-5945,1745146181040522733
303328,120,-3779,-4189,7355,1880,-5704,1745146181040522733
303520,139,-3702,-4193,7136,1671,-5489,1745146181040522733
303712,141,-3633,-4197,6768,1622,-5307,1745146181097438879
303904,150,-3564,-4160,6489,1519,-5140,1745146181097438879
304096,164,-3490,-4126,6212,1436,-4972,1745146181097438879
304288,187,-3415,-4093,5968,1389,-4749,1745146181097438879
304480,222,-3337,-4040,5694,1333,-4612,1745146181097438879
304672,260,-3255,-3976,5421,1228,-4485,1745146181097438879
304864,295,-3172,-3919,5151,1087,-4314,1745146181097438879
305056,316,-3087,-3864,4966,888,-4221,1745146181097438879
305248,322,-3002,-3805,4771,537,-4174,1745146181097438879
305440,318,-2919,-3747,4547,150,-4181,1745146181097438879
305632,307,-2834,-3689,4269,-220,-4289,1745146181097438879
305824,291,-2741,-3635,3990,-505,-4351,1745146181097438879
306016,265,-2637,-3580,3735,-747,-4326,1745146181160794446
306208,227,-2532,-3521,3540,-906,-4336,1745146181160794446
306400,188,-2424,-3459,3371,-1033,-4312,1745146181160794446
306592,159,-2308,-3403,3198,-1051,-4266,1745146181160794446
306784,143,-2194,-3336,3059,-1030,-4214,1745146181160794446
306976,140,-2083,-3251,2965,-1026,-4053,1745146181160794446
307168,146,-1974,-3163,2785,-1032,-3964,1745146181160794446
307360,154,-1870,-3080,2662,-1171,-3785,1745146181160794446
307552,165,-1782,-2996,2826,-1376,-4160,1745146181160794446
307744,127,-1691,-2914,2457,-1377,-4394,1745146181160794446
307936,82,-1493,-2801,1801,-1175,-4289,1745146181160794446
308128,87,-1258,-2668,1544,-999,-4286,1745146181160794446
308320,123,-1078,-2556,1718,-1038,-4462,1745146181214256666
308512,133,-966,-2458,2133,-1307,-4447,1745146181214256666
308704,129,-882,-2352,2409,-1600,-4434,1745146181214256666
308896,130,-767,-2223,2287,-1755,-4458,1745146181214256666
309088,135,-619,-2072,1960,-1880,-4343,1745146181214256666
309280,143,-456,-1928,1661,-2048,-4504,1745146181214256666
309472,168,-318,-1818,1471,-2223,-4550,1745146181214256666
309664,209,-231,-1748,1466,-2439,-4465,1745146181214256666
309856,250,-168,-1716,1536,-2634,-4430,1745146181214256666
310048,270,-103,-1681,1659,-2848,-4360,1745146181214256666
310240,278,-47,-1625,1825,-2970,-4289,1745146181214256666
310432,277,-1,-1549,2009,-3135,-4185,1745146181214256666
310624,268,37,-1483,2205,-3139,-4298,1745146181274563043
310816,247,67,-1432,2346,-3111,-4484,1745146181274563043
311008,225,93,-1397,2422,-3000,-4754,1745146181274563043
311200,201,123,-1365,2460,-2891,-5157,1745146181274563043
311392,174,156,-1331,2420,-2784,-5572,1745146181274563043
311584,145,191,-1287,2357,-2673,-5898,1745146181274563043
311776,127,224,-1234,2265,-2601,-6144,1745146181274563043
311968,123,260,-1175,2112,-2546,-6431,1745146181274563043
312160,128,305,-1107,1956,-2526,-6622,1745146181274563043
312352,130,341,-1043,1823,-2579,-6700,1745146181274563043
312544,113,354,-979,1723,-2584,-6816,1745146181274563043
312736,85,382,-907,1609,-2595,-6890,1745146181274563043
312928,55,426,-834,1459,-2603,-6905,1745146181333038081
313120,21,475,-770,1347,-2526,-6909,1745146181333038081
313312,-8,517,-704,1289,-2471,-6904,1745146181333038081
313504,-42,554,-647,1275,-2411,-6885,1745146181333038081
313696,-75,585,-597,1311,-2363,-6776,1745146181333038081
313888,-95,596,-550,1446,-2312,-6851,1745146181333038081
314080,-104,598,-506,1613,-2299,-6958,1745146181333038081
314272,-109,596,-461,1805,-2236,-7158,1745146181333038081
314464,-115,595,-416,1965,-2137,-7319,1745146181333038081
314656,-119,595,-369,2086,-2008,-7473,1745146181333038081
314848,-121,597,-346,2283,-1861,-7790,1745146181333038081
315040,-130,632,-349,2178,-1687,-7629,1745146181333038081
315232,-121,633,-345,2172,-1532,-7602,1745146181390342558
315424,-100,617,-337,2147,-1355,-7663,1745146181390342558
315616,-77,601,-327,2111,-1182,-7774,1745146181390342558
315808,-61,579,-325,2058,-980,-7873,1745146181390342558
316000,-61,555,-323,2025,-873,-7901,1745146181390342558
316192,-73,531,-314,1999,-825,-7874,1745146181390342558
316384,-88,501,-290,1973,-844,-7849,1745146181390342558
316576,-101,470,-257,1917,-857,-7816,1745146181390342558
316768,-121,448,-223,1847,-885,-7799,1745146181390342558
316960,-149,435,-186,1766,-870,-7815,1745146181390342558
317152,-190,428,-153,1647,-811,-7824,1745146181390342558
317344,-221,430,-121,1543,-696,-7896,1745146181390342558
317536,-225,437,-88,1457,-533,-8018,1745146181449677432
317728,-182,438,-49,1461,-330,-8166,1745146181449677432
317920,-97,419,-7,1555,-177,-8334,1745146181449677432
318112,16,380,35,1732,-154,-8542,1745146181449677432
318304,139,328,65,1975,-175,-8749,1745146181449677432
318496,248,268,78,2151,-209,-8930,1745146181449677432
318688,324,202,72,2211,-210,-9044,1745146181449677432
318880,365,139,60,2166,-230,-9116,1745146181449677432
319072,378,80,48,2032,-220,-9214,1745146181449677432
319264,358,33,40,1815,-160,-9336,1745146181449677432
319456,302,5,38,1620,-54,-9386,1745146181449677432
319648,225,-17,46,1403,36,-9353,1745146181449677432
319840,135,-43,62,1229,45,-9209,1745146181508062212
320032,24,-85,76,1136,-77,-9257,1745146181508062212
320224,-111,-126,82,1083,-263,-9389,1745146181508062212
320416,-242,-151,83,919,-296,-9260,1745146181508062212
320608,-324,-157,88,679,-80,-8943,1745146181508062212
320800,-350,-149,88,447,238,-8661,1745146181508062212
320992,-337,-132,82,300,544,-8427,1745146181508062212
321184,-308,-113,67,212,703,-8243,1745146181508062212
321376,-274,-96,49,193,749,-8040,1745146181508062212
321568,-230,-81,33,144,801,-7848,1745146181508062212
321760,-178,-56,30,107,863,-7753,1745146181508062212
321952,-130,-41,34,203,826,-7753,1745146181508062212
322144,-73,-68,21,339,746,-7746,1745146181565040701
322336,-17,-134,0,398,672,-7743,1745146181565040701
322528,-1,-204,-12,350,433,-7737,1745146181565040701
322720,-10,-243,-4,147,119,-7791,1745146181565040701
322912,-32,-244,14,-173,-99,-7799,1745146181565040701
323104,-64,-219,27,-434,-54,-7759,1745146181565040701
323296,-90,-192,26,-655,35,-7647,1745146181565040701
323488,-96,-170,22,-779,83,-7598,1745146181565040701
323680,-96,-150,21,-771,26,-7648,1745146181565040701
323872,-110,-129,24,-647,-50,-7812,1745146181565040701
324064,-137,-106,27,-555,-28,-8016,1745146181565040701
324256,-167,-80,35,-423,85,-8172,1745146181565040701
324448,-197,-50,44,-322,263,-8271,1745146181628935691
324640,-225,-25,47,-264,448,-8482,1745146181628935691
324832,-215,-13,47,-172,587,-8677,1745146181628935691
325024,-168,-14,41,-50,690,-8824,1745146181628935691
325216,-124,-18,30,38,742,-8962,1745146181628935691
325408,-95,-25,20,88,713,-9035,1745146181628935691
325600,-84,-32,16,89,610,-9053,1745146181628935691
325792,-84,-35,18,89,492,-9000,1745146181628935691
325984,-92,-34,23,51,353,-8913,1745146181628935691
326176,-104,-28,27,26,253,-8788,1745146181628935691
326368,-122,-16,25,-9,205,-8634,1745146181628935691
326560,-139,-2,20,-59,193,-8474,1745146181628935691
326752,-155,12,13,-80,225,-8298,1745146181685213979
326944,-167,28,3,-96,266,-8117,1745146181685213979
327136,-174,40,-8,-65,335,-7998,1745146181685213979
327328,-177,54,-20,-67,388,-7900,1745146181685213979
327520,-174,64,-32,-36,440,-7845,1745146181685213979
327712,-165,71,-43,-8,500,-7818,1745146181685213979
327904,-152,75,-51,20,553,-7801,1745146181685213979
328096,-136,79,-58,51,579,-7832,1745146181685213979
328288,-120,81,-67,90,594,-7896,1745146181685213979
328480,-102,80,-76,114,584,-7939,1745146181685213979
328672,-86,74,-84,135,546,-8009,1745146181685213979
328864,-74,70,-90,114,511,-8069,1745146181685213979
329056,-66,68,-94,68,489,-8102,1745146181741701431
329248,-61,68,-93,36,455,-8158,1745146181741701431
329440,-62,70,-90,-5,427,-8225,1745146181741701431
329632,-67,76,-88,-28,410,-8262,1745146181741701431
329824,-76,82,-88,-28,412,-8312,1745146181741701431
330016,-89,90,-90,-38,421,-8311,1745146181741701431
330208,-103,103,-96,-44,433,-8277,1745146181741701431
330400,-115,113,-104,-6,454,-8253,1745146181741701431
330592,-128,126,-114,16,514,-8195,1745146181741701431
330784,-142,138,-120,12,596,-8119,1745146181741701431
330976,-153,144,-121,33,668,-8034,1745146181741701431
331168,-155,146,-117,68,731,-7996,1745146181741701431
331360,-151,147,-114,83,784,-7959,1745146181801870673
331552,-142,144,-109,106,812,-7942,1745146181801870673
331744,-131,135,-102,126,837,-7942,1745146181801870673
331936,-120,129,-95,142,818,-7965,1745146181801870673
332128,-111,123,-89,152,814,-7982,1745146181801870673
332320,-105,117,-81,152,782,-8001,1745146181801870673
332512,-104,111,-72,145,734,-8055,1745146181801870673
332704,-105,107,-64,147,707,-8081,1745146181801870673
332896,-106,104,-57,145,691,-8104,1745146181801870673
333088,-110,100,-52,128,671,-8119,1745146181801870673
333280,-117,99,-51,121,656,-8115,1745146181801870673
333472,-125,100,-50,102,641,-8109,1745146181801870673
333664,-133,102,-50,110,627,-8124,1745146181858057556
333856,-143,104,-50,119,616,-8107,1745146181858057556
334048,-154,106,-52,146,604,-8115,1745146181858057556
334240,-165,109,-53,161,607,-8070,1745146181858057556
334432,-174,113,-53,152,631,-8053,1745146181858057556
334624,-180,119,-50,157,676,-8067,1745146181858057556
334816,-186,129,-48,146,724,-8103,1745146181858057556
335008,-192,138,-49,172,773,-8133,1745146181858057556
335200,-195,144,-49,164,792,-8159,1745146181858057556
335392,-196,148,-47,186,811,-8184,1745146181858057556
335584,-196,152,-46,233,845,-8203,1745146181858057556
335776,-199,155,-45,275,860,-8225,1745146181858057556
335968,-207,164,-41,286,870,-8205,1745146181917613106
336160,-214,173,-38,291,840,-8153,1745146181917613106
336352,-222,175,-40,291,837,-8102,1745146181917613106
336544,-224,172,-43,265,822,-8082,1745146181917613106
336736,-223,164,-46,274,807,-8098,1745146181917613106
336928,-221,155,-47,256,792,-8173,1745146181917613106
337120,-224,148,-52,272,808,-8256,1745146181917613106
337312,-230,151,-56,275,806,-8288,1745146181917613106
337504,-233,159,-57,280,829,-8318,1745146181917613106
337696,-238,167,-57,315,852,-8323,1745146181917613106
337888,-248,176,-60,315,878,-8314,1745146181917613106
338080,-259,183,-66,330,897,-8253,1745146181917613106
338272,-264,191,-74,327,922,-8166,1745146181975077841
338464,-265,197,-84,340,932,-8070,1745146181975077841
338656,-256,194,-94,292,949,-7877,1745146181975077841
338848,-243,169,-106,394,961,-7962,1745146181975077841
339040,-229,169,-118,391,946,-7939,1745146181975077841
339232,-213,170,-127,410,939,-7924,1745146181975077841
339424,-196,167,-134,412,922,-7928,1745146181975077841
339616,-183,165,-141,413,921,-7952,1745146181975077841
339808,-171,161,-146,376,908,-7961,1745146181975077841
340000,-161,157,-152,365,917,-7980,1745146181975077841
340192,-157,154,-160,374,920,-7999,1745146181975077841
340384,-155,151,-168,353,922,-8017,1745146181975077841
340576,-156,150,-178,359,937,-8009,1745146182035064429
340768,-157,148,-188,335,954,-7998,1745146182035064429
340960,-159,147,-194,332,966,-8006,1745146182035064429
341152,-162,146,-200,344,1015,-7996,1745146182035064429
341344,-165,145,-207,363,1018,-7963,1745146182035064429
341536,-166,143,-214,381,1064,-7930,1745146182035064429
341728,-164,143,-219,378,1107,-7919,1745146182035064429
341920,-160,144,-223,409,1165,-7915,1745146182035064429
342112,-157,139,-227,446,1228,-7891,1745146182035064429
342304,-152,130,-232,459,1278,-7895,1745146182035064429
342496,-144,120,-243,469,1289,-7876,1745146182035064429
342688,-132,110,-256,491,1284,-7855,1745146182035064429
342880,-121,100,-270,489,1257,-7857,1745146182094406699
343072,-111,89,-282,486,1198,-7848,1745146182094406699
343264,-101,77,-287,455,1135,-7856,1745146182094406699
343456,-96,67,-293,427,1075,-7881,1745146182094406699
343648,-91,56,-298,396,1012,-7905,1745146182094406699
343840,-89,48,-302,379,959,-7917,1745146182094406699
344032,-88,41,-304,354,905,-7955,1745146182094406699
344224,-94,35,-304,355,889,-7985,1745146182094406699
344416,-105,29,-300,347,911,-7986,1745146182094406699
344608,-122,23,-293,336,972,-7989,1745146182094406699
344800,-140,18,-281,335,1064,-7971,1745146182094406699
344992,-156,16,-272,328,1208,-7942,1745146182094406699
345184,-170,14,-268,358,1319,-7938,1745146182153651575
345376,-177,10,-273,460,1424,-7936,1745146182153651575
345568,-169,7,-286,543,1468,-7914,1745146182153651575
345760,-154,6,-296,594,1605,-7944,1745146182153651575
345952,-149,16,-269,655,1761,-8029,1745146182153651575
346144,-143,24,-232,726,1741,-8064,1745146182153651575
346336,-129,22,-219,759,1750,-8152,1745146182153651575
346528,-110,14,-212,743,1727,-8245,1745146182153651575
346720,-88,10,-211,739,1650,-8288,1745146182153651575
346912,-66,5,-212,678,1519,-8358,1745146182153651575
347104,-49,7,-211,618,1343,-8366,1745146182153651575
347296,-42,11,-204,552,1170,-8370,1745146182153651575
347488,-46,18,-192,496,1054,-8368,1745146182215008931
347680,-60,28,-178,438,958,-8337,1745146182215008931
347872,-94,35,-168,519,833,-8165,1745146182215008931
348064,-151,14,-166,707,678,-7957,1745146182215008931
348256,-192,-70,-166,923,481,-8113,1745146182215008931
348448,-315,-64,-164,752,93,-8210,1745146182215008931
348640,-442,-8,-174,396,298,-8073,1745146182215008931
348832,-504,-6,-164,1,854,-7888,1745146182215008931
349024,-510,38,-125,-192,1331,-7828,1745146182215008931
349216,-482,68,-84,-149,1702,-7934,1745146182215008931
349408,-442,98,-65,70,1887,-7985,1745146182215008931
349600,-408,115,-65,347,1946,-7952,1745146182215008931
349792,-380,113,-73,486,1903,-7989,1745146182272481270
349984,-365,124,-91,429,1813,-7996,1745146182272481270
350176,-345,140,-109,317,1877,-7945,1745146182272481270
350368,-306,149,-113,286,2006,-7882,1745146182272481270
350560,-250,152,-104,321,2107,-7873,1745146182272481270
350752,-186,149,-87,409,2124,-7828,1745146182272481270
350944,-129,140,-68,548,2045,-7845,1745146182272481270
351136,-94,126,-57,719,1820,-7873,1745146182272481270
351328,-84,101,-52,793,1609,-7844,1745146182272481270
351520,-42,51,-45,555,1525,-7641,1745146182272481270
351712,-3,28,-25,471,1684,-7878,1745146182272481270
351904,-65,64,8,319,1878,-7837,1745146182272481270
354016,95,11,6,452,1647,-8058,1745146184432953409
435040,128,-87,42,529,1511,-8076,1745146184432953409
435232,322,-121,58,446,304,-8077,1745146184432953409
435424,51,-114,38,225,638,-8175,1745146184432953409
435616,4,-83,44,123,587,-8219,1745146184432953409
435808,11,-74,35,210,570,-8284,1745146184432953409
436000,-34,-65,25,229,649,-8302,1745146184432953409
436192,-55,-42,16,225,648,-8316,1745146184432953409
436384,-70,-34,10,256,658,-8346,1745146184432953409
436576,-104,-21,9,278,745,-8361,1745146184432953409
436768,-113,-3,6,312,765,-8418,1745146184432953409
436960,-123,12,0,188,832,-8437,1745146184432953409
437152,-123,42,-6,166,993,-8460,1745146184486703023
437344,-108,60,-12,276,1043,-8406,1745146184486703023
437536,-101,71,-18,317,1104,-8343,1745146184486703023
437728,-80,97,-17,134,1268,-8396,1745146184486703023
437920,-34,141,-15,-134,1533,-8563,1745146184486703023
438112,21,178,-19,-85,1641,-8730,1745146184486703023
438304,76,182,-37,352,1655,-8527,1745146184486703023
438496,139,193,-46,708,1761,-8379,1745146184486703023
438688,64,228,-50,626,1223,-7313,1745146184486703023
438880,332,185,-15,1224,3111,-8397,1745146184486703023
439072,396,131,-18,1031,2246,-8167,1745146184486703023
439264,498,130,-56,1137,1952,-8503,1745146184486703023
439456,565,198,-34,1581,2070,-10239,1745146184546553257
439648,468,484,120,148,294,-6065,1745146184546553257
439840,366,68,23,2393,-1963,-7524,1745146184546553257
440032,153,-106,-192,711,-1786,-8118,1745146184546553257
440224,55,61,-142,-321,-1359,-8609,1745146184546553257
440416,-83,94,-49,-593,-818,-8577,1745146184546553257
440608,-163,192,-19,-193,-150,-9036,1745146184546553257
440800,-290,212,-41,478,193,-9150,1745146184546553257
440992,-363,224,-93,976,602,-9120,1745146184546553257
441184,-411,217,-101,1216,947,-9051,1745146184546553257
441376,-439,206,-79,1286,1221,-9005,1745146184546553257
441568,-456,193,-49,1329,1409,-9067,1745146184546553257
441760,-463,172,-13,1370,1428,-8999,1745146184605247669
441952,-447,151,1,1375,1350,-8874,1745146184605247669
442144,-419,141,-1,1343,1258,-8874,1745146184605247669
442336,-381,134,-2,1408,1011,-8861,1745146184605247669
442528,-337,114,-8,1528,687,-8681,1745146184605247669
442720,-297,98,-20,1640,327,-8082,1745146184605247669
442912,-263,100,-31,1973,-198,-6209,1745146184605247669
443104,-317,229,-11,2442,-599,-1929,1745146184605247669
443296,-800,231,17,3756,-2036,-3527,1745146184605247669
443488,-1215,19,92,5379,-2813,-6126,1745146184605247669
443680,-1429,-189,122,6011,-2058,-5387,1745146184605247669
443872,-1625,-259,-21,5683,-181,-5391,1745146184605247669
444064,-1664,-320,-219,5146,1332,-6209,1745146184663112713
444256,-1496,-423,-431,4804,2301,-6095,1745146184663112713
444448,-1158,-529,-556,4958,2547,-6128,1745146184663112713
444640,-819,-650,-578,5309,2267,-6430,1745146184663112713
444832,-589,-796,-522,5628,1669,-6589,1745146184663112713
445024,-418,-965,-440,5622,1143,-6572,1745146184663112713
445216,-312,-1124,-344,5338,518,-5839,1745146184663112713
445408,-244,-1215,-239,5016,-222,-5113,1745146184663112713
445600,-189,-1287,-143,4622,-926,-4875,1745146184663112713
445792,-201,-1326,-61,4229,-1614,-4743,1745146184663112713
445984,-304,-1295,-26,3711,-1848,-5046,1745146184663112713
446176,-412,-1264,13,3442,-1679,-5371,1745146184663112713
446368,-511,-1271,68,3323,-1203,-5507,1745146184718987203
446560,-589,-1313,129,3380,-694,-5755,1745146184718987203
446752,-591,-1294,243,3546,-162,-5963,1745146184718987203
446944,-571,-1273,439,3401,425,-6372,1745146184718987203
447136,-529,-1214,656,2913,892,-6653,1745146184718987203
447328,-500,-1121,850,2264,921,-7080,1745146184718987203
447520,-466,-1015,1026,1736,601,-7557,1745146184718987203
447712,-440,-889,1199,1390,119,-7561,1745146184718987203
447904,-479,-732,1379,1187,-463,-7509,1745146184718987203
448096,-570,-564,1558,1038,-891,-7221,1745146184718987203
448288,-696,-404,1731,961,-1061,-6755,1745146184718987203
448480,-836,-256,1886,1005,-1018,-6243,1745146184718987203
448672,-967,-128,2023,1164,-764,-5756,1745146184780003208
448864,-1084,-36,2131,1380,-455,-5346,1745146184780003208
449056,-1190,33,2225,1563,-178,-5019,1745146184780003208
449248,-1277,84,2327,1649,19,-4746,1745146184780003208
449440,-1342,128,2435,1544,131,-4653,1745146184780003208
449632,-1391,187,2551,1326,159,-4644,1745146184780003208
449824,-1439,265,2663,1143,180,-4771,1745146184780003208
450016,-1496,363,2765,1000,189,-4867,1745146184780003208
450208,-1559,473,2862,866,206,-4898,1745146184780003208
450400,-1623,585,2956,801,206,-4808,1745146184780003208
450592,-1680,693,3044,776,173,-4569,1745146184780003208
450784,-1720,791,3125,751,115,-4286,1745146184780003208
450976,-1738,889,3202,663,34,-4178,1745146184839342718
451168,-1725,995,3279,593,89,-4201,1745146184839342718
451360,-1689,1101,3349,559,197,-4361,1745146184839342718
451552,-1644,1211,3411,556,238,-4562,1745146184839342718
451744,-1579,1331,3472,501,241,-4713,1745146184839342718
451936,-1500,1474,3537,485,203,-4870,1745146184839342718
452128,-1409,1631,3606,524,212,-4951,1745146184839342718
452320,-1306,1802,3675,578,291,-4988,1745146184839342718
452512,-1190,1984,3749,617,437,-5004,1745146184839342718
452704,-1054,2171,3833,764,648,-4980,1745146184839342718
452896,-904,2352,3904,1065,840,-4921,1745146184839342718
453088,-739,2535,3943,1154,1276,-4908,1745146184839342718
453280,-555,2710,4013,1417,1504,-4940,1745146184899962737
453472,-372,2862,4068,1819,1717,-5073,1745146184899962737
453664,-214,2997,4143,2257,1858,-5229,1745146184899962737
453856,-96,3122,4266,2752,1812,-5407,1745146184899962737
454048,-30,3242,4380,3222,1532,-5608,1745146184899962737
454240,-8,3343,4448,3660,1317,-5821,1745146184899962737
454432,-30,3427,4501,4036,1164,-5949,1745146184899962737
454624,-69,3533,4527,4398,1040,-6097,1745146184899962737
454816,-117,3637,4540,4828,1153,-6344,1745146184899962737
455008,-161,3738,4559,5368,1311,-6537,1745146184899962737
455200,-215,3827,4580,6017,1702,-6776,1745146184899962737
455392,-267,3904,4620,6769,1788,-6949,1745146184899962737
455584,-301,3956,4621,7439,2099,-7069,1745146184955018067
455776,-286,4005,4616,7944,2460,-7130,1745146184955018067
455968,-210,4063,4605,8318,2833,-7071,1745146184955018067
456160,-101,4116,4608,8652,3469,-7073,1745146184955018067
456352,36,4163,4658,9205,3533,-6793,1745146184955018067
456544,183,4170,4669,9853,3560,-6408,1745146184955018067
456736,331,4160,4674,10440,3525,-5887,1745146184955018067
456928,465,4162,4673,10947,3395,-5680,1745146184955018067
457120,563,4136,4666,11405,3309,-5509,1745146184955018067
457312,609,4101,4658,11834,3166,-5413,1745146184955018067
457504,592,4061,4660,12302,2980,-5379,1745146184955018067
457696,531,4006,4670,12763,2782,-5277,1745146184955018067
457888,430,3946,4688,13204,2497,-5282,1745146185014412004
458080,297,3874,4702,13558,2202,-5290,1745146185014412004
458272,128,3814,4709,13778,1885,-5293,1745146185014412004
458464,-78,3763,4715,13976,1619,-5363,1745146185014412004
458656,-323,3701,4717,14036,1461,-5279,1745146185014412004
458848,-600,3664,4756,14165,1120,-5147,1745146185014412004
459040,-899,3623,4807,14314,732,-4914,1745146185014412004
459232,-1198,3570,4829,14583,307,-4671,1745146185014412004
459424,-1493,3510,4784,14721,101,-4378,1745146185014412004
459616,-1779,3430,4701,14685,109,-3984,1745146185014412004
459808,-2048,3316,4579,14562,171,-3645,1745146185014412004
460000,-2282,3187,4400,14402,283,-3405,1745146185014412004
460192,-2479,3049,4159,14296,532,-3168,1745146185072371579
460384,-2651,2902,3897,14047,1041,-2901,1745146185072371579
460576,-2782,2753,3661,13800,1569,-2696,1745146185072371579
460768,-2849,2601,3449,13566,2175,-2421,1745146185072371579
460960,-2848,2436,3260,13333,2783,-2218,1745146185072371579
461152,-2780,2245,3091,13094,3376,-2195,1745146185072371579
461344,-2658,2035,2919,12790,3920,-2326,1745146185072371579
461536,-2481,1811,2738,12425,4335,-2470,1745146185072371579
461728,-2254,1585,2538,11992,4654,-2591,1745146185072371579
461920,-1982,1360,2317,11545,4786,-2747,1745146185072371579
462112,-1680,1152,2094,11110,4766,-2823,1745146185072371579
462304,-1380,956,1871,10734,4524,-3055,1745146185072371579
462496,-1087,770,1654,10362,4126,-3202,1745146185131539684
462688,-811,589,1440,9965,3654,-3259,1745146185131539684
462880,-551,445,1231,9671,3032,-3291,1745146185131539684
463072,-324,313,1029,9429,2340,-3364,1745146185131539684
463264,-130,187,830,9175,1760,-3418,1745146185131539684
463456,29,98,635,8936,1215,-3436,1745146185131539684
463648,153,34,446,8720,736,-3518,1745146185131539684
463840,234,-20,260,8517,295,-3573,1745146185131539684
464032,283,-62,39,8449,-260,-3610,1745146185131539684
464224,316,-94,-222,7987,-222,-3680,1745146185131539684
464416,316,-121,-325,7821,-314,-3710,1745146185131539684
464608,284,-135,-381,7777,-681,-3744,1745146185131539684
464800,227,-135,-458,7490,-504,-3786,1745146185189929099
464992,157,-106,-425,7293,-526,-3698,1745146185189929099
465184,97,-98,-371,7297,-602,-3579,1745146185189929099
465376,46,-112,-335,7392,-675,-3565,1745146185189929099
465568,-10,-136,-300,7515,-768,-3506,1745146185189929099
465760,-74,-162,-265,7661,-849,-3428,1745146185189929099
465952,-133,-181,-219,7691,-927,-3362,1745146185189929099
466144,-188,-198,-150,7678,-987,-3199,1745146185189929099
466336,-236,-233,-51,7684,-1101,-3132,1745146185189929099
466528,-262,-255,47,7525,-1291,-3186,1745146185189929099
466720,-272,-240,111,7292,-1448,-3205,1745146185189929099
466912,-294,-235,150,7149,-1622,-3143,1745146185189929099
467104,-305,-229,179,7036,-1744,-3201,1745146185250192350
467296,-320,-221,214,6902,-1757,-3215,1745146185250192350
467488,-327,-202,262,6870,-1779,-3208,1745146185250192350
467680,-335,-179,303,6883,-1798,-3195,1745146185250192350
467872,-334,-154,322,6894,-1850,-3159,1745146185250192350
468064,-326,-128,314,6936,-1796,-3089,1745146185250192350
468256,-319,-106,305,6991,-1745,-3022,1745146185250192350
468448,-314,-88,288,7046,-1714,-2984,1745146185250192350
468640,-299,-68,269,7108,-1665,-2922,1745146185250192350
468832,-277,-52,242,7210,-1731,-2863,1745146185250192350
469024,-252,-48,193,7325,-1748,-2821,1745146185250192350
469216,-220,-50,150,7406,-1771,-2783,1745146185250192350
469408,-178,-55,116,7463,-1880,-2741,1745146185308808950
469600,-135,-54,67,7476,-1849,-2743,1745146185308808950
469792,-97,-57,34,7450,-1811,-2729,1745146185308808950
469984,-64,-66,17,7432,-1807,-2661,1745146185308808950
470176,-20,-81,18,7502,-2104,-2628,1745146185308808950
470368,31,-95,-33,7449,-2031,-2574,1745146185308808950
470560,74,-111,-57,7433,-2140,-2593,1745146185308808950
470752,120,-123,-66,7405,-2231,-2663,1745146185308808950
470944,168,-128,-75,7360,-2305,-2753,1745146185308808950
471136,215,-129,-84,7315,-2333,-2797,1745146185308808950
471328,257,-130,-88,7278,-2367,-2825,1745146185308808950
471520,298,-125,-91,7257,-2407,-2836,1745146185308808950
471712,326,-127,-92,7284,-2476,-2833,1745146185366712015
471904,346,-130,-89,7292,-2561,-2810,1745146185366712015
472096,360,-143,-83,7379,-2679,-2712,1745146185366712015
472288,376,-150,-75,7026,-2855,-2622,1745146185366712015
472480,374,-164,-55,7196,-2879,-2545,1745146185366712015
472672,357,-187,-50,7451,-3320,-2879,1745146185366712015
472864,344,-141,-111,7498,-3383,-2766,1745146185366712015
473056,294,-154,-169,7498,-3502,-2637,1745146185366712015
473248,270,-147,-199,7398,-3561,-2659,1745146185366712015
473440,230,-166,-203,7233,-3573,-2513,1745146185366712015
473632,203,-173,-186,7112,-3583,-2549,1745146185366712015
473824,183,-169,-163,7047,-3552,-2548,1745146185366712015
474016,160,-159,-149,7041,-3509,-2582,1745146185425938922
474208,135,-150,-147,7103,-3456,-2644,1745146185425938922
474400,110,-141,-152,7172,-3418,-2673,1745146185425938922
474592,85,-139,-158,7237,-3404,-2722,1745146185425938922
474784,71,-134,-159,7241,-3355,-2767,1745146185425938922
474976,67,-122,-149,7217,-3247,-2816,1745146185425938922
475168,65,-106,-134,7198,-3113,-2862,1745146185425938922
475360,64,-94,-118,7204,-2982,-2872,1745146185425938922
475552,66,-90,-102,7233,-2947,-2842,1745146185425938922
475744,78,-94,-87,7300,-2964,-2799,1745146185425938922
475936,97,-101,-72,7354,-3032,-2764,1745146185425938922
476128,115,-105,-62,7391,-3087,-2772,1745146185425938922
476320,127,-107,-55,7388,-3129,-2734,1745146185483875372
476512,135,-109,-51,7362,-3184,-2678,1745146185483875372
476704,135,-112,-53,7341,-3210,-2643,1745146185483875372
476896,133,-115,-51,7299,-3248,-2656,1745146185483875372
477088,135,-117,-48,7263,-3285,-2657,1745146185483875372
477280,137,-116,-45,7261,-3312,-2627,1745146185483875372
477472,137,-116,-43,7258,-3326,-2641,1745146185483875372
477664,140,-113,-36,7243,-3298,-2671,1745146185483875372
477856,145,-107,-26,7225,-3226,-2713,1745146185483875372
478048,153,-98,-15,7194,-3114,-2760,1745146185483875372
478240,158,-90,-3,7211,-2991,-2782,1745146185483875372
478432,158,-84,9,7237,-2893,-2778,1745146185483875372
478624,157,-81,24,7261,-2840,-2810,1745146185542507076
478816,162,-79,42,7298,-2854,-2809,1745146185542507076
479008,172,-82,60,7358,-2880,-2793,1745146185542507076
479200,188,-87,74,7377,-2945,-2760,1745146185542507076
479392,201,-91,79,7358,-2981,-2760,1745146185542507076
479584,204,-87,76,7288,-2952,-2794,1745146185542507076
479776,194,-79,70,7210,-2923,-2828,1745146185542507076
479968,178,-68,63,7156,-2882,-2824,1745146185542507076
480160,160,-59,55,7125,-2853,-2806,1745146185542507076
480352,148,-57,47,7132,-2869,-2727,1745146185542507076
480544,141,-57,39,7186,-2891,-2685,1745146185542507076
480736,136,-64,28,7278,-2930,-2597,1745146185542507076
480928,128,-77,13,7359,-3023,-2569,1745146185600632013
481120,122,-87,-5,7330,-3036,-2587,1745146185600632013
481312,121,-92,-16,7286,-3029,-2612,1745146185600632013
481504,116,-97,-24,7263,-3030,-2659,1745146185600632013
481696,105,-99,-36,7233,-3017,-2694,1745146185600632013
481888,88,-98,-49,7183,-2975,-2715,1745146185600632013
482080,72,-93,-51,7152,-2935,-2719,1745146185600632013
482272,62,-88,-46,7169,-2910,-2687,1745146185600632013
482464,51,-86,-42,7211,-2893,-2637,1745146185600632013
482656,35,-89,-43,7248,-2894,-2635,1745146185600632013
482848,21,-96,-46,7264,-2922,-2576,1745146185600632013
483040,14,-106,-54,7326,-2977,-2533,1745146185600632013
483232,14,-117,-69,7350,-3031,-2517,1745146185659361685
483424,13,-126,-88,7312,-3026,-2528,1745146185659361685
483616,8,-129,-105,7237,-2990,-2538,1745146185659361685
483808,0,-127,-113,7129,-2950,-2558,1745146185659361685
484000,-7,-121,-111,7052,-2916,-2519,1745146185659361685
484192,-11,-116,-102,7040,-2911,-2506,1745146185659361685
484384,-11,-109,-94,7061,-2899,-2514,1745146185659361685
484576,-10,-104,-92,7105,-2903,-2525,1745146185659361685
484768,-5,-103,-94,7162,-2945,-2498,1745146185659361685
484960,7,-106,-97,7203,-2997,-2464,1745146185659361685
485152,21,-111,-96,7216,-3025,-2452,1745146185659361685
485344,34,-115,-86,7203,-3022,-2465,1745146185659361685
485536,45,-114,-77,7158,-2996,-2513,1745146185718214429
485728,53,-109,-71,7126,-2975,-2540,1745146185718214429
485920,63,-106,-68,7099,-2993,-2566,1745146185718214429
486112,76,-104,-67,7132,-3031,-2557,1745146185718214429
486304,89,-104,-66,7134,-3096,-2512,1745146185718214429
486496,102,-105,-62,7158,-3143,-2473,1745146185718214429
486688,108,-106,-55,7142,-3190,-2454,1745146185718214429
486880,109,-107,-49,7132,-3202,-2424,1745146185718214429
487072,102,-107,-46,7074,-3244,-2423,1745146185718214429
487264,92,-105,-42,7038,-3275,-2459,1745146185718214429
487456,83,-99,-37,7013,-3303,-2520,1745146185718214429
487648,74,-86,-32,6967,-3262,-2586,1745146185718214429
487840,64,-68,-24,6964,-3211,-2613,1745146185774725892
488032,48,-53,-19,6982,-3166,-2583,1745146185774725892
488224,31,-43,-15,7010,-3161,-2564,1745146185774725892
488416,20,-36,-10,7024,-3124,-2556,1745146185774725892
488608,13,-28,-6,7034,-3095,-2549,1745146185774725892
488800,7,-20,-5,7046,-3055,-2577,1745146185774725892
488992,4,-11,-6,7023,-2992,-2602,1745146185774725892
489184,-2,-3,-9,7019,-2938,-2619,1745146185774725892
489376,-6,2,-13,7059,-2910,-2593,1745146185774725892
489568,-8,4,-16,7095,-2915,-2608,1745146185774725892
489760,-2,3,-17,7118,-2962,-2602,1745146185774725892
489952,9,2,-21,7154,-2982,-2606,1745146185774725892
490144,16,3,-28,7148,-2968,-2629,1745146185834883676
490336,15,3,-36,7135,-2953,-2609,1745146185834883676
490528,8,4,-42,7123,-2970,-2609,1745146185834883676
490720,3,6,-41,7077,-3000,-2596,1745146185834883676
490912,2,9,-36,7059,-2981,-2606,1745146185834883676
491104,6,15,-29,7043,-2976,-2644,1745146185834883676
491296,15,21,-23,7077,-2933,-2668,1745146185834883676
491488,22,24,-18,7113,-2910,-2689,1745146185834883676
491680,28,26,-13,7149,-2903,-2681,1745146185834883676
491872,36,27,-9,7186,-2881,-2705,1745146185834883676
492064,46,30,-2,7182,-2854,-2746,1745146185834883676
492256,59,33,6,7189,-2843,-2777,1745146185834883676
492448,70,36,13,7184,-2827,-2771,1745146185892853927
492640,79,37,19,7173,-2844,-2762,1745146185892853927
492832,85,39,22,7195,-2861,-2768,1745146185892853927
493024,90,40,24,7177,-2883,-2768,1745146185892853927
493216,94,40,23,7182,-2945,-2752,1745146185892853927
493408,99,39,21,7163,-2983,-2722,1745146185892853927
493600,98,37,17,7143,-3026,-2709,1745146185892853927
493792,92,33,17,7147,-3067,-2706,1745146185892853927
493984,89,31,20,7162,-3106,-2684,1745146185892853927
494176,89,28,22,7161,-3122,-2685,1745146185892853927
494368,85,27,20,7170,-3100,-2719,1745146185892853927
494560,75,27,17,7187,-3056,-2748,1745146185892853927
494752,61,26,15,7218,-3026,-2759,1745146185951565318
494944,50,24,16,7215,-3008,-2766,1745146185951565318
495136,46,22,19,7223,-2987,-2740,1745146185951565318
495328,45,17,23,7233,-3010,-2728,1745146185951565318
495520,42,9,24,7272,-3043,-2735,1745146185951565318
495712,39,5,24,7256,-3055,-2754,1745146185951565318
495904,35,5,22,7222,-3044,-2791,1745146185951565318
496096,28,10,20,7177,-3007,-2813,1745146185951565318
496288,19,15,18,7142,-2957,-2808,1745146185951565318
496480,9,18,16,7139,-2931,-2786,1745146185951565318
496672,2,18,13,7151,-2956,-2758,1745146185951565318
496864,1,16,9,7169,-2945,-2751,1745146185951565318
497056,2,18,6,7190,-2925,-2760,1745146186009632965
497248,4,17,-1,7200,-2886,-2757,1745146186009632965
497440,5,13,-10,7241,-2923,-2738,1745146186009632965
497632,8,5,-17,7279,-2962,-2717,1745146186009632965
497824,12,-3,-20,7283,-3015,-2681,1745146186009632965
498016,14,-7,-22,7262,-3041,-2709,1745146186009632965
498208,12,-9,-23,7246,-3028,-2752,1745146186009632965
498400,6,-7,-23,7181,-3012,-2765,1745146186009632965
498592,0,-5,-20,7185,-2998,-2760,1745146186009632965
498784,-3,-2,-15,7192,-2977,-2790,1745146186009632965
498976,-2,1,-8,7198,-2954,-2806,1745146186009632965
499168,4,3,-3,7210,-2946,-2826,1745146186009632965
499360,9,4,-1,7217,-2914,-2815,1745146186068405761
499552,11,1,0,7208,-2897,-2795,1745146186068405761
499744,11,-3,-1,7203,-2915,-2754,1745146186068405761
499936,10,-9,0,7202,-2948,-2724,1745146186068405761
500128,10,-14,0,7197,-2983,-2748,1745146186068405761
500320,13,-17,-1,7180,-3009,-2775,1745146186068405761
500512,13,-16,-5,7159,-2969,-2801,1745146186068405761
500704,7,-10,-10,7137,-2928,-2814,1745146186068405761
500896,0,-4,-13,7162,-2900,-2780,1745146186068405761
501088,-8,-3,-16,7187,-2902,-2761,1745146186068405761
501280,-11,-6,-15,7245,-2937,-2761,1745146186068405761
501472,-7,-9,-14,7280,-2971,-2735,1745146186068405761
501664,-1,-12,-15,7274,-3003,-2731,1745146186126906373
501856,5,-15,-19,7260,-3033,-2751,1745146186126906373
502048,13,-17,-21,7202,-3040,-2741,1745146186126906373
502240,19,-19,-21,7166,-3039,-2755,1745146186126906373
502432,28,-17,-18,7137,-3039,-2779,1745146186126906373
502624,37,-13,-12,7133,-3019,-2799,1745146186126906373
502816,40,-9,-6,7130,-2983,-2810,1745146186126906373
503008,38,-4,0,7173,-2958,-2806,1745146186126906373
503200,33,-1,8,7201,-2974,-2801,1745146186126906373
503392,28,0,17,7210,-2977,-2767,1745146186126906373
503584,23,0,22,7211,-2989,-2741,1745146186126906373
503776,18,-2,24,7193,-2993,-2747,1745146186126906373
503968,14,-1,23,7163,-2968,-2749,1745146186185223340
504160,9,4,20,7136,-2932,-2768,1745146186185223340
504352,1,8,13,7148,-2900,-2788,1745146186185223340
504544,-8,11,7,7158,-2885,-2791,1745146186185223340
504736,-11,11,1,7190,-2853,-2780,1745146186185223340
504928,-10,9,-7,7227,-2848,-2753,1745146186185223340
505120,-7,6,-14,7249,-2828,-2755,1745146186185223340
505312,-2,0,-23,7271,-2850,-2764,1745146186185223340
505504,5,-9,-31,7279,-2881,-2748,1745146186185223340
505696,12,-19,-37,7267,-2942,-2729,1745146186185223340
505888,21,-27,-39,7236,-2992,-2718,1745146186185223340
506080,26,-34,-40,7210,-3043,-2741,1745146186185223340
506272,28,-34,-38,7172,-3074,-2757,1745146186243957022
506464,26,-31,-33,7151,-3054,-2760,1745146186243957022
506656,20,-27,-27,7141,-3044,-2790,1745146186243957022
506848,13,-21,-19,7151,-3016,-2782,1745146186243957022
507040,8,-16,-8,7164,-3004,-2774,1745146186243957022
507232,5,-12,3,7179,-2991,-2766,1745146186243957022
507424,2,-11,13,7184,-2971,-2780,1745146186243957022
507616,0,-9,19,7195,-2987,-2796,1745146186243957022
507808,-1,-8,21,7187,-2974,-2817,1745146186243957022
508000,-3,-5,20,7169,-2959,-2824,1745146186243957022
508192,-7,-3,17,7167,-2959,-2820,1745146186243957022
508384,-9,-2,13,7149,-2957,-2800,1745146186243957022
508576,-13,-1,7,7140,-2940,-2798,1745146186302110085
508768,-15,1,3,7129,-2912,-2781,1745146186302110085
508960,-18,2,-3,7162,-2914,-2775,1745146186302110085
509152,-19,0,-9,7194,-2918,-2778,1745146186302110085
509344,-16,-3,-13,7212,-2942,-2783,1745146186302110085
509536,-8,-5,-16,7221,-2913,-2802,1745146186302110085
509728,-2,-6,-19,7243,-2891,-2817,1745146186302110085
509920,1,-10,-21,7258,-2902,-2788,1745146186302110085
510112,5,-18,-21,7271,-2954,-2781,1745146186302110085
510304,14,-26,-16,7237,-2988,-2778,1745146186302110085
510496,24,-30,-11,7235,-2995,-2795,1745146186302110085
510688,27,-31,-7,7208,-2986,-2804,1745146186302110085
510880,25,-31,-5,7187,-3005,-2816,1745146186360761215
511072,23,-33,-1,7148,-3010,-2823,1745146186360761215
511264,23,-33,4,7138,-3024,-2854,1745146186360761215
511456,24,-30,7,7106,-2993,-2874,1745146186360761215
511648,22,-24,7,7092,-2953,-2846,1745146186360761215
511840,15,-19,5,7100,-2906,-2819,1745146186360761215
512032,7,-19,3,7136,-2906,-2794,1745146186360761215
512224,0,-23,1,7163,-2923,-2771,1745146186360761215
512416,-2,-28,-2,7205,-2929,-2760,1745146186360761215
512608,0,-32,-8,7198,-2935,-2756,1745146186360761215
512800,-1,-35,-17,7196,-2903,-2764,1745146186360761215
512992,-6,-39,-29,7201,-2933,-2738,1745146186360761215
513184,-14,-45,-37,7219,-2987,-2685,1745146186418915372
513376,-21,-53,-42,7226,-3061,-2674,1745146186418915372
513568,-23,-58,-42,7205,-3094,-2663,1745146186418915372
513760,-30,-56,-43,7170,-3083,-2655,1745146186418915372
513952,-45,-53,-44,7169,-3099,-2682,1745146186418915372
514144,-64,-53,-41,7166,-3144,-2687,1745146186418915372
514336,-80,-53,-34,7184,-3189,-2678,1745146186418915372
514528,-93,-50,-26,7177,-3212,-2694,1745146186418915372
514720,-111,-44,-19,7178,-3206,-2710,1745146186418915372
514912,-135,-35,-14,7129,-3176,-2736,1745146186418915372
515104,-157,-24,-8,7094,-3148,-2742,1745146186418915372
515296,-171,-11,-1,7067,-3099,-2745,1745146186418915372
515488,-181,1,5,7048,-3030,-2772,1745146186474401011
515680,-188,12,9,7082,-2965,-2762,1745146186474401011
515872,-192,20,11,7085,-2914,-2754,1745146186474401011
516064,-188,25,12,7105,-2881,-2754,1745146186474401011
516256,-175,27,12,7136,-2820,-2767,1745146186474401011
516448,-158,27,11,7159,-2759,-2791,1745146186474401011
516640,-136,26,8,7166,-2701,-2785,1745146186474401011
516832,-111,23,4,7179,-2657,-2794,1745146186474401011
517024,-86,18,1,7202,-2648,-2777,1745146186474401011
517216,-60,9,-3,7232,-2684,-2759,1745146186474401011
517408,-34,-1,-4,7240,-2730,-2745,1745146186474401011
517600,-9,-9,-5,7229,-2787,-2739,1745146186474401011
517792,10,-17,-6,7219,-2818,-2750,1745146186536381955
517984,19,-22,-8,7209,-2853,-2794,1745146186536381955
518176,25,-23,-9,7168,-2878,-2808,1745146186536381955
518368,27,-20,-8,7141,-2861,-2831,1745146186536381955
518560,26,-15,-6,7157,-2859,-2840,1745146186536381955
518752,20,-12,-5,7160,-2850,-2833,1745146186536381955
518944,16,-9,-4,7176,-2845,-2834,1745146186536381955
519136,15,-8,-4,7193,-2835,-2810,1745146186536381955
519328,11,-11,-8,7231,-2869,-2765,1745146186536381955
519520,6,-20,-15,7247,-2943,-2715,1745146186536381955
519712,5,-29,-19,7251,-2995,-2687,1745146186536381955
519904,7,-34,-23,7216,-3022,-2693,1745146186536381955
520096,3,-35,-28,7185,-2996,-2740,1745146186594289186
520288,-8,-31,-33,7132,-2984,-2797,1745146186594289186
520480,-17,-25,-33,7098,-2947,-2812,1745146186594289186
520672,-22,-16,-30,7075,-2924,-2827,1745146186594289186
520864,-21,-9,-23,7080,-2917,-2817,1745146186594289186
521056,-20,-3,-17,7116,-2913,-2808,1745146186594289186
521248,-16,2,-12,7143,-2915,-2803,1745146186594289186
521440,-13,4,-10,7190,-2948,-2784,1745146186594289186
521632,-11,4,-9,7220,-2971,-2783,1745146186594289186
521824,-4,3,-6,7189,-2971,-2785,1745146186594289186
522016,2,6,-4,7161,-2934,-2807,1745146186594289186
522208,4,11,-5,7143,-2894,-2821,1745146186594289186
522400,2,15,-5,7136,-2883,-2817,1745146186648267235
522592,3,18,-1,7132,-2867,-2823,1745146186648267235
522784,6,19,2,7151,-2868,-2801,1745146186648267235
522976,9,18,3,7194,-2882,-2786,1745146186648267235
523168,11,15,2,7219,-2928,-2747,1745146186648267235
523360,14,11,2,7234,-2953,-2759,1745146186648267235
523552,12,5,0,7223,-2966,-2781,1745146186648267235
523744,9,0,-1,7208,-2969,-2794,1745146186648267235
523936,6,-3,-1,7174,-2949,-2793,1745146186648267235
524128,3,-2,-1,7147,-2915,-2807,1745146186648267235
524320,3,1,1,7150,-2881,-2804,1745146186648267235
524512,2,4,4,7159,-2830,-2849,1745146186648267235
524704,2,6,5,7163,-2804,-2881,1745146186711637073
524896,6,7,4,7194,-2798,-2886,1745146186711637073
525088,12,6,-1,7217,-2785,-2856,1745146186711637073
525280,19,2,-8,7204,-2805,-2814,1745146186711637073
525472,25,-3,-14,7210,-2816,-2790,1745146186711637073
525664,31,-8,-19,7210,-2831,-2805,1745146186711637073
525856,32,-11,-22,7167,-2852,-2801,1745146186711637073
526048,31,-15,-24,7151,-2891,-2819,1745146186711637073
526240,34,-17,-25,7137,-2918,-2843,1745146186711637073
526432,38,-18,-27,7113,-2929,-2831,1745146186711637073
526624,38,-17,-27,7126,-2978,-2835,1745146186711637073
526816,35,-18,-26,7144,-3014,-2817,1745146186711637073
527008,34,-17,-21,7159,-3048,-2805,1745146186770052633
527200,30,-14,-16,7175,-3050,-2800,1745146186770052633
527392,25,-10,-9,7177,-3049,-2806,1745146186770052633
527584,18,-5,-3,7183,-3029,-2829,1745146186770052633
527776,12,0,4,7171,-2996,-2850,1745146186770052633
527968,9,4,12,7172,-2973,-2838,1745146186770052633
528160,8,5,17,7160,-2969,-2807,1745146186770052633
528352,8,4,21,7187,-2988,-2802,1745146186770052633
528544,11,4,25,7176,-3022,-2784,1745146186770052633
528736,12,5,26,7162,-3019,-2781,1745146186770052633
528928,9,8,26,7129,-3028,-2803,1745146186770052633
529120,6,13,24,7103,-3002,-2833,1745146186770052633
529312,0,19,23,7107,-2991,-2845,1745146186828076634
529504,-3,24,23,7112,-2998,-2842,1745146186828076634
529696,-2,26,22,7142,-3018,-2826,1745146186828076634
529888,-2,26,23,7173,-3022,-2799,1745146186828076634
530080,-2,25,22,7196,-3053,-2787,1745146186828076634
530272,-4,22,22,7210,-3091,-2800,1745146186828076634
530464,-6,21,23,7198,-3089,-2814,1745146186828076634
530656,-8,22,26,7167,-3078,-2839,1745146186828076634
530848,-14,26,30,7165,-3020,-2867,1745146186828076634
531040,-23,29,37,7151,-3001,-2870,1745146186828076634
531232,-28,30,47,7154,-3014,-2871,1745146186828076634
531424,-28,30,57,7154,-3011,-2869,1745146186828076634
531616,-26,33,61,7163,-2985,-2878,1745146186887751454
531808,-26,36,60,7155,-2944,-2876,1745146186887751454
532000,-30,37,56,7153,-2935,-2851,1745146186887751454
532192,-33,32,52,7182,-2928,-2816,1745146186887751454
532384,-32,25,51,7170,-2925,-2822,1745146186887751454
532576,-26,23,48,7146,-2915,-2858,1745146186887751454
532768,-18,23,46,7146,-2879,-2885,1745146186887751454
532960,-13,24,41,7131,-2855,-2878,1745146186887751454
533152,-11,23,37,7151,-2846,-2883,1745146186887751454
533344,-7,22,34,7164,-2840,-2903,1745146186887751454
533536,0,21,32,7156,-2813,-2896,1745146186887751454
533728,7,22,28,7171,-2776,-2900,1745146186887751454
533920,11,23,22,7194,-2755,-2900,1745146186946424720
534112,15,18,17,7221,-2766,-2883,1745146186946424720
534304,22,11,13,7231,-2843,-2842,1745146186946424720
534496,31,2,10,7227,-2890,-2832,1745146186946424720
534688,41,-5,6,7213,-2901,-2801,1745146186946424720
534880,40,-10,-1,7183,-2934,-2810,1745146186946424720
535072,34,-14,-6,7161,-2963,-2810,1745146186946424720
535264,29,-17,-6,7132,-3001,-2833,1745146186946424720
535456,25,-15,-3,7088,-3000,-2851,1745146186946424720
535648,20,-10,0,7070,-2981,-2867,1745146186946424720
535840,12,-4,3,7082,-2970,-2875,1745146186946424720
536032,4,1,6,7100,-2965,-2863,1745146186946424720
536224,-2,5,10,7122,-2957,-2856,1745146187004555543
536416,-4,8,12,7150,-2957,-2867,1745146187004555543
536608,-4,11,13,7175,-2923,-2883,1745146187004555543
536800,-4,13,11,7176,-2911,-2867,1745146187004555543
536992,-3,12,8,7203,-2898,-2821,1745146187004555543
537184,0,8,5,7196,-2892,-2801,1745146187004555543
537376,5,4,2,7178,-2881,-2789,1745146187004555543
537568,11,1,0,7171,-2874,-2788,1745146187004555543
537760,14,-4,-3,7180,-2888,-2792,1745146187004555543
537952,14,-8,-7,7180,-2922,-2789,1745146187004555543
538144,11,-11,-9,7173,-2937,-2787,1745146187004555543
538336,9,-14,-7,7162,-2984,-2810,1745146187004555543
538528,6,-13,-7,7151,-2975,-2821,1745146187063198653
538720,0,-9,-6,7121,-2924,-2849,1745146187063198653
538912,-6,-4,-7,7084,-2905,-2863,1745146187063198653
539104,-10,1,-5,7093,-2900,-2865,1745146187063198653
539296,-10,3,-3,7116,-2868,-2837,1745146187063198653
539488,-8,5,-1,7138,-2867,-2828,1745146187063198653
539680,-4,5,-2,7172,-2855,-2833,1745146187063198653
539872,1,5,-4,7185,-2860,-2829,1745146187063198653
540064,5,1,-7,7205,-2880,-2810,1745146187063198653
540256,13,-1,-10,7195,-2869,-2816,1745146187063198653
540448,21,-2,-14,7174,-2865,-2837,1745146187063198653
540640,23,-4,-18,7182,-2875,-2843,1745146187063198653
540832,23,-7,-22,7168,-2923,-2824,1745146187121108541
541024,25,-10,-22,7163,-2955,-2812,1745146187121108541
541216,22,-11,-21,7147,-3004,-2830,1745146187121108541
541408,17,-10,-18,7145,-3035,-2832,1745146187121108541
541600,13,-9,-16,7128,-3027,-2833,1745146187121108541
541792,7,-7,-15,7131,-3026,-2846,1745146187121108541
541984,0,-5,-12,7138,-3037,-2837,1745146187121108541
542176,-5,-3,-9,7140,-3018,-2816,1745146187121108541
542368,-6,-2,-6,7135,-2989,-2819,1745146187121108541
542560,-5,0,-1,7122,-2959,-2819,1745146187121108541
542752,-6,1,2,7125,-2904,-2830,1745146187121108541
542944,-6,1,3,7157,-2902,-2801,1745146187121108541
543136,-4,-5,3,7182,-2944,-2751,1745146187179878733
543328,1,-14,2,7203,-3031,-2761,1745146187179878733
543520,10,-21,1,7207,-3075,-2785,1745146187179878733
543712,16,-20,-1,7164,-3065,-2807,1745146187179878733
543904,11,-13,-3,7144,-3035,-2820,1745146187179878733
544096,1,-7,-2,7106,-3011,-2826,1745146187179878733
544288,-5,-2,4,7103,-3012,-2819,1745146187179878733
544480,-5,2,13,7106,-3006,-2822,1745146187179878733
544672,-4,5,19,7108,-2993,-2827,1745146187179878733
544864,-5,10,20,7134,-2979,-2834,1745146187179878733
545056,-6,11,20,7154,-2963,-2848,1745146187179878733
545248,-8,10,19,7167,-2999,-2813,1745146187179878733
545440,-5,7,20,7142,-3018,-2798,1745146187238193669
545632,-2,5,21,7143,-3025,-2779,1745146187238193669
545824,-2,5,21,7126,-3018,-2783,1745146187238193669
546016,-5,8,20,7103,-3001,-2813,1745146187238193669
546208,-8,13,20,7122,-2961,-2850,1745146187238193669
546400,-10,18,20,7124,-2925,-2829,1745146187238193669
546592,-12,19,19,7158,-2919,-2841,1745146187238193669
546784,-11,18,16,7190,-2876,-2843,1745146187238193669
546976,-6,17,13,7197,-2854,-2842,1745146187238193669
547168,-1,14,8,7222,-2838,-2822,1745146187238193669
547360,1,5,3,7230,-2900,-2809,1745146187238193669
547552,6,-6,-1,7234,-2942,-2811,1745146187238193669
547744,15,-12,-4,7197,-2960,-2826,1745146187295071483
547936,16,-14,-9,7144,-2940,-2831,1745146187295071483
548128,12,-14,-12,7143,-2956,-2821,1745146187295071483
548320,8,-16,-13,7133,-2994,-2817,1745146187295071483
548512,5,-18,-11,7115,-3012,-2820,1745146187295071483
548704,4,-16,-9,7119,-2998,-2818,1745146187295071483
548896,1,-11,-7,7121,-2954,-2804,1745146187295071483
549088,-4,-8,-6,7140,-2953,-2813,1745146187295071483
549280,-5,-8,-5,7178,-2966,-2789,1745146187295071483
549472,-4,-11,-3,7186,-2990,-2779,1745146187295071483
549664,-2,-17,-2,7188,-3015,-2779,1745146187295071483
549856,2,-19,2,7138,-3042,-2798,1745146187295071483
550048,8,-16,3,7102,-3015,-2810,1745146187355548222
550240,7,-8,5,7076,-2979,-2834,1745146187355548222
550432,2,-2,5,7082,-2976,-2846,1745146187355548222
550624,-3,1,7,7087,-2995,-2828,1745146187355548222
550816,-2,5,10,7094,-2996,-2844,1745146187355548222
551008,2,11,10,7068,-2956,-2863,1745146187355548222
551200,5,18,7,7073,-2917,-2858,1745146187355548222
551392,7,23,1,7091,-2893,-2856,1745146187355548222
551584,11,21,-1,7130,-2889,-2830,1745146187355548222
551776,16,15,-3,7159,-2894,-2794,1745146187355548222
551968,18,8,-5,7197,-2919,-2770,1745146187355548222
552160,19,3,-7,7197,-2918,-2773,1745146187355548222
552352,20,-2,-9,7201,-2926,-2782,1745146187408643987
552544,17,-9,-12,7212,-2957,-2782,1745146187408643987
552736,13,-17,-15,7216,-3021,-2774,1745146187408643987
552928,14,-21,-16,7199,-3056,-2777,1745146187408643987
553120,12,-19,-16,7147,-3008,-2809,1745146187408643987
553312,2,-14,-17,7128,-2978,-2840,1745146187408643987
553504,-9,-8,-14,7129,-2962,-2833,1745146187408643987
553696,-15,-6,-8,7134,-2964,-2813,1745146187408643987
553888,-14,-6,-5,7153,-2963,-2796,1745146187408643987
554080,-9,-6,-4,7162,-2954,-2803,1745146187408643987
554272,-4,-5,-6,7171,-2943,-2805,1745146187408643987
554464,-1,-5,-7,7144,-2936,-2809,1745146187408643987
554656,4,-5,-9,7136,-2932,-2820,1745146187472123824
554848,7,-5,-11,7128,-2925,-2850,1745146187472123824
555040,10,-3,-13,7104,-2912,-2861,1745146187472123824
555232,13,0,-15,7082,-2893,-2864,1745146187472123824
555424,14,4,-17,7108,-2921,-2832,1745146187472123824
555616,13,5,-18,7135,-2971,-2842,1745146187472123824
555808,15,2,-17,7146,-3024,-2813,1745146187472123824
556000,18,-1,-15,7165,-3063,-2798,1745146187472123824
556192,17,-2,-14,7159,-3073,-2828,1745146187472123824
556384,12,-2,-13,7137,-3070,-2850,1745146187472123824
556576,8,3,-11,7106,-3029,-2888,1745146187472123824
556768,1,8,-6,7094,-2983,-2905,1745146187472123824
557152,-9,12,5,7127,-2986,-2877,1745146187535283924
557344,-4,8,10,7147,-3014,-2863,1745146187535283924
557536,4,7,11,7157,-3015,-2849,1745146187535283924
557728,7,7,8,7165,-3000,-2856,1745146187535283924
557920,3,7,4,7162,-2995,-2868,1745146187535283924
558112,-1,5,2,7172,-2970,-2853,1745146187535283924
558304,-3,2,1,7164,-2961,-2837,1745146187535283924
558496,-2,-1,3,7161,-2982,-2842,1745146187535283924
558688,2,-2,4,7142,-2954,-2872,1745146187535283924
558880,6,-1,1,7124,-2940,-2886,1745146187535283924
559072,6,1,-4,7147,-2925,-2910,1745146187535283924
559264,3,1,-9,7163,-2921,-2896,1745146187535283924
559648,7,-5,-10,7187,-2978,-2884,1745146187599182142
559840,12,-7,-10,7172,-2975,-2882,1745146187599182142
560032,15,-9,-10,7170,-2988,-2880,1745146187599182142
560224,15,-12,-12,7153,-3007,-2904,1745146187599182142
560416,15,-13,-12,7132,-2997,-2908,1745146187599182142
560608,14,-14,-13,7124,-2995,-2892,1745146187599182142
560800,11,-14,-14,7139,-3005,-2869,1745146187599182142
560992,4,-16,-12,7167,-3051,-2830,1745146187599182142
561184,0,-22,-9,7172,-3107,-2809,1745146187599182142
561376,-1,-25,-5,7177,-3122,-2806,1745146187599182142
561568,-4,-24,-2,7160,-3089,-2840,1745146187599182142
561760,-13,-19,-2,7156,-3053,-2864,1745146187599182142
561952,-24,-18,-1,7150,-3010,-2857,1745146187657236612
562144,-29,-18,2,7146,-2992,-2840,1745146187657236612
562336,-23,-20,7,7158,-2977,-2835,1745146187657236612
562528,-15,-16,9,7140,-2969,-2858,1745146187657236612
562720,-10,-11,7,7132,-2927,-2879,1745146187657236612
562912,-8,-7,3,7158,-2918,-2877,1745146187657236612
563104,-7,-7,-1,7165,-2934,-2860,1745146187657236612
563296,-1,-9,-3,7164,-2942,-2824,1745146187657236612
563488,6,-9,-6,7123,-2947,-2822,1745146187657236612
563680,13,-7,-8,7108,-2918,-2834,1745146187657236612
563872,15,-5,-10,7112,-2906,-2860,1745146187657236612
564064,16,-6,-10,7110,-2926,-2856,1745146187657236612
564256,18,-8,-9,7132,-2956,-2850,1745146187716329249
564448,18,-10,-8,7162,-2971,-2833,1745146187716329249
564640,17,-13,-9,7182,-3008,-2825,1745146187716329249
564832,14,-19,-7,7195,-3046,-2822,1745146187716329249
565024,15,-22,-6,7171,-3067,-2835,1745146187716329249
565216,11,-22,-5,7144,-3041,-2853,1745146187716329249
565408,0,-18,-4,7123,-3011,-2882,1745146187716329249
565600,-12,-14,-1,7110,-2970,-2883,1745146187716329249
565792,-19,-10,4,7098,-2976,-2862,1745146187716329249
565984,-22,-9,8,7110,-2957,-2836,1745146187716329249
566176,-18,-10,8,7129,-2964,-2809,1745146187716329249
566368,-17,-15,6,7177,-2992,-2784,1745146187716329249
566560,-13,-19,2,7171,-3008,-2788,1745146187774444499
566752,-8,-19,-2,7134,-2958,-2816,1745146187774444499
566944,-8,-15,-6,7097,-2892,-2865,1745146187774444499
567136,-12,-10,-8,7087,-2840,-2868,1745146187774444499
567328,-13,-9,-8,7099,-2839,-2848,1745146187774444499
567520,-9,-9,-7,7112,-2848,-2829,1745146187774444499
567712,1,-10,-5,7131,-2875,-2807,1745146187774444499
567904,8,-8,-8,7152,-2898,-2798,1745146187774444499
568096,10,-10,-13,7175,-2953,-2786,1745146187774444499
568288,8,-15,-16,7180,-2993,-2789,1745146187774444499
568480,9,-19,-18,7154,-3005,-2790,1745146187774444499
568672,10,-18,-17,7112,-2989,-2823,1745146187774444499
568864,9,-12,-14,7054,-2941,-2841,1745146187832640530
569056,5,-5,-10,7049,-2907,-2849,1745146187832640530
569248,2,-1,-4,7087,-2882,-2843,1745146187832640530
569440,0,0,1,7129,-2905,-2837,1745146187832640530
569632,-1,-1,3,7174,-2939,-2828,1745146187832640530
569824,2,-2,1,7180,-2922,-2838,1745146187832640530
570016,4,-3,-4,7180,-2914,-2825,1745146187832640530
570208,2,-7,-10,7180,-2935,-2785,1745146187832640530
570400,2,-14,-12,7178,-2995,-2772,1745146187832640530
570592,6,-20,-12,7132,-3035,-2766,1745146187832640530
570784,12,-20,-11,7097,-3013,-2816,1745146187832640530
570976,12,-14,-13,7062,-2963,-2856,1745146187832640530
571168,3,-6,-15,7053,-2929,-2888,1745146187896398646
571360,-5,-1,-12,7064,-2914,-2870,1745146187896398646
571552,-6,1,-7,7098,-2930,-2843,1745146187896398646
571744,-2,0,-2,7136,-2958,-2823,1745146187896398646
571936,0,1,0,7143,-2979,-2840,1745146187896398646
572128,2,3,-2,7134,-2970,-2858,1745146187896398646
572320,2,5,-6,7135,-2941,-2875,1745146187896398646
572512,1,6,-8,7146,-2936,-2877,1745146187896398646
572704,1,4,-9,7148,-2916,-2837,1745146187896398646
572896,4,0,-10,7147,-2950,-2818,1745146187896398646
573088,9,-3,-10,7179,-2954,-2829,1745146187896398646
573280,14,-3,-11,7169,-2941,-2837,1745146187896398646
573472,15,-2,-14,7161,-2920,-2862,1745146187954508948
573664,10,-5,-16,7160,-2954,-2851,1745146187954508948
573856,4,-11,-16,7202,-3006,-2826,1745146187954508948
574048,4,-17,-13,7163,-3064,-2817,1745146187954508948
574240,5,-19,-11,7138,-3073,-2841,1745146187954508948
574432,0,-17,-9,7109,-3057,-2851,1745146187954508948
574624,-9,-14,-7,7097,-3062,-2849,1745146187954508948
574816,-15,-12,-3,7104,-3069,-2851,1745146187954508948
575008,-16,-7,2,7105,-3041,-2847,1745146187954508948
575200,-14,-3,5,7099,-3011,-2866,1745146187954508948
575392,-12,2,5,7123,-2959,-2871,1745146187954508948
575584,-7,5,4,7148,-2945,-2869,1745146187954508948
575776,0,7,6,7150,-2937,-2869,1745146188006183476
575968,8,7,10,7155,-2940,-2854,1745146188006183476
576160,19,8,12,7136,-2944,-2839,1745146188006183476
576352,26,8,14,7125,-2950,-2835,1745146188006183476
576544,29,8,13,7132,-2965,-2872,1745146188006183476
576736,31,8,12,7102,-2967,-2892,1745146188006183476
576928,31,10,12,7103,-2989,-2910,1745146188006183476
577120,29,9,11,7094,-3004,-2906,1745146188006183476
577312,28,8,9,7093,-3015,-2905,1745146188006183476
577504,27,7,7,7120,-3020,-2903,1745146188006183476
577696,24,5,5,7135,-3019,-2900,1745146188006183476
577888,19,2,2,7158,-3013,-2873,1745146188006183476
578080,11,-2,1,7190,-3015,-2873,1745146188071825377
578272,3,-7,3,7203,-3011,-2860,1745146188071825377
578464,-2,-11,5,7216,-3012,-2851,1745146188071825377
578656,-5,-15,5,7201,-3023,-2835,1745146188071825377
578848,-9,-19,4,7201,-3027,-2832,1745146188071825377
579040,-12,-20,2,7162,-2982,-2856,1745146188071825377
579232,-16,-19,0,7143,-2952,-2868,1745146188071825377
579424,-17,-16,-3,7147,-2951,-2870,1745146188071825377
579616,-16,-13,-5,7113,-2936,-2862,1745146188071825377
579808,-14,-13,-5,7125,-2979,-2858,1745146188071825377
580000,-7,-10,-4,7122,-2968,-2845,1745146188071825377
580192,0,-7,-5,7108,-2958,-2849,1745146188071825377
580384,5,-3,-5,7105,-2934,-2868,1745146188128109862
580576,8,0,-5,7099,-2916,-2880,1745146188128109862
580768,12,3,-4,7086,-2922,-2884,1745146188128109862
580960,15,5,-3,7096,-2942,-2895,1745146188128109862
581152,18,6,0,7096,-2966,-2897,1745146188128109862
581344,20,5,2,7102,-3031,-2887,1745146188128109862
581536,18,4,4,7127,-3057,-2860,1745146188128109862
581728,14,3,6,7121,-3085,-2869,1745146188128109862
581920,6,4,6,7116,-3063,-2890,1745146188128109862
582112,-4,7,7,7116,-3035,-2891,1745146188128109862
582304,-14,8,7,7132,-2999,-2890,1745146188128109862
582496,-20,5,9,7165,-2985,-2884,1745146188128109862
582688,-19,2,13,7157,-2954,-2894,1745146188188450926
582880,-15,2,14,7151,-2923,-2920,1745146188188450926
583072,-12,1,11,7173,-2867,-2908,1745146188188450926
583264,-8,-3,7,7187,-2888,-2896,1745146188188450926
583456,-3,-9,0,7192,-2891,-2874,1745146188188450926
583648,4,-15,-6,7181,-2917,-2851,1745146188188450926
583840,9,-21,-12,7150,-2959,-2839,1745146188188450926
584032,14,-25,-13,7125,-2992,-2858,1745146188188450926
584224,18,-24,-13,7083,-2990,-2881,1745146188188450926
584416,17,-21,-12,7069,-2956,-2907,1745146188188450926
584608,11,-16,-11,7082,-2950,-2913,1745146188188450926
584800,5,-13,-8,7093,-2978,-2888,1745146188188450926
584992,4,-12,-4,7111,-3011,-2864,1745146188246656592
585184,6,-12,-2,7142,-3030,-2874,1745146188246656592
585376,7,-11,0,7132,-3043,-2881,1745146188246656592
585568,5,-7,0,7134,-3041,-2886,1745146188246656592
585760,-1,-4,1,7125,-3057,-2876,1745146188246656592
585952,-7,-2,2,7122,-3032,-2889,1745146188246656592
586144,-9,0,4,7106,-2990,-2915,1745146188246656592
586336,-10,2,6,7094,-2970,-2921,1745146188246656592
586528,-12,3,5,7103,-2948,-2917,1745146188246656592
586720,-11,1,5,7107,-2979,-2898,1745146188246656592
586912,-6,-2,6,7133,-3011,-2873,1745146188246656592
587104,-2,-6,4,7155,-3035,-2860,1745146188246656592
587296,2,-9,1,7160,-3028,-2869,1745146188305466992
587488,1,-12,-2,7156,-3011,-2892,1745146188305466992
587680,-2,-13,-3,7151,-3006,-2899,1745146188305466992
587872,-3,-14,0,7123,-2992,-2914,1745146188305466992
588064,0,-15,5,7100,-2987,-2911,1745146188305466992
588256,3,-15,10,7108,-2988,-2927,1745146188305466992
588448,6,-14,13,7114,-2981,-2927,1745146188305466992
588640,6,-10,13,7122,-2964,-2940,1745146188305466992
588832,5,-9,12,7131,-2960,-2940,1745146188305466992
589024,5,-9,11,7158,-2957,-2920,1745146188305466992
589216,5,-11,10,7174,-2968,-2899,1745146188305466992
589408,5,-15,9,7173,-2995,-2891,1745146188305466992
589600,8,-16,8,7155,-2988,-2903,1745146188363367505
589792,11,-17,6,7127,-2947,-2918,1745146188363367505
589984,11,-14,4,7101,-2938,-2945,1745146188363367505
590176,8,-12,2,7095,-2919,-2946,1745146188363367505
590368,8,-12,1,7120,-2922,-2915,1745146188363367505
590560,7,-15,2,7144,-2963,-2885,1745146188363367505
590752,9,-19,3,7158,-3025,-2876,1745146188363367505
590944,11,-22,4,7125,-3046,-2899,1745146188363367505
591136,9,-21,4,7108,-3042,-2934,1745146188363367505
591328,4,-16,1,7084,-3015,-2934,1745146188363367505
591520,-3,-13,2,7083,-3004,-2953,1745146188363367505
591712,-5,-9,3,7105,-2982,-2950,1745146188363367505
591904,-3,-8,4,7131,-2947,-2928,1745146188420384015
592096,-1,-10,5,7134,-2961,-2901,1745146188420384015
592288,4,-14,6,7156,-2987,-2873,1745146188420384015
592480,11,-19,7,7164,-2995,-2870,1745146188420384015
592672,13,-25,5,7149,-3013,-2842,1745146188420384015
592864,10,-29,5,7131,-3030,-2838,1745146188420384015
593056,5,-32,6,7101,-3025,-2821,1745146188420384015
593248,-3,-31,10,7077,-3035,-2819,1745146188420384015
593440,-9,-27,15,7054,-3018,-2840,1745146188420384015
593632,-14,-21,21,7065,-3006,-2854,1745146188420384015
593824,-18,-15,24,7091,-3001,-2871,1745146188420384015
594016,-18,-11,23,7127,-3006,-2842,1745146188420384015
594208,-17,-11,18,7160,-3027,-2836,1745146188480926587
594400,-15,-11,13,7159,-3012,-2839,1745146188480926587
594592,-13,-9,9,7125,-2984,-2853,1745146188480926587
594784,-10,-7,5,7110,-2939,-2853,1745146188480926587
594976,-8,-4,2,7101,-2920,-2866,1745146188480926587
595168,-2,-3,-1,7059,-2901,-2849,1745146188480926587
595360,6,-3,-1,7072,-2902,-2838,1745146188480926587
595552,13,-5,-1,7071,-2937,-2835,1745146188480926587
595744,18,-7,-2,7078,-2970,-2841,1745146188480926587
595936,21,-7,-5,7071,-2990,-2862,1745146188480926587
596128,22,-9,-7,7085,-3010,-2870,1745146188480926587
596320,20,-7,-10,7079,-3018,-2876,1745146188480926587
596512,17,-7,-10,7081,-3028,-2845,1745146188538996369
596704,12,-9,-10,7095,-3072,-2827,1745146188538996369
596896,11,-13,-7,7116,-3104,-2839,1745146188538996369
597088,11,-15,-5,7116,-3110,-2833,1745146188538996369
597280,7,-16,-3,7130,-3103,-2829,1745146188538996369
597472,-1,-17,-2,7102,-3108,-2840,1745146188538996369
597664,-6,-16,2,7073,-3088,-2847,1745146188538996369
597856,-9,-14,7,7049,-3063,-2849,1745146188538996369
598048,-12,-9,13,7032,-3045,-2861,1745146188538996369
598240,-15,-3,20,7036,-3024,-2871,1745146188538996369
598432,-16,1,25,7069,-3048,-2870,1745146188538996369
598624,-14,5,28,7095,-3052,-2863,1745146188538996369
598816,-8,7,29,7125,-3056,-2851,1745146188597824009
599008,-6,8,25,7123,-3063,-2849,1745146188597824009
599200,-3,8,20,7096,-3035,-2868,1745146188597824009
599392,-3,10,14,7071,-2992,-2892,1745146188597824009
599584,-5,12,10,7062,-2998,-2875,1745146188597824009
599776,-5,10,10,7068,-3013,-2867,1745146188597824009
599968,-3,9,14,7062,-3056,-2872,1745146188597824009
600160,0,10,16,7066,-3046,-2910,1745146188597824009
600352,0,15,18,7070,-3036,-2940,1745146188597824009
600544,-3,21,19,7095,-2988,-2946,1745146188597824009
600736,-7,23,19,7123,-2974,-2949,1745146188597824009
600928,-9,20,20,7171,-2990,-2930,1745146188597824009
601120,-6,15,22,7165,-3018,-2929,1745146188656070248
601312,-2,10,21,7182,-3019,-2931,1745146188656070248
601504,0,6,18,7171,-3015,-2936,1745146188656070248
601696,-2,4,15,7154,-3017,-2932,1745146188656070248
601888,-8,3,13,7144,-3024,-3003,1745146188656070248
602080,-3,-2,7,7101,-2934,-2980,1745146188656070248
602272,-17,-1,4,7100,-2922,-3020,1745146188656070248
602464,-21,-2,5,7103,-2907,-3005,1745146188656070248
602656,-19,-5,6,7120,-2908,-2985,1745146188656070248
602848,-14,-10,4,7147,-2931,-2990,1745146188656070248
603040,-7,-14,-2,7159,-2935,-2988,1745146188656070248
603232,-4,-17,-10,7157,-2938,-3033,1745146188656070248
603424,-8,-20,-18,7173,-2943,-3041,1745146188714632577
603616,-12,-23,-22,7146,-2956,-3051,1745146188714632577
603808,-12,-24,-24,7128,-2965,-3085,1745146188714632577
604000,-14,-23,-27,7130,-2936,-3128,1745146188714632577
604192,-19,-21,-29,7108,-2932,-3161,1745146188714632577
604384,-28,-21,-33,7139,-2930,-3182,1745146188714632577
604576,-39,-24,-36,7184,-2955,-3204,1745146188714632577
604768,-54,-31,-43,7198,-2977,-3250,1745146188714632577
604960,-72,-38,-53,7210,-3010,-3297,1745146188714632577
605152,-96,-44,-66,7195,-3026,-3341,1745146188714632577
605344,-126,-49,-81,7192,-3000,-3399,1745146188714632577
605536,-157,-55,-96,7186,-2971,-3453,1745146188714632577
605728,-187,-61,-109,7212,-2922,-3474,1745146188772750901
605920,-215,-70,-125,7256,-2862,-3497,1745146188772750901
606112,-238,-87,-144,7353,-2798,-3520,1745146188772750901
606304,-256,-112,-168,7488,-2717,-3563,1745146188772750901
606496,-269,-151,-199,7640,-2572,-3621,1745146188772750901
606688,-275,-197,-238,7773,-2418,-3634,1745146188772750901
606880,-274,-263,-290,7957,-2298,-3674,1745146188772750901
607072,-270,-347,-354,8129,-2158,-3650,1745146188772750901
607264,-242,-450,-440,8354,-1942,-3804,1745146188772750901
607456,-207,-581,-549,8620,-1635,-3918,1745146188772750901
607648,-168,-741,-686,8972,-1278,-3940,1745146188772750901
607840,-124,-944,-844,9357,-903,-4000,1745146188772750901
608032,-69,-1192,-1025,9698,-465,-4126,1745146188831475989
608224,-10,-1466,-1232,9863,59,-4238,1745146188831475989
608416,50,-1737,-1459,9961,631,-4638,1745146188831475989
608608,118,-2003,-1695,9826,1357,-4879,1745146188831475989
608800,171,-2249,-1924,9562,2076,-5301,1745146188831475989
608992,209,-2447,-2129,9265,2608,-5633,1745146188831475989
609184,236,-2620,-2311,9062,2945,-5826,1745146188831475989
609376,247,-2778,-2469,8951,3032,-6034,1745146188831475989
609568,272,-2914,-2617,8962,2964,-6196,1745146188831475989
609760,280,-3030,-2765,9024,2740,-6498,1745146188831475989
609952,273,-3122,-2916,8980,2494,-6709,1745146188831475989
610144,232,-3172,-3073,8834,2234,-6848,1745146188831475989
610336,144,-3189,-3223,8637,2040,-6998,1745146188891022268
610528,34,-3173,-3367,8322,2052,-7243,1745146188891022268
610720,-72,-3140,-3520,7915,2333,-7568,1745146188891022268
610912,-144,-3020,-3678,7756,2787,-7769,1745146188891022268
611104,-213,-2917,-3810,7801,3251,-7819,1745146188891022268
611296,-240,-2826,-3916,8064,3578,-7749,1745146188891022268
611488,-202,-2748,-4016,8519,4128,-7713,1745146188891022268
611680,-135,-2703,-4070,8947,4624,-7510,1745146188891022268
611872,-51,-2673,-4099,9297,4719,-7445,1745146188891022268
612064,58,-2655,-4188,9142,4896,-7449,1745146188891022268
612256,167,-2638,-4244,8784,5201,-7412,1745146188891022268
612448,241,-2615,-4172,8648,5053,-7458,1745146188891022268
612640,299,-2592,-4090,8626,4557,-7533,1745146188947023423
612832,335,-2568,-4074,8585,4182,-7582,1745146188947023423
613024,345,-2537,-4082,8461,3888,-7736,1745146188947023423
613216,344,-2493,-4110,8170,3861,-7834,1745146188947023423
613408,325,-2448,-4139,7937,4116,-7931,1745146188947023423
613600,290,-2409,-4113,7870,4302,-7974,1745146188947023423
613792,262,-2388,-4084,8027,4288,-7919,1745146188947023423
613984,257,-2392,-4113,8172,4312,-7890,1745146188947023423
614176,267,-2418,-4185,8096,4542,-7862,1745146188947023423
614368,260,-2446,-4214,7831,4923,-7932,1745146188947023423
614560,247,-2458,-4139,7577,4690,-8064,1745146188947023423
614752,274,-2461,-4099,7269,4728,-8160,1745146188947023423
614944,300,-2450,-4089,6974,4767,-8322,1745146189007171936
615136,325,-2427,-4080,6740,4823,-8472,1745146189007171936
615328,345,-2395,-4072,6595,4846,-8519,1745146189007171936
615520,364,-2373,-4068,6654,4767,-8393,1745146189007171936
615712,386,-2372,-4065,6796,4572,-8301,1745146189007171936
615904,420,-2375,-4067,6720,4416,-8196,1745146189007171936
616096,457,-2375,-4070,6527,4243,-8119,1745146189007171936
616288,489,-2377,-4079,6443,4114,-8045,1745146189007171936
616480,519,-2372,-4097,6258,4063,-8141,1745146189007171936
616672,548,-2358,-4113,6076,4150,-8130,1745146189007171936
616864,563,-2350,-4115,6053,4190,-8022,1745146189007171936
617056,576,-2351,-4103,6017,4218,-7987,1745146189007171936
617248,599,-2337,-4077,5798,4198,-7992,1745146189063397621
