timestamp,gyr_x,gyr_y,gyr_z,acc_x,acc_y,acc_z,pkt_time_ns
113440,124,201,-2,-95,1844,-7602,1745147077281400676
113632,155,72,9,-40,511,-8570,1745147077281400676
113824,85,4,5,-91,891,-7974,1745147077281400676
114016,90,37,22,-169,1072,-8057,1745147077281400676
114208,136,18,27,-104,1050,-8233,1745147077281400676
114400,95,27,24,-6,1048,-8188,1745147077281400676
114592,105,34,14,-7,996,-8257,1745147077281400676
114784,88,14,8,3,912,-8286,1745147077281400676
114976,58,24,7,7,865,-8276,1745147077281400676
115168,54,25,8,13,908,-8290,1745147077281400676
115360,26,20,12,38,986,-8306,1745147077281400676
115552,15,26,10,111,1003,-8344,1745147077281400676
115744,6,15,4,225,1052,-8411,1745147077337570840
115936,-2,8,0,267,1176,-8466,1745147077337570840
116128,14,4,-3,289,1331,-8570,1745147077337570840
116320,43,-7,-6,319,1488,-8595,1745147077337570840
116512,86,-20,-13,419,1649,-8585,1745147077337570840
116704,140,-45,-18,501,1791,-8656,1745147077337570840
116896,190,-77,-22,488,1860,-8568,1745147077337570840
117088,245,-83,-31,295,1718,-8414,1745147077337570840
117280,290,-85,-40,-62,980,-7898,1745147077337570840
117472,286,-135,-48,509,2253,-9254,1745147077337570840
117664,567,-121,-18,266,2757,-7669,1745147077337570840
117856,739,-100,-11,-158,1911,-8053,1745147077337570840
118048,786,-57,-46,-144,1206,-8408,1745147077395909162
118240,753,-30,-91,-312,526,-7885,1745147077395909162
118432,141,146,21,-1649,-2824,-8750,1745147077395909162
118624,-183,580,-46,-3470,-4442,-6124,1745147077395909162
118816,-326,405,-127,-2008,-3065,-6870,1745147077395909162
119008,-537,264,-1,-588,-2047,-7451,1745147077395909162
119200,-711,264,62,402,-520,-7910,1745147077395909162
119392,-857,145,52,726,822,-7649,1745147077395909162
119584,-859,130,-7,727,2044,-7653,1745147077395909162
119776,-719,83,-70,591,2862,-7780,1745147077395909162
119968,-497,44,-131,410,3382,-7833,1745147077395909162
120160,-263,24,-155,217,3583,-7946,1745147077395909162
120352,-59,2,-126,190,3204,-7974,1745147077453040046
120544,90,-10,-101,213,2525,-8010,1745147077453040046
120736,183,-21,-89,214,1822,-8035,1745147077453040046
120928,225,-35,-78,122,1182,-8052,1745147077453040046
121120,220,-41,-65,2,668,-8052,1745147077453040046
121312,183,-37,-52,-134,315,-8057,1745147077453040046
121504,123,-30,-43,-212,118,-8062,1745147077453040046
121696,56,-22,-39,-236,119,-8005,1745147077453040046
121888,-6,-16,-38,-191,244,-7989,1745147077453040046
122080,-61,-14,-40,-124,456,-7997,1745147077453040046
122272,-104,-15,-42,-35,683,-7994,1745147077453040046
122464,-129,-21,-43,19,937,-7984,1745147077453040046
122656,-134,-31,-44,49,1147,-7974,1745147077512724657
122848,-121,-40,-47,68,1322,-7946,1745147077512724657
123040,-98,-52,-52,60,1387,-7927,1745147077512724657
123232,-72,-63,-56,42,1398,-7954,1745147077512724657
123424,-51,-69,-57,30,1348,-8010,1745147077512724657
123616,-34,-74,-54,-6,1293,-8034,1745147077512724657
123808,-24,-81,-50,-42,1196,-8031,1745147077512724657
124000,-19,-88,-48,-76,1121,-8034,1745147077512724657
124192,-19,-91,-45,-105,1033,-8018,1745147077512724657
124384,-26,-93,-43,-145,966,-7995,1745147077512724657
124576,-38,-96,-41,-165,917,-7971,1745147077512724657
124768,-49,-97,-38,-218,928,-7969,1745147077512724657
124960,-58,-98,-35,-251,960,-7944,1745147077569260859
125152,-64,-98,-34,-268,1017,-7929,1745147077569260859
125344,-67,-100,-34,-275,1075,-7906,1745147077569260859
125536,-65,-100,-33,-285,1099,-7912,1745147077569260859
125728,-58,-101,-35,-264,1122,-7911,1745147077569260859
125920,-48,-100,-35,-246,1133,-7907,1745147077569260859
126112,-37,-99,-32,-217,1146,-7937,1745147077569260859
126304,-28,-97,-31,-206,1163,-7973,1745147077569260859
126496,-20,-95,-29,-183,1142,-8021,1745147077569260859
126688,-14,-93,-27,-188,1131,-8067,1745147077569260859
126880,-7,-89,-25,-184,1132,-8100,1745147077569260859
127072,-1,-86,-25,-189,1120,-8105,1745147077569260859
127264,3,-82,-24,-167,1090,-8134,1745147077630581966
127456,4,-77,-21,-151,1084,-8145,1745147077630581966
127648,1,-75,-20,-154,1083,-8140,1745147077630581966
127840,-4,-73,-20,-173,1060,-8138,1745147077630581966
128032,-9,-72,-22,-195,1041,-8112,1745147077630581966
128224,-14,-68,-25,-249,1027,-8094,1745147077630581966
128416,-19,-64,-28,-243,1017,-8067,1745147077630581966
128608,-23,-61,-33,-251,1026,-8032,1745147077630581966
128800,-26,-58,-35,-266,1045,-8016,1745147077630581966
128992,-28,-55,-38,-270,1057,-8023,1745147077630581966
129184,-28,-51,-40,-282,1091,-8013,1745147077630581966
129376,-25,-49,-44,-291,1128,-8016,1745147077630581966
129568,-18,-44,-47,-307,1145,-8032,1745147077683025914
129760,-9,-38,-50,-296,1148,-8050,1745147077683025914
129952,1,-31,-49,-277,1145,-8080,1745147077683025914
130144,11,-24,-47,-237,1149,-8129,1745147077683025914
130336,23,-17,-45,-244,1157,-8172,1745147077683025914
130528,30,-10,-43,-240,1158,-8188,1745147077683025914
130720,36,-3,-41,-232,1145,-8197,1745147077683025914
130912,39,4,-39,-228,1139,-8205,1745147077683025914
131104,40,13,-37,-218,1129,-8223,1745147077683025914
131296,38,21,-34,-205,1108,-8227,1745147077683025914
131488,34,27,-31,-190,1105,-8229,1745147077683025914
131680,28,33,-26,-186,1131,-8227,1745147077683025914
131872,21,39,-23,-189,1124,-8234,1745147077746443355
132064,14,45,-21,-193,1131,-8212,1745147077746443355
132256,8,51,-21,-186,1124,-8198,1745147077746443355
132448,4,56,-20,-172,1136,-8174,1745147077746443355
132640,-1,62,-19,-160,1152,-8165,1745147077746443355
132832,-5,67,-17,-176,1155,-8156,1745147077746443355
133024,-6,71,-15,-179,1162,-8140,1745147077746443355
133216,-4,75,-14,-181,1128,-8142,1745147077746443355
133408,0,79,-12,-192,1123,-8120,1745147077746443355
133600,7,84,-9,-207,1112,-8115,1745147077746443355
133792,12,90,-6,-191,1106,-8114,1745147077746443355
133984,14,95,-3,-170,1093,-8103,1745147077746443355
134176,15,98,0,-181,1081,-8092,1745147077803524761
134368,15,101,4,-201,1084,-8077,1745147077803524761
134560,16,104,8,-209,1063,-8091,1745147077803524761
134752,16,108,13,-207,1065,-8096,1745147077803524761
134944,17,112,16,-221,1076,-8087,1745147077803524761
135136,18,116,19,-193,1073,-8070,1745147077803524761
135328,18,118,22,-176,1097,-8063,1745147077803524761
135520,17,121,26,-163,1081,-8074,1745147077803524761
135712,15,123,30,-150,1100,-8062,1745147077803524761
135904,16,124,35,-150,1101,-8067,1745147077803524761
136096,17,124,38,-120,1123,-8045,1745147077803524761
136288,17,125,41,-125,1129,-8026,1745147077803524761
136480,15,126,46,-141,1134,-8030,1745147077858344312
136672,13,125,50,-148,1153,-8043,1745147077858344312
136864,13,124,51,-143,1127,-8052,1745147077858344312
137056,20,124,51,-130,1112,-8057,1745147077858344312
137248,27,127,48,-103,1061,-8064,1745147077858344312
137440,31,128,47,-65,1017,-8068,1745147077858344312
137632,32,127,49,-35,995,-8070,1745147077858344312
137824,34,126,51,-48,975,-8056,1745147077858344312
138016,33,126,54,-45,981,-8035,1745147077858344312
138208,31,126,55,-54,987,-8024,1745147077858344312
138400,28,124,55,-48,994,-8025,1745147077858344312
138592,27,122,54,-54,990,-8007,1745147077858344312
138784,28,121,53,-57,1015,-8022,1745147077922100813
138976,29,122,53,-41,1024,-8049,1745147077922100813
139168,29,123,53,-27,1053,-8115,1745147077922100813
139360,30,122,54,6,1064,-8148,1745147077922100813
139552,32,121,54,27,1078,-8140,1745147077922100813
139744,33,118,53,52,1073,-8131,1745147077922100813
139936,31,117,52,75,1044,-8133,1745147077922100813
140128,25,114,52,86,1034,-8103,1745147077922100813
140320,20,111,54,84,1018,-8085,1745147077922100813
140512,15,110,55,72,1041,-8070,1745147077922100813
140704,10,108,59,80,1043,-8066,1745147077922100813
140896,6,106,60,82,1060,-8055,1745147077922100813
141088,5,103,61,94,1055,-8050,1745147077981916048
141280,5,102,62,87,1064,-8053,1745147077981916048
141472,5,100,63,91,1044,-8050,1745147077981916048
141664,6,97,64,96,1024,-8061,1745147077981916048
141856,7,93,66,108,1017,-8055,1745147077981916048
142048,7,91,66,89,996,-8071,1745147077981916048
142240,9,90,67,89,1007,-8043,1745147077981916048
142432,11,85,69,87,1016,-8024,1745147077981916048
142624,10,83,70,84,1036,-8024,1745147077981916048
142816,6,81,74,98,1064,-7998,1745147077981916048
143008,2,78,76,112,1037,-8023,1745147077981916048
143200,1,75,78,113,1050,-8033,1745147077981916048
143392,4,72,79,123,1042,-8053,1745147078037142627
143584,8,69,78,121,1050,-8051,1745147078037142627
143776,12,67,78,137,1029,-8068,1745147078037142627
143968,15,66,79,124,1013,-8071,1745147078037142627
144160,15,64,82,117,995,-8090,1745147078037142627
144352,14,63,84,125,983,-8081,1745147078037142627
144544,11,61,86,131,980,-8083,1745147078037142627
144736,7,60,87,125,975,-8090,1745147078037142627
144928,3,59,87,161,985,-8080,1745147078037142627
145120,-1,58,89,141,1003,-8071,1745147078037142627
145312,-4,56,90,167,1000,-8075,1745147078037142627
145504,-7,55,93,171,1015,-8067,1745147078037142627
145696,-9,53,93,171,1031,-8060,1745147078097042913
145888,-9,51,95,181,1025,-8065,1745147078097042913
146080,-8,49,96,172,1018,-8061,1745147078097042913
146272,-6,48,99,164,1025,-8033,1745147078097042913
146464,-7,47,100,180,1025,-8028,1745147078097042913
146656,-11,46,103,160,1013,-8042,1745147078097042913
146848,-13,44,105,164,1024,-8061,1745147078097042913
147040,-13,43,106,151,1012,-8063,1745147078097042913
147232,-12,43,105,163,993,-8087,1745147078097042913
147424,-11,43,104,172,986,-8094,1745147078097042913
147616,-12,44,102,205,966,-8108,1745147078097042913
147808,-17,46,102,238,955,-8152,1745147078097042913
148000,-22,48,102,256,968,-8162,1745147078154009059
148192,-26,51,101,250,979,-8167,1745147078154009059
148384,-29,55,100,221,976,-8188,1745147078154009059
148576,-31,59,98,211,1016,-8205,1745147078154009059
148768,-33,63,96,220,1007,-8216,1745147078154009059
148960,-32,66,92,213,1016,-8204,1745147078154009059
149152,-29,67,86,231,985,-8197,1745147078154009059
149344,-29,70,81,246,964,-8192,1745147078154009059
149536,-29,73,77,248,966,-8193,1745147078154009059
149728,-30,76,74,255,942,-8205,1745147078154009059
149920,-34,80,72,274,942,-8216,1745147078154009059
150112,-39,84,70,299,941,-8238,1745147078154009059
150304,-46,87,67,328,931,-8265,1745147078214044917
150496,-54,92,63,358,929,-8303,1745147078214044917
150688,-61,96,58,394,924,-8354,1745147078214044917
150880,-66,101,53,448,920,-8425,1745147078214044917
151072,-71,105,47,552,903,-8517,1745147078214044917
151264,-75,105,43,701,875,-8629,1745147078214044917
151456,-80,94,41,876,864,-8716,1745147078214044917
151648,-87,79,44,989,860,-8812,1745147078214044917
151840,-99,64,56,1045,853,-8954,1745147078214044917
152032,-111,46,70,1141,840,-9073,1745147078214044917
152224,-117,18,82,1259,830,-9103,1745147078214044917
152416,-117,-11,89,1342,828,-9086,1745147078214044917
152608,-120,-30,99,1459,756,-9145,1745147078267520418
152800,-132,-49,117,1633,637,-9019,1745147078267520418
152992,-141,-64,143,1815,482,-8552,1745147078267520418
153184,-134,-60,165,2081,211,-7612,1745147078267520418
153376,-74,-77,169,2506,-287,-6373,1745147078267520418
153568,5,-172,155,3407,-1203,-5141,1745147078267520418
153760,63,-352,128,4478,-2391,-4995,1745147078267520418
153952,72,-511,154,5131,-3116,-4160,1745147078267520418
154144,41,-606,232,6438,-4478,-4818,1745147078267520418
154336,-282,-684,101,7150,-4893,-3646,1745147078267520418
154528,-1024,-799,-193,7343,-4544,-4727,1745147078267520418
154720,-1764,-950,-491,7059,-3763,-6787,1745147078267520418
154912,-2201,-932,-753,5826,-1808,-7187,1745147078330919735
155104,-2491,-788,-893,4977,-219,-7446,1745147078330919735
155296,-2680,-730,-885,4615,898,-8080,1745147078330919735
155488,-2716,-701,-721,4703,1982,-8159,1745147078330919735
155680,-2556,-607,-507,4895,3742,-7291,1745147078330919735
155872,-2211,-362,-366,4591,5361,-7427,1745147078330919735
156064,-1734,-257,-259,4955,6288,-8140,1745147078330919735
156256,-1230,-346,-31,5268,5922,-7386,1745147078330919735
156448,-783,-474,274,5739,4072,-7376,1745147078330919735
156640,-387,-637,575,5699,2058,-7203,1745147078330919735
156832,-55,-743,867,5332,214,-7180,1745147078330919735
157024,189,-799,1133,4818,-1331,-7227,1745147078330919735
157216,341,-808,1371,4139,-2576,-7073,1745147078387720153
157408,385,-769,1595,3665,-3784,-6780,1745147078387720153
157600,316,-707,1772,3395,-4671,-6262,1745147078387720153
157792,156,-609,1933,3183,-5271,-5694,1745147078387720153
157984,-56,-480,2110,2997,-5600,-5165,1745147078387720153
158176,-300,-328,2304,2790,-5764,-4682,1745147078387720153
158368,-568,-176,2501,2526,-5772,-4104,1745147078387720153
158560,-849,-28,2698,2261,-5625,-3513,1745147078387720153
158752,-1117,126,2900,2048,-5382,-2994,1745147078387720153
158944,-1361,272,3093,1984,-5081,-2556,1745147078387720153
159136,-1591,393,3273,1960,-4800,-2408,1745147078387720153
159328,-1817,509,3445,1914,-4509,-2407,1745147078387720153
159520,-2042,629,3610,1871,-4133,-2524,1745147078447888718
159712,-2272,760,3767,1896,-3597,-2557,1745147078447888718
159904,-2499,890,3917,2020,-3040,-2424,1745147078447888718
160096,-2706,1011,4054,2163,-2584,-2215,1745147078447888718
160288,-2882,1135,4181,2261,-2178,-2091,1745147078447888718
160480,-3022,1272,4306,2266,-1757,-1982,1745147078447888718
160672,-3128,1421,4432,2296,-1268,-2003,1745147078447888718
160864,-3194,1584,4557,2360,-724,-2089,1745147078447888718
161056,-3214,1765,4683,2370,-34,-2287,1745147078447888718
161248,-3177,1963,4808,2414,697,-2574,1745147078447888718
161440,-3087,2164,4931,2482,1528,-2982,1745147078447888718
161632,-2949,2361,5047,2622,2273,-3403,1745147078447888718
161824,-2774,2564,5147,2862,3072,-3805,1745147078504787938
162016,-2559,2758,5245,3207,3749,-4259,1745147078504787938
162208,-2307,2940,5329,3673,4313,-4588,1745147078504787938
162400,-2017,3101,5376,3948,5050,-4857,1745147078504787938
162592,-1686,3249,5409,4308,5613,-5113,1745147078504787938
162784,-1334,3395,5421,4427,6562,-5485,1745147078504787938
162976,-958,3537,5577,4847,6934,-5662,1745147078504787938
163168,-531,3660,5650,5306,6912,-5877,1745147078504787938
163360,-60,3755,5625,5715,7262,-6095,1745147078504787938
163552,420,3840,5631,6326,6911,-6127,1745147078504787938
163744,889,3865,5574,7160,6412,-5913,1745147078504787938
163936,1300,3846,5480,8110,5416,-5211,1745147078504787938
164128,1598,3743,5375,9275,3766,-4632,1745147078564722547
164320,1825,3634,5298,9957,2062,-4250,1745147078564722547
164512,2040,3606,5276,10480,827,-4135,1745147078564722547
164704,2287,3630,5273,10954,437,-4330,1745147078564722547
164896,2553,3759,5223,11396,1039,-4924,1745147078564722547
165088,2796,3952,5068,11903,2473,-5616,1745147078564722547
165280,2978,4144,4811,12335,3962,-5786,1745147078564722547
165472,3170,4249,4499,13711,5701,-7914,1745147078564722547
165664,3237,4501,4243,14018,6689,-7337,1745147078564722547
165856,3334,4551,4105,14460,7374,-7326,1745147078564722547
166048,3446,4527,4117,14824,7569,-7287,1745147078564722547
166240,3499,4504,4256,14974,7262,-7210,1745147078564722547
166432,3477,4453,4460,14804,6498,-6935,1745147078620507298
166624,3368,4403,4664,14436,5284,-6733,1745147078620507298
166816,3174,4333,4825,13919,3888,-6396,1745147078620507298
167008,2895,4258,4936,13464,2539,-6046,1745147078620507298
167200,2528,4188,4998,13072,1235,-5737,1745147078620507298
167392,2084,4129,5016,13027,146,-5743,1745147078620507298
167584,1539,4127,5005,12779,-799,-4636,1745147078620507298
167776,914,3954,4965,12934,-1962,-4129,1745147078620507298
167968,332,3688,4934,13388,-2468,-3990,1745147078620507298
168160,-253,3513,4952,13856,-2887,-3564,1745147078620507298
168352,-716,3342,4869,14689,-3780,-3173,1745147078620507298
168544,-1111,3110,4482,15230,-3489,-2997,1745147078620507298
168736,-1472,2860,3960,15363,-2467,-3150,1745147078681868508
168928,-1807,2624,3400,15089,-1001,-3532,1745147078681868508
169120,-2090,2359,2867,14440,527,-3827,1745147078681868508
169312,-2278,2065,2414,13551,1993,-4017,1745147078681868508
169504,-2357,1768,2075,12677,3236,-4114,1745147078681868508
169696,-2352,1475,1833,11992,4150,-4250,1745147078681868508
169888,-2277,1184,1651,11479,4669,-4391,1745147078681868508
170080,-2134,896,1489,11013,4814,-4493,1745147078681868508
170272,-1931,636,1314,10494,4677,-4589,1745147078681868508
170464,-1694,414,1126,9947,4365,-4720,1745147078681868508
170656,-1442,236,947,9355,3939,-4822,1745147078681868508
170848,-1188,111,787,8836,3406,-4912,1745147078681868508
171040,-939,16,655,8357,2889,-4887,1745147078737625238
171232,-692,-47,554,7950,2396,-4809,1745147078737625238
171424,-470,-95,477,7720,1807,-4728,1745147078737625238
171616,-270,-135,409,7629,1188,-4641,1745147078737625238
171808,-91,-160,332,7554,604,-4549,1745147078737625238
172000,69,-164,244,7483,91,-4482,1745147078737625238
172192,198,-147,148,7374,-361,-4432,1745147078737625238
172384,302,-108,52,7190,-693,-4458,1745147078737625238
172576,379,-48,-11,7092,-1110,-4423,1745147078737625238
172768,422,-1,-55,6992,-1438,-4231,1745147078737625238
172960,419,51,-64,6896,-1771,-4076,1745147078737625238
173152,387,112,-32,6692,-1989,-4024,1745147078737625238
173344,344,172,28,6619,-2358,-3919,1745147078796337202
173536,295,216,53,6684,-2621,-3862,1745147078796337202
173728,224,248,61,6878,-2959,-3735,1745147078796337202
173920,151,256,45,7049,-3215,-3622,1745147078796337202
174112,84,258,16,7111,-3323,-3525,1745147078796337202
174304,27,269,-14,7031,-3257,-3562,1745147078796337202
174496,-23,293,-21,6910,-3084,-3530,1745147078796337202
174688,-68,300,5,6810,-2949,-3429,1745147078796337202
174880,-89,292,64,6741,-2858,-3414,1745147078796337202
175072,-84,269,145,6703,-2740,-3403,1745147078796337202
175264,-49,254,234,6693,-2585,-3501,1745147078796337202
175456,-1,248,314,6731,-2457,-3554,1745147078796337202
175648,48,240,365,6843,-2372,-3511,1745147078856548267
175840,88,222,384,7013,-2367,-3449,1745147078856548267
176032,122,192,373,7158,-2470,-3357,1745147078856548267
176224,154,152,337,7266,-2653,-3251,1745147078856548267
176416,190,110,291,7257,-2866,-3123,1745147078856548267
176608,224,68,245,7184,-3070,-2986,1745147078856548267
176800,242,27,207,7079,-3261,-2934,1745147078856548267
176992,263,-7,172,6930,-3414,-2942,1745147078856548267
177184,277,-26,143,6787,-3501,-3020,1745147078856548267
177376,284,-31,117,6691,-3564,-3105,1745147078856548267
177568,276,-33,91,6654,-3613,-3109,1745147078856548267
177760,257,-39,70,6672,-3667,-3089,1745147078856548267
177952,232,-47,60,6718,-3718,-3050,1745147078913027594
178144,206,-55,59,6763,-3760,-2994,1745147078913027594
178336,185,-61,62,6822,-3779,-2997,1745147078913027594
178528,168,-62,65,6881,-3720,-2961,1745147078913027594
178720,150,-65,64,6917,-3638,-2940,1745147078913027594
178912,129,-69,61,6945,-3566,-2930,1745147078913027594
179104,110,-75,58,6954,-3535,-2860,1745147078913027594
179296,97,-83,54,6978,-3470,-2743,1745147078913027594
179488,86,-98,55,6973,-3468,-2666,1745147078913027594
179680,84,-109,56,6974,-3464,-2609,1745147078913027594
179872,87,-121,49,6991,-3427,-2537,1745147078913027594
180064,89,-134,33,7017,-3415,-2457,1745147078913027594
180256,86,-151,14,7046,-3453,-2381,1745147078973229024
180448,83,-168,-5,7081,-3531,-2342,1745147078973229024
180640,82,-184,-22,7111,-3601,-2317,1745147078973229024
180832,79,-194,-41,7128,-3641,-2295,1745147078973229024
181024,74,-202,-65,7127,-3684,-2278,1745147078973229024
181216,69,-208,-91,7119,-3688,-2222,1745147078973229024
181408,72,-216,-112,6988,-3698,-2157,1745147078973229024
181600,74,-202,-120,6732,-3631,-2133,1745147078973229024
181792,65,-217,-93,6938,-3743,-2151,1745147078973229024
181984,57,-207,-97,7184,-4065,-2306,1745147078973229024
182176,37,-192,-157,7243,-4177,-2098,1745147078973229024
182368,29,-188,-210,7119,-4231,-2118,1745147078973229024
182560,25,-170,-233,6933,-4107,-2193,1745147079029938453
182752,12,-162,-217,6765,-3916,-2172,1745147079029938453
182944,-2,-139,-182,6702,-3773,-2256,1745147079029938453
183136,-6,-123,-147,6746,-3662,-2217,1745147079029938453
183328,-2,-114,-123,6882,-3661,-2175,1745147079029938453
183520,7,-118,-110,7048,-3712,-2114,1745147079029938453
183712,21,-126,-108,7150,-3789,-2059,1745147079029938453
183904,34,-134,-111,7199,-3852,-2028,1745147079029938453
184096,45,-140,-112,7161,-3910,-2021,1745147079029938453
184288,56,-145,-109,7075,-3923,-2045,1745147079029938453
184480,72,-145,-103,6950,-3900,-2104,1745147079029938453
184672,88,-139,-95,6859,-3816,-2171,1745147079029938453
184864,98,-126,-89,6756,-3756,-2197,1745147079090274569
185056,102,-114,-89,6767,-3732,-2168,1745147079090274569
185248,104,-110,-90,6828,-3818,-2094,1745147079090274569
185440,113,-112,-87,6887,-3915,-2042,1745147079090274569
185632,131,-111,-82,6897,-3967,-2017,1745147079090274569
185824,148,-100,-76,6900,-3893,-2074,1745147079090274569
186016,153,-85,-76,6896,-3849,-2091,1745147079090274569
186208,151,-84,-87,6933,-3837,-1999,1745147079090274569
186400,156,-92,-101,6958,-3891,-1929,1745147079090274569
186592,174,-108,-106,6933,-3935,-1917,1745147079090274569
186784,194,-111,-101,6868,-3947,-1965,1745147079090274569
186976,202,-103,-89,6800,-3942,-2001,1745147079090274569
187168,199,-94,-68,6810,-3954,-1969,1745147079147610503
187360,188,-99,-55,6945,-3990,-1900,1745147079147610503
187552,184,-111,-65,7024,-3957,-1917,1745147079147610503
187744,186,-112,-85,6974,-3853,-1979,1745147079147610503
187936,188,-100,-98,6871,-3762,-2030,1745147079147610503
188128,186,-87,-92,6812,-3698,-2057,1745147079147610503
188320,180,-80,-75,6801,-3674,-2048,1745147079147610503
188512,173,-78,-59,6797,-3710,-2021,1745147079147610503
188704,174,-76,-47,6821,-3811,-1967,1745147079147610503
188896,180,-75,-42,6875,-3922,-1940,1745147079147610503
189088,184,-75,-46,6956,-3991,-1969,1745147079147610503
189280,175,-71,-59,6974,-3998,-1972,1745147079147610503
189472,152,-64,-78,6973,-3978,-1938,1745147079206941732
189664,125,-57,-92,6951,-3960,-1898,1745147079206941732
189856,106,-52,-98,6950,-3940,-1894,1745147079206941732
190048,96,-49,-99,6972,-3927,-1907,1745147079206941732
190240,85,-49,-102,6997,-3929,-1882,1745147079206941732
190432,73,-53,-105,7051,-3975,-1817,1745147079206941732
190624,63,-59,-106,7069,-4011,-1785,1745147079206941732
190816,59,-61,-104,7028,-4021,-1817,1745147079206941732
191008,56,-58,-101,6992,-3954,-1863,1745147079206941732
191200,53,-48,-101,6941,-3894,-1939,1745147079206941732
191392,53,-37,-97,6906,-3851,-1979,1745147079206941732
191584,65,-25,-88,6913,-3817,-1962,1745147079206941732
191776,90,-16,-78,6952,-3784,-1958,1745147079264495113
191968,116,-10,-71,7002,-3744,-1960,1745147079264495113
192160,133,-8,-69,7078,-3743,-1904,1745147079264495113
192352,144,-15,-71,7112,-3810,-1860,1745147079264495113
192544,157,-29,-69,7139,-3920,-1861,1745147079264495113
192736,177,-42,-66,7105,-4016,-1905,1745147079264495113
192928,194,-46,-66,7033,-4049,-1969,1745147079264495113
193120,199,-41,-71,6954,-4029,-2015,1745147079264495113
193312,189,-34,-77,6904,-4079,-2044,1745147079264495113
193504,175,-26,-77,6909,-4158,-2049,1745147079264495113
193696,167,-20,-68,6929,-4219,-2018,1745147079264495113
193888,163,-10,-53,6958,-4246,-2012,1745147079264495113
194080,157,2,-40,6989,-4239,-2033,1745147079323821498
194272,145,14,-33,7001,-4166,-2056,1745147079323821498
194464,128,24,-30,7013,-4103,-2067,1745147079323821498
194656,115,29,-27,6993,-4042,-2050,1745147079323821498
194848,112,31,-24,6989,-3979,-2028,1745147079323821498
195040,115,32,-20,6990,-3924,-2040,1745147079323821498
195232,119,31,-19,7008,-3871,-2054,1745147079323821498
195424,120,27,-21,7062,-3873,-2054,1745147079323821498
195616,123,18,-23,7112,-3927,-2039,1745147079323821498
195808,132,7,-26,7129,-3989,-2006,1745147079323821498
196000,139,-4,-31,7136,-4046,-1985,1745147079323821498
196192,141,-13,-39,7110,-4095,-1989,1745147079323821498
196384,136,-18,-50,7046,-4120,-2027,1745147079380967486
196576,126,-18,-60,6977,-4117,-2047,1745147079380967486
196768,113,-15,-68,6919,-4110,-2068,1745147079380967486
196960,100,-8,-67,6887,-4076,-2080,1745147079380967486
197152,86,0,-61,6876,-4055,-2087,1745147079380967486
197344,72,7,-54,6921,-4032,-2119,1745147079380967486
197536,58,12,-47,6973,-3997,-2146,1745147079380967486
197728,47,13,-45,7001,-3976,-2139,1745147079380967486
197920,36,13,-45,7029,-3957,-2124,1745147079380967486
198112,26,9,-49,7053,-3957,-2076,1745147079380967486
198304,15,2,-55,7077,-3990,-2044,1745147079380967486
198496,6,-7,-61,7053,-4033,-2007,1745147079380967486
198688,-3,-13,-68,7026,-4033,-2018,1745147079437654416
198880,-15,-15,-75,6982,-4024,-2015,1745147079437654416
199072,-30,-14,-81,6969,-4050,-2023,1745147079437654416
199264,-41,-9,-83,6930,-4017,-2015,1745147079437654416
199456,-47,-1,-83,6913,-3964,-2029,1745147079437654416
199648,-52,6,-81,6913,-3894,-2060,1745147079437654416
199840,-54,16,-77,6927,-3844,-2081,1745147079437654416
200032,-54,22,-74,6942,-3830,-2037,1745147079437654416
200224,-47,26,-66,6976,-3863,-2016,1745147079437654416
200416,-31,25,-58,7027,-3858,-1986,1745147079437654416
200608,-14,24,-55,7037,-3853,-2001,1745147079437654416
200800,2,25,-56,7010,-3842,-2049,1745147079437654416
200992,17,28,-58,6968,-3802,-2064,1745147079499364894
201184,32,35,-56,6920,-3771,-2070,1745147079499364894
201376,46,41,-50,6903,-3743,-2126,1745147079499364894
201568,57,47,-44,6911,-3739,-2146,1745147079499364894
201760,70,53,-40,6937,-3730,-2142,1745147079499364894
201952,83,57,-39,6957,-3755,-2112,1745147079499364894
202144,93,56,-39,7014,-3765,-2098,1745147079499364894
202336,101,55,-39,7013,-3798,-2065,1745147079499364894
202528,104,52,-38,7027,-3833,-2040,1745147079499364894
202720,103,49,-41,7055,-3868,-2022,1745147079499364894
202912,103,46,-43,7067,-3898,-2021,1745147079499364894
203104,104,43,-44,7072,-3883,-2052,1745147079499364894
203296,100,40,-47,7090,-3885,-2042,1745147079556463956
203488,93,33,-50,7103,-3893,-1979,1745147079556463956
203680,87,24,-52,7131,-3949,-1910,1745147079556463956
203872,83,14,-51,7128,-3957,-1881,1745147079556463956
204064,79,3,-48,7142,-3984,-1893,1745147079556463956
204256,75,-7,-47,7142,-4004,-1891,1745147079556463956
204448,70,-16,-44,7132,-4016,-1900,1745147079556463956
204640,67,-25,-40,7123,-4054,-1913,1745147079556463956
204832,64,-30,-33,7093,-4067,-1948,1745147079556463956
205024,57,-30,-26,7082,-4027,-2014,1745147079556463956
205216,48,-27,-23,7062,-4006,-2044,1745147079556463956
205408,40,-24,-20,7024,-3979,-2030,1745147079556463956
205600,33,-22,-17,7009,-3965,-2024,1745147079616553043
205792,27,-23,-14,7016,-3979,-2010,1745147079616553043
205984,22,-21,-10,7009,-3965,-2017,1745147079616553043
206176,17,-16,-7,7009,-3943,-2014,1745147079616553043
206368,8,-11,-6,6998,-3932,-2004,1745147079616553043
206560,0,-8,-10,6994,-3912,-2001,1745147079616553043
206752,-7,-6,-15,6985,-3883,-2000,1745147079616553043
206944,-12,-5,-19,6990,-3856,-1990,1745147079616553043
207136,-16,-2,-22,7002,-3846,-1961,1745147079616553043
207328,-17,-2,-23,7014,-3848,-1941,1745147079616553043
207520,-16,-4,-24,7054,-3865,-1926,1745147079616553043
207712,-14,-7,-24,7070,-3897,-1916,1745147079616553043
207904,-11,-10,-26,7066,-3903,-1926,1745147079669648183
208096,-7,-11,-27,7074,-3907,-1953,1745147079669648183
208288,-3,-10,-29,7072,-3908,-1942,1745147079669648183
208480,-2,-10,-29,7063,-3886,-1938,1745147079669648183
208672,-3,-10,-28,7056,-3884,-1946,1745147079669648183
208864,-3,-9,-24,7042,-3888,-1964,1745147079669648183
209056,-1,-10,-17,7053,-3879,-1931,1745147079669648183
209248,-1,-10,-10,7048,-3891,-1920,1745147079669648183
209440,-4,-13,-4,7044,-3923,-1902,1745147079669648183
209632,-7,-17,0,7030,-3978,-1866,1745147079669648183
209824,-9,-19,6,7028,-4026,-1866,1745147079669648183
210016,-12,-17,12,6992,-4039,-1909,1745147079669648183
210208,-18,-12,17,6938,-3984,-1955,1745147079729921799
210400,-28,-1,19,6913,-3920,-1997,1745147079729921799
210592,-37,13,23,6898,-3853,-2026,1745147079729921799
210784,-39,25,28,6905,-3798,-2030,1745147079729921799
210976,-35,30,32,6942,-3762,-2008,1745147079729921799
211168,-25,33,38,7000,-3758,-2024,1745147079729921799
211360,-12,36,41,7044,-3781,-2040,1745147079729921799
211552,3,40,42,7069,-3770,-2072,1745147079729921799
211744,19,42,38,7062,-3746,-2073,1745147079729921799
211936,36,42,32,7064,-3704,-2070,1745147079729921799
212128,47,39,26,7074,-3679,-2059,1745147079729921799
212320,59,36,23,7065,-3704,-2040,1745147079729921799
212512,71,33,24,7057,-3726,-2037,1745147079791676287
212704,83,30,25,7059,-3761,-2064,1745147079791676287
212896,90,26,23,7046,-3793,-2081,1745147079791676287
213088,92,24,19,7053,-3833,-2091,1745147079791676287
213280,92,21,15,7036,-3872,-2083,1745147079791676287
213472,90,20,10,7031,-3872,-2054,1745147079791676287
213664,83,19,7,7021,-3889,-2041,1745147079791676287
213856,73,18,6,7038,-3890,-2030,1745147079791676287
214048,63,14,4,7063,-3919,-2006,1745147079791676287
214240,54,10,4,7088,-3927,-1976,1745147079791676287
214432,49,4,6,7120,-3928,-1957,1745147079791676287
214624,46,-2,7,7154,-3917,-1961,1745147079791676287
214816,45,-8,4,7144,-3906,-1982,1745147079844972623
215008,47,-14,1,7129,-3874,-2013,1745147079844972623
215200,46,-18,-4,7099,-3863,-2031,1745147079844972623
215392,45,-20,-8,7078,-3840,-2035,1745147079844972623
215584,45,-20,-10,7048,-3837,-2048,1745147079844972623
215776,47,-21,-8,7028,-3820,-2045,1745147079844972623
215968,48,-20,-8,7014,-3814,-2042,1745147079844972623
216160,49,-21,-6,7003,-3819,-2029,1745147079844972623
216352,48,-20,-7,6998,-3851,-2021,1745147079844972623
216544,45,-22,-9,7025,-3888,-1980,1745147079844972623
216736,42,-26,-11,7031,-3944,-1984,1745147079844972623
216928,40,-28,-13,7034,-3948,-1986,1745147079844972623
217120,36,-28,-16,7021,-3949,-1978,1745147079908540896
217312,28,-28,-18,7016,-3961,-1971,1745147079908540896
217504,22,-29,-17,7013,-4019,-1985,1745147079908540896
217696,20,-28,-12,6994,-4032,-1971,1745147079908540896
217888,16,-23,-6,6978,-4010,-2004,1745147079908540896
218080,8,-12,2,6954,-3933,-2027,1745147079908540896
218272,1,-2,9,6972,-3862,-2060,1745147079908540896
218464,-2,4,15,6980,-3793,-2069,1745147079908540896
218656,1,7,21,7021,-3743,-2061,1745147079908540896
218848,7,6,24,7050,-3722,-2021,1745147079908540896
219040,15,2,25,7090,-3711,-2007,1745147079908540896
219232,23,-5,24,7086,-3748,-1995,1745147079908540896
219424,34,-13,18,7056,-3758,-1993,1745147079962800296
219616,43,-18,11,7049,-3744,-2030,1745147079962800296
219808,46,-22,2,7024,-3729,-2050,1745147079962800296
220000,45,-25,-7,7001,-3746,-2030,1745147079962800296
220192,39,-28,-12,6992,-3783,-2015,1745147079962800296
220384,36,-29,-15,7008,-3852,-1984,1745147079962800296
220576,34,-33,-15,7034,-3914,-1928,1745147079962800296
220768,32,-37,-15,7027,-3962,-1933,1745147079962800296
220960,27,-36,-16,7027,-3944,-1975,1745147079962800296
221152,18,-31,-20,7016,-3871,-2015,1745147079962800296
221344,8,-25,-22,6998,-3791,-2042,1745147079962800296
221536,4,-21,-20,6996,-3727,-2041,1745147079962800296
221728,9,-20,-14,7006,-3690,-2052,1745147080023400159
221920,17,-20,-9,7011,-3663,-2035,1745147080023400159
222112,27,-22,-5,7048,-3655,-2014,1745147080023400159
222304,37,-27,-5,7056,-3684,-2007,1745147080023400159
222496,45,-32,-10,7064,-3696,-2023,1745147080023400159
222688,48,-34,-17,7037,-3688,-2015,1745147080023400159
222880,47,-37,-24,7013,-3736,-1991,1745147080023400159
223072,46,-41,-29,6995,-3796,-1983,1745147080023400159
223264,49,-43,-33,6977,-3830,-2007,1745147080023400159
223456,50,-41,-38,6955,-3812,-2043,1745147080023400159
223648,43,-38,-44,6937,-3807,-2067,1745147080023400159
223840,35,-34,-50,6960,-3818,-2075,1745147080023400159
224032,30,-32,-53,6967,-3809,-2050,1745147080083601120
224224,27,-30,-54,6990,-3791,-2047,1745147080083601120
224416,22,-28,-55,7022,-3792,-2036,1745147080083601120
224608,19,-29,-52,7051,-3800,-2013,1745147080083601120
224800,19,-31,-49,7052,-3818,-1996,1745147080083601120
224992,22,-34,-44,7083,-3842,-2004,1745147080083601120
225184,26,-37,-44,7084,-3837,-2017,1745147080083601120
225376,26,-36,-45,7062,-3822,-2017,1745147080083601120
225568,27,-36,-48,7050,-3817,-1979,1745147080083601120
225760,30,-36,-48,7030,-3848,-1957,1745147080083601120
225952,36,-38,-47,7035,-3861,-1970,1745147080083601120
226144,40,-39,-45,6997,-3889,-1992,1745147080083601120
226336,40,-37,-45,6986,-3887,-2017,1745147080140830076
226528,40,-34,-43,6976,-3898,-2030,1745147080140830076
226720,41,-31,-40,6953,-3891,-2034,1745147080140830076
226912,42,-27,-37,6951,-3861,-2037,1745147080140830076
227104,40,-21,-33,6945,-3837,-2055,1745147080140830076
227296,39,-18,-30,6956,-3834,-2057,1745147080140830076
227488,37,-19,-28,7006,-3860,-1995,1745147080140830076
227680,37,-25,-27,7056,-3936,-1956,1745147080140830076
227872,37,-33,-27,7087,-4012,-1918,1745147080140830076
228064,37,-37,-26,7079,-4025,-1952,1745147080140830076
228256,35,-35,-25,7041,-4005,-2005,1745147080140830076
228448,28,-29,-25,7004,-3918,-2077,1745147080140830076
228640,19,-22,-24,6975,-3847,-2099,1745147080200329949
228832,13,-16,-21,6964,-3805,-2101,1745147080200329949
229024,12,-13,-15,6988,-3810,-2067,1745147080200329949
229216,18,-14,-10,7020,-3823,-2023,1745147080200329949
229408,28,-16,-10,7067,-3853,-1996,1745147080200329949
229600,33,-20,-14,7081,-3852,-1976,1745147080200329949
229792,35,-26,-19,7102,-3871,-1967,1745147080200329949
229984,36,-31,-23,7056,-3873,-1960,1745147080200329949
230176,37,-33,-25,7009,-3856,-1987,1745147080200329949
230368,38,-32,-24,6974,-3854,-2000,1745147080200329949
230560,36,-31,-23,6967,-3875,-1982,1745147080200329949
230752,36,-32,-23,6972,-3909,-1973,1745147080200329949
230944,38,-32,-21,6973,-3954,-1967,1745147080254742473
231136,36,-28,-19,7007,-3967,-1996,1745147080254742473
231328,30,-24,-18,7005,-3941,-2015,1745147080254742473
231520,23,-17,-16,6983,-3913,-2025,1745147080254742473
231712,17,-12,-12,6994,-3889,-2009,1745147080254742473
231904,13,-11,-5,7002,-3890,-1999,1745147080254742473
232096,15,-12,1,7017,-3900,-1981,1745147080254742473
232288,21,-12,5,7012,-3888,-1997,1745147080254742473
232480,26,-10,5,7022,-3869,-2013,1745147080254742473
232672,26,-8,4,7014,-3834,-2035,1745147080254742473
232864,26,-6,2,7011,-3822,-2047,1745147080254742473
233056,29,-6,1,7014,-3796,-2053,1745147080254742473
233248,32,-5,0,6986,-3769,-2043,1745147080314855518
233440,35,-4,-1,7008,-3783,-2033,1745147080314855518
233632,37,-7,-3,7033,-3811,-2012,1745147080314855518
233824,40,-11,-5,7039,-3839,-1996,1745147080314855518
234016,41,-16,-11,7063,-3868,-1985,1745147080314855518
234208,38,-20,-15,7056,-3906,-1963,1745147080314855518
234400,34,-24,-19,7067,-3942,-1945,1745147080314855518
234592,30,-28,-20,7031,-3966,-1955,1745147080314855518
234784,23,-29,-19,7021,-3956,-1988,1745147080314855518
234976,17,-27,-17,7004,-3921,-2002,1745147080314855518
235168,9,-23,-15,6992,-3881,-2033,1745147080314855518
235360,1,-17,-12,6978,-3851,-2032,1745147080314855518
235552,-2,-16,-7,6988,-3864,-2019,1745147080376311467
235744,0,-17,-3,7019,-3881,-1995,1745147080376311467
235936,5,-19,1,7030,-3906,-1981,1745147080376311467
236128,7,-19,3,7029,-3883,-1974,1745147080376311467
236320,5,-17,3,7019,-3879,-1987,1745147080376311467
236512,0,-15,4,6992,-3873,-2000,1745147080376311467
236704,2,-12,7,6989,-3863,-2024,1745147080376311467
236896,6,-7,9,6981,-3839,-2050,1745147080376311467
237088,8,-1,9,6995,-3812,-2037,1745147080376311467
237280,10,3,8,6995,-3776,-2046,1745147080376311467
237472,13,6,6,7008,-3757,-2047,1745147080376311467
237664,18,7,4,7026,-3751,-2035,1745147080376311467
237856,25,4,3,7048,-3770,-2030,1745147080433446934
238048,31,0,1,7062,-3783,-2046,1745147080433446934
238240,36,-4,-1,7058,-3784,-2053,1745147080433446934
238432,38,-9,-4,7049,-3808,-2049,1745147080433446934
238624,40,-11,-7,7035,-3825,-2042,1745147080433446934
238816,41,-12,-9,6998,-3822,-2030,1745147080433446934
239008,37,-14,-11,7006,-3839,-2018,1745147080433446934
239200,33,-15,-13,7012,-3862,-1994,1745147080433446934
239392,27,-21,-12,7032,-3933,-1969,1745147080433446934
239584,22,-25,-10,7039,-3971,-1956,1745147080433446934
239776,19,-27,-6,7019,-3997,-1983,1745147080433446934
239968,12,-23,-4,7001,-3962,-2018,1745147080433446934
240160,-1,-17,-3,6994,-3919,-2029,1745147080493454563
240352,-10,-13,-2,6962,-3874,-2031,1745147080493454563
240544,-11,-9,2,6965,-3826,-2047,1745147080493454563
240736,-5,-7,7,6977,-3788,-2072,1745147080493454563
240928,5,-5,9,6985,-3775,-2061,1745147080493454563
241120,12,-6,7,7000,-3790,-2016,1745147080493454563
241312,18,-10,5,7029,-3820,-1994,1745147080493454563
241504,26,-14,4,7046,-3871,-2000,1745147080493454563
241696,35,-15,6,7020,-3875,-2031,1745147080493454563
241888,37,-10,4,6982,-3862,-2061,1745147080493454563
242080,33,-6,1,6957,-3838,-2088,1745147080493454563
242272,30,-3,1,6954,-3828,-2070,1745147080493454563
242464,30,0,2,6959,-3841,-2079,1745147080550832581
242656,31,2,4,6974,-3820,-2067,1745147080550832581
242848,29,3,3,7015,-3800,-2063,1745147080550832581
243040,26,3,2,7033,-3794,-2053,1745147080550832581
243232,24,-1,2,7066,-3801,-1998,1745147080550832581
243424,22,-8,1,7098,-3843,-1965,1745147080550832581
243616,22,-17,0,7102,-3900,-1916,1745147080550832581
243808,22,-27,1,7095,-3961,-1915,1745147080550832581
244000,21,-30,3,7046,-3971,-1946,1745147080550832581
244192,16,-28,2,6991,-3942,-2020,1745147080550832581
244384,6,-19,2,6962,-3885,-2077,1745147080550832581
244576,-2,-10,3,6946,-3837,-2093,1745147080550832581
244768,-5,-3,7,6942,-3820,-2070,1745147080610268288
244960,-4,3,13,6966,-3796,-2060,1745147080610268288
245152,-1,8,18,6981,-3773,-2080,1745147080610268288
245344,1,11,19,7001,-3744,-2087,1745147080610268288
245536,5,14,16,7007,-3726,-2103,1745147080610268288
245728,11,15,12,7024,-3709,-2119,1745147080610268288
245920,21,14,8,7017,-3696,-2118,1745147080610268288
246112,29,12,4,7026,-3689,-2113,1745147080610268288
246304,35,9,-1,7023,-3736,-2058,1745147080610268288
246496,37,4,-3,7034,-3820,-2023,1745147080610268288
246688,40,-1,-3,7037,-3885,-2018,1745147080610268288
246880,43,-6,-6,7040,-3929,-2031,1745147080610268288
247072,37,-10,-11,7037,-3967,-2051,1745147080667527140
247264,26,-12,-14,7003,-3978,-2040,1745147080667527140
247456,18,-10,-11,6988,-3968,-2068,1745147080667527140
247648,8,-7,-5,6957,-3912,-2087,1745147080667527140
247840,-1,-3,3,6954,-3891,-2087,1745147080667527140
248032,-5,-1,12,6968,-3883,-2083,1745147080667527140
248224,-5,1,20,7009,-3874,-2086,1745147080667527140
248416,-4,-1,25,7033,-3872,-2085,1745147080667527140
248608,-2,-1,27,7038,-3845,-2101,1745147080667527140
248800,2,-2,28,7034,-3823,-2102,1745147080667527140
248992,8,-4,27,7022,-3792,-2117,1745147080667527140
249184,16,-5,25,7010,-3792,-2111,1745147080667527140
249376,23,-6,22,6999,-3774,-2126,1745147080727466905
249568,28,-7,18,6993,-3785,-2121,1745147080727466905
249760,31,-5,12,7004,-3786,-2123,1745147080727466905
249952,34,-5,5,7005,-3808,-2099,1745147080727466905
250144,39,-9,-2,7009,-3814,-2093,1745147080727466905
250336,43,-12,-8,7012,-3831,-2092,1745147080727466905
250528,42,-16,-14,7019,-3820,-2095,1745147080727466905
250720,39,-20,-18,7018,-3835,-2098,1745147080727466905
250912,38,-23,-19,7015,-3843,-2096,1745147080727466905
251104,38,-27,-18,7028,-3848,-2126,1745147080727466905
251296,38,-32,-19,7044,-3858,-2138,1745147080727466905
251488,39,-36,-18,7032,-3880,-2104,1745147080727466905
251680,39,-39,-17,7067,-3916,-2071,1745147080784422322
251872,34,-43,-16,7051,-3946,-2058,1745147080784422322
252064,28,-43,-12,7023,-3938,-2065,1745147080784422322
252256,21,-42,-8,6996,-3921,-2074,1745147080784422322
252448,12,-40,-7,6979,-3915,-2092,1745147080784422322
252640,5,-39,-7,6973,-3906,-2098,1745147080784422322
252832,1,-39,-7,6972,-3894,-2092,1745147080784422322
253024,-3,-38,-7,6967,-3865,-2082,1745147080784422322
253216,-5,-35,-9,6977,-3851,-2063,1745147080784422322
253408,-6,-35,-10,6975,-3874,-2042,1745147080784422322
253600,-2,-37,-13,7008,-3873,-2027,1745147080784422322
253792,1,-38,-15,7012,-3871,-2046,1745147080784422322
253984,3,-38,-16,7012,-3842,-2051,1745147080844204901
254176,6,-36,-17,7015,-3837,-2042,1745147080844204901
254368,10,-36,-18,7014,-3826,-2023,1745147080844204901
254560,14,-36,-20,7016,-3817,-2032,1745147080844204901
254752,21,-37,-20,7019,-3813,-2042,1745147080844204901
254944,26,-37,-19,7006,-3824,-2026,1745147080844204901
255136,28,-39,-18,7002,-3867,-2019,1745147080844204901
255328,31,-40,-14,7005,-3900,-2004,1745147080844204901
255520,32,-41,-10,6990,-3919,-2014,1745147080844204901
255712,32,-40,-4,6981,-3927,-2028,1745147080844204901
255904,29,-37,-2,6976,-3926,-2029,1745147080844204901
256096,23,-34,1,6988,-3945,-2000,1745147080844204901
256288,17,-34,3,6977,-3988,-1996,1745147080901334223
256480,13,-34,6,6965,-4001,-2004,1745147080901334223
256672,9,-30,8,6950,-3971,-2028,1745147080901334223
256864,2,-24,7,6931,-3935,-2033,1745147080901334223
257056,-5,-20,7,6932,-3923,-2024,1745147080901334223
257248,-3,-16,9,6923,-3887,-2029,1745147080901334223
257440,2,-14,13,6931,-3865,-2037,1745147080901334223
257632,6,-11,15,6953,-3871,-2054,1745147080901334223
257824,9,-12,15,6973,-3853,-2047,1745147080901334223
258016,13,-14,15,6986,-3852,-2047,1745147080901334223
258208,17,-15,15,7031,-3855,-2041,1745147080901334223
258400,22,-18,12,7020,-3844,-2025,1745147080901334223
258592,28,-22,11,7008,-3866,-2032,1745147080961177374
258784,33,-24,8,6995,-3862,-2046,1745147080961177374
258976,35,-24,4,6979,-3845,-2064,1745147080961177374
259168,34,-25,0,6963,-3844,-2090,1745147080961177374
259360,32,-26,-4,6959,-3827,-2065,1745147080961177374
259552,31,-28,-6,6972,-3864,-2034,1745147080961177374
259744,29,-33,-7,7000,-3897,-2021,1745147080961177374
259936,27,-38,-7,7003,-3945,-2009,1745147080961177374
260128,24,-41,-7,7005,-3957,-2023,1745147080961177374
260320,17,-42,-9,6988,-3954,-2026,1745147080961177374
260512,8,-43,-12,6984,-3954,-2007,1745147080961177374
260704,0,-44,-13,6994,-3983,-1982,1745147080961177374
260896,-3,-46,-11,6979,-4002,-1989,1745147081015503440
261088,-5,-45,-7,6971,-4003,-1998,1745147081015503440
261280,-9,-42,-4,6967,-4007,-1997,1745147081015503440
261472,-15,-39,-2,6945,-3977,-2021,1745147081015503440
261664,-19,-35,2,6936,-3981,-2044,1745147081015503440
261856,-19,-29,4,6925,-3910,-2058,1745147081015503440
262048,-16,-23,7,6909,-3870,-2064,1745147081015503440
262240,-15,-17,9,6911,-3864,-2075,1745147081015503440
262432,-11,-14,12,6940,-3864,-2043,1745147081015503440
262624,-5,-11,14,6959,-3859,-2033,1745147081015503440
262816,0,-10,14,6985,-3862,-2026,1745147081015503440
263008,3,-10,13,6991,-3862,-2009,1745147081015503440
263200,6,-11,11,6992,-3875,-2032,1745147081078556458
263392,10,-13,10,6988,-3873,-2035,1745147081078556458
263584,14,-14,8,6998,-3879,-2018,1745147081078556458
263776,16,-16,6,6996,-3901,-2003,1745147081078556458
263968,15,-17,4,7008,-3927,-2011,1745147081078556458
264160,13,-18,4,6993,-3935,-2036,1745147081078556458
264352,10,-19,5,6993,-3944,-2063,1745147081078556458
264544,8,-20,6,6961,-3928,-2065,1745147081078556458
264736,7,-18,7,6956,-3913,-2073,1745147081078556458
264928,5,-16,9,6943,-3893,-2082,1745147081078556458
265120,3,-13,13,6956,-3893,-2059,1745147081078556458
265312,3,-14,16,6941,-3900,-2042,1745147081078556458
265504,7,-14,19,6945,-3906,-2062,1745147081135498438
265696,11,-16,18,6960,-3901,-2064,1745147081135498438
265888,12,-17,14,6967,-3920,-2044,1745147081135498438
266080,12,-18,12,6957,-3932,-2014,1745147081135498438
266272,14,-18,11,6941,-3966,-2023,1745147081135498438
266464,14,-16,10,6931,-3951,-2046,1745147081135498438
266656,11,-13,10,6916,-3926,-2067,1745147081135498438
266848,5,-9,11,6924,-3917,-2062,1745147081135498438
267040,2,-6,14,6948,-3899,-2054,1745147081135498438
267232,3,-5,17,6968,-3915,-2051,1745147081135498438
267424,4,-6,19,7002,-3910,-2025,1745147081135498438
267616,6,-9,19,7010,-3908,-2029,1745147081135498438
267808,7,-11,18,7003,-3903,-2060,1745147081195422995
268000,7,-10,15,6975,-3880,-2076,1745147081195422995
268192,4,-9,12,6970,-3882,-2066,1745147081195422995
268384,2,-10,12,6958,-3920,-2032,1745147081195422995
268576,2,-13,13,6945,-3970,-2001,1745147081195422995
268768,2,-14,15,6969,-3988,-2008,1745147081195422995
268960,0,-11,16,6939,-3967,-2042,1745147081195422995
269152,-7,-4,13,6920,-3919,-2083,1745147081195422995
269344,-13,2,12,6916,-3885,-2091,1745147081195422995
269536,-15,4,13,6938,-3862,-2062,1745147081195422995
269728,-12,5,14,6949,-3853,-2055,1745147081195422995
269920,-9,3,15,6977,-3857,-2053,1745147081195422995
270112,-5,2,14,6977,-3867,-2066,1745147081252413464
270304,-1,1,10,6982,-3847,-2068,1745147081252413464
270496,0,-2,5,6976,-3841,-2086,1745147081252413464
270688,3,-4,1,6962,-3845,-2074,1745147081252413464
270880,7,-8,1,6962,-3898,-2071,1745147081252413464
271072,12,-11,2,6937,-3914,-2084,1745147081252413464
271264,18,-10,3,6910,-3921,-2103,1745147081252413464
271456,18,-7,1,6899,-3907,-2104,1745147081252413464
271648,12,-5,-1,6907,-3906,-2063,1745147081252413464
271840,6,-7,-2,6939,-3965,-2012,1745147081252413464
272032,3,-8,2,6956,-3995,-2011,1745147081252413464
272224,2,-8,8,6954,-3979,-2054,1745147081252413464
272416,-2,-6,11,6931,-3943,-2108,1745147081312177501
272608,-6,-3,11,6918,-3891,-2119,1745147081312177501
272800,-9,-2,10,6922,-3896,-2119,1745147081312177501
272992,-6,-1,10,6920,-3868,-2092,1745147081312177501
273184,0,0,12,6913,-3858,-2103,1745147081312177501
273376,3,2,13,6925,-3863,-2105,1745147081312177501
273568,5,5,14,6952,-3867,-2093,1745147081312177501
273760,8,8,15,6960,-3868,-2097,1745147081312177501
273952,14,11,15,6975,-3861,-2084,1745147081312177501
274144,20,12,14,6959,-3848,-2105,1745147081312177501
274336,25,10,10,6979,-3859,-2090,1745147081312177501
274528,30,7,4,6995,-3892,-2091,1745147081312177501
274720,35,3,2,6976,-3939,-2090,1745147081369421249
274912,39,2,4,6978,-3973,-2083,1745147081369421249
275104,38,2,4,6982,-3991,-2074,1745147081369421249
275296,33,2,4,6980,-4021,-2078,1745147081369421249
275488,28,-1,6,6976,-4037,-2080,1745147081369421249
275680,23,0,9,6943,-4018,-2114,1745147081369421249
275872,17,3,14,6927,-4007,-2146,1745147081369421249
276064,10,7,18,6904,-3973,-2177,1745147081369421249
276256,5,9,20,6907,-3960,-2174,1745147081369421249
276448,1,9,20,6897,-3940,-2140,1745147081369421249
276640,1,7,21,6913,-3961,-2140,1745147081369421249
276832,5,5,21,6936,-3954,-2155,1745147081369421249
277024,9,3,20,6939,-3938,-2171,1745147081429869603
277216,12,1,17,6939,-3949,-2150,1745147081429869603
277408,13,0,14,6962,-3960,-2129,1745147081429869603
277600,13,-3,13,6979,-3971,-2111,1745147081429869603
277792,12,-4,11,6998,-3996,-2120,1745147081429869603
277984,10,-7,10,6987,-4014,-2126,1745147081429869603
278176,6,-7,10,6964,-3998,-2129,1745147081429869603
278368,2,-4,12,6951,-4001,-2129,1745147081429869603
278560,-2,-3,14,6973,-3998,-2136,1745147081429869603
278752,-3,-3,16,6953,-3964,-2144,1745147081429869603
278944,-4,-2,17,6938,-3932,-2138,1745147081429869603
279136,-4,-4,16,6941,-3928,-2108,1745147081429869603
279328,-5,-9,16,6956,-3963,-2063,1745147081490105251
279520,-2,-16,19,6944,-4011,-2067,1745147081490105251
279712,6,-18,23,6925,-4016,-2099,1745147081490105251
279904,13,-15,24,6886,-3971,-2139,1745147081490105251
280096,14,-8,23,6889,-3916,-2156,1745147081490105251
280288,11,-4,22,6870,-3914,-2159,1745147081490105251
280480,12,-1,24,6874,-3918,-2138,1745147081490105251
280672,16,1,28,6889,-3938,-2135,1745147081490105251
280864,17,5,30,6907,-3938,-2132,1745147081490105251
281056,16,8,30,6928,-3920,-2141,1745147081490105251
281248,17,9,25,6935,-3895,-2144,1745147081490105251
281440,17,8,19,6951,-3869,-2122,1745147081490105251
281632,17,3,14,6963,-3859,-2102,1745147081547691912
281824,20,-3,11,6952,-3895,-2084,1745147081547691912
282016,26,-9,9,6950,-3919,-2073,1745147081547691912
282208,31,-13,7,6942,-3945,-2054,1745147081547691912
282400,32,-17,3,6952,-4002,-2050,1745147081547691912
282592,32,-20,-1,6952,-4033,-2077,1745147081547691912
282784,31,-19,-2,6930,-4032,-2122,1745147081547691912
282976,28,-14,0,6898,-4013,-2137,1745147081547691912
283168,23,-9,2,6870,-3975,-2150,1745147081547691912
283360,19,-4,7,6875,-3954,-2130,1745147081547691912
283552,16,-3,12,6910,-3993,-2099,1745147081547691912
283744,16,-7,17,6934,-4047,-2071,1745147081547691912
283936,16,-12,19,6960,-4097,-2060,1745147081607364857
284128,12,-13,18,6932,-4076,-2059,1745147081607364857
284320,3,-13,16,6919,-4073,-2077,1745147081607364857
284512,-7,-11,14,6881,-4049,-2072,1745147081607364857
284704,-12,-8,14,6853,-4033,-2085,1745147081607364857
284896,-11,-1,17,6846,-3982,-2148,1745147081607364857
285088,-9,8,18,6859,-3911,-2188,1745147081607364857
285280,-7,14,16,6894,-3871,-2189,1745147081607364857
285472,-3,13,12,6968,-3864,-2186,1745147081607364857
285664,0,7,8,7029,-3919,-2166,1745147081607364857
285856,7,-4,5,7053,-3971,-2164,1745147081607364857
286048,14,-13,3,7034,-4017,-2186,1745147081607364857
286240,19,-19,-1,6994,-4010,-2239,1745147081664060224
286432,17,-21,-5,6954,-4012,-2302,1745147081664060224
286624,11,-22,-11,6949,-4023,-2373,1745147081664060224
286816,4,-23,-16,6941,-4036,-2448,1745147081664060224
287008,-6,-24,-19,6943,-4041,-2528,1745147081664060224
287200,-16,-24,-21,6954,-4060,-2612,1745147081664060224
287392,-28,-26,-26,6985,-4075,-2739,1745147081664060224
287584,-42,-30,-34,7036,-4110,-2852,1745147081664060224
287776,-55,-38,-46,7080,-4179,-2956,1745147081664060224
287968,-71,-49,-62,7109,-4222,-3075,1745147081664060224
288160,-95,-61,-81,7125,-4270,-3212,1745147081664060224
288352,-124,-70,-98,7124,-4261,-3384,1745147081664060224
288544,-160,-76,-119,7113,-4194,-3610,1745147081722960363
288736,-200,-76,-141,7144,-4087,-3818,1745147081722960363
288928,-239,-78,-161,7229,-3943,-4019,1745147081722960363
289120,-280,-82,-184,7348,-3761,-4163,1745147081722960363
289312,-323,-93,-214,7495,-3565,-4325,1745147081722960363
289504,-370,-118,-256,7651,-3369,-4490,1745147081722960363
289696,-419,-154,-308,7819,-3114,-4765,1745147081722960363
289888,-463,-196,-374,7931,-2760,-5125,1745147081722960363
290080,-508,-241,-455,8034,-2325,-5458,1745147081722960363
290272,-556,-293,-553,8167,-1872,-5740,1745147081722960363
290464,-607,-356,-665,8319,-1432,-5931,1745147081722960363
290656,-655,-437,-791,8512,-1039,-6060,1745147081722960363
290848,-699,-541,-928,8807,-724,-6090,1745147081779453389
291040,-733,-671,-1079,9171,-494,-6120,1745147081779453389
291232,-755,-830,-1247,9602,-320,-6094,1745147081779453389
291424,-764,-1018,-1434,10091,-176,-6066,1745147081779453389
291616,-756,-1234,-1639,10627,-41,-6073,1745147081779453389
291808,-730,-1467,-1860,11143,161,-6136,1745147081779453389
292000,-700,-1711,-2090,11698,416,-6317,1745147081779453389
292192,-676,-1966,-2321,12171,835,-6537,1745147081779453389
292384,-663,-2218,-2545,12571,1398,-6749,1745147081779453389
292576,-651,-2466,-2762,12915,2038,-6768,1745147081779453389
292768,-644,-2711,-2970,13309,2572,-6769,1745147081779453389
292960,-625,-2963,-3159,13662,2992,-6719,1745147081779453389
293152,-587,-3213,-3323,13925,3348,-6633,1745147081842480157
293344,-523,-3450,-3456,14077,3642,-6525,1745147081842480157
293536,-446,-3673,-3565,14233,3836,-6552,1745147081842480157
293728,-365,-3881,-3661,14258,3977,-6457,1745147081842480157
293920,-302,-4067,-3755,14191,4066,-6566,1745147081842480157
294112,-254,-4231,-3852,14034,4144,-6616,1745147081842480157
294304,-230,-4368,-3948,13814,4166,-6559,1745147081842480157
294496,-221,-4488,-4029,13670,4033,-6501,1745147081842480157
294688,-207,-4605,-4108,13507,3897,-6407,1745147081842480157
294880,-187,-4713,-4187,13301,3781,-6490,1745147081842480157
295072,-163,-4797,-4274,12926,3777,-6664,1745147081842480157
295264,-152,-4850,-4381,12288,3847,-6857,1745147081842480157
295456,-153,-4858,-4490,11594,4052,-7154,1745147081897670642
295648,-155,-4827,-4581,10896,4199,-7347,1745147081897670642
295840,-170,-4783,-4658,10270,4479,-7407,1745147081897670642
296032,-184,-4721,-4684,9772,4553,-7441,1745147081897670642
296224,-173,-4646,-4677,9406,4478,-7340,1745147081897670642
296416,-129,-4580,-4647,8977,4440,-7005,1745147081897670642
296608,-78,-4523,-4550,8770,4276,-6848,1745147081897670642
296800,-40,-4463,-4465,8398,3707,-6666,1745147081897670642
296992,11,-4411,-4449,7832,3355,-6469,1745147081897670642
297184,44,-4337,-4440,7151,3021,-6367,1745147081897670642
297376,68,-4238,-4424,6444,2686,-6335,1745147081897670642
297568,96,-4115,-4398,5863,2445,-6191,1745147081897670642
297760,122,-3979,-4364,5452,2211,-5942,1745147081958151600
297952,142,-3842,-4319,5202,1958,-5581,1745147081958151600
298144,174,-3711,-4257,4950,1723,-5289,1745147081958151600
298336,225,-3569,-4172,4639,1536,-4992,1745147081958151600
298528,292,-3439,-4089,4530,1212,-4728,1745147081958151600
298720,356,-3353,-4070,4527,939,-4522,1745147081958151600
298912,408,-3234,-4088,4260,788,-4568,1745147081958151600
299104,457,-3104,-4093,3879,645,-4530,1745147081958151600
299296,513,-3005,-4061,3592,658,-4370,1745147081958151600
299488,578,-2901,-3957,3402,649,-4292,1745147081958151600
299680,634,-2796,-3831,3275,461,-4226,1745147081958151600
299872,676,-2689,-3746,3081,251,-4126,1745147081958151600
300064,710,-2583,-3673,2928,-2,-3979,1745147082015341442
300256,746,-2485,-3591,2789,-252,-3883,1745147082015341442
300448,784,-2386,-3494,2648,-421,-3791,1745147082015341442
300640,817,-2293,-3389,2545,-562,-3681,1745147082015341442
300832,840,-2212,-3293,2556,-678,-3606,1745147082015341442
301024,855,-2135,-3207,2414,-729,-3599,1745147082015341442
301216,867,-2041,-3116,2186,-738,-3682,1745147082015341442
301408,875,-1943,-3015,2064,-753,-3773,1745147082015341442
301600,873,-1832,-2913,1947,-744,-4004,1745147082015341442
301792,862,-1711,-2809,1881,-829,-4227,1745147082015341442
301984,853,-1599,-2715,1778,-881,-4414,1745147082015341442
302176,852,-1476,-2617,1732,-899,-4508,1745147082015341442
302368,850,-1357,-2505,1672,-1040,-4633,1745147082074749702
302560,852,-1225,-2405,1591,-1233,-4676,1745147082074749702
302752,868,-1105,-2334,1464,-1378,-4728,1745147082074749702
302944,881,-985,-2275,1409,-1478,-4705,1745147082074749702
303136,879,-866,-2213,1253,-1589,-4660,1745147082074749702
303328,870,-734,-2131,1126,-1611,-4642,1745147082074749702
303520,869,-612,-2015,1111,-1636,-4590,1745147082074749702
303712,874,-510,-1890,1143,-1662,-4531,1745147082074749702
303904,882,-408,-1782,1179,-1662,-4554,1745147082074749702
304096,893,-314,-1687,1235,-1638,-4618,1745147082074749702
304288,904,-236,-1601,1244,-1612,-4662,1745147082074749702
304480,919,-162,-1527,1294,-1624,-4674,1745147082074749702
304672,933,-105,-1462,1418,-1750,-4809,1745147082130796794
304864,944,-59,-1408,1532,-1905,-4939,1745147082130796794
305056,945,-11,-1360,1588,-2053,-5017,1745147082130796794
305248,943,29,-1317,1670,-2238,-5097,1745147082130796794
305440,937,68,-1284,1698,-2339,-5174,1745147082130796794
305632,922,109,-1250,1718,-2408,-5307,1745147082130796794
305824,889,151,-1221,1670,-2452,-5420,1745147082130796794
306016,837,194,-1194,1588,-2432,-5531,1745147082130796794
306208,768,238,-1152,1512,-2408,-5623,1745147082130796794
306400,694,284,-1093,1435,-2404,-5654,1745147082130796794
306592,622,330,-1016,1459,-2447,-5725,1745147082130796794
306784,548,375,-932,1593,-2457,-5844,1745147082130796794
306976,481,412,-844,1652,-2483,-6007,1745147082191748424
307168,429,473,-757,1658,-2352,-6163,1745147082191748424
307360,388,530,-661,1726,-2272,-6331,1745147082191748424
307552,360,572,-580,1831,-2148,-6575,1745147082191748424
307744,336,608,-523,1936,-2012,-6775,1745147082191748424
307936,320,647,-479,2032,-1852,-6938,1745147082191748424
308128,308,686,-430,2142,-1774,-7063,1745147082191748424
308320,309,718,-385,2296,-1679,-7157,1745147082191748424
308512,319,750,-349,2414,-1599,-7219,1745147082191748424
308704,324,773,-326,2585,-1456,-7315,1745147082191748424
308896,326,788,-316,2704,-1310,-7361,1745147082191748424
309088,322,791,-312,2769,-1178,-7344,1745147082191748424
309280,317,782,-301,2870,-1096,-7338,1745147082250126433
309472,310,761,-290,2925,-1086,-7354,1745147082250126433
309664,299,728,-280,2985,-1108,-7382,1745147082250126433
309856,285,687,-277,2950,-1092,-7429,1745147082250126433
310048,269,645,-270,2817,-1051,-7412,1745147082250126433
310240,242,589,-261,2714,-1035,-7417,1745147082250126433
310432,205,537,-241,2694,-1039,-7588,1745147082250126433
310624,164,513,-217,2669,-1041,-7676,1745147082250126433
310816,120,501,-193,2616,-1013,-7654,1745147082250126433
311008,77,490,-167,2561,-987,-7673,1745147082250126433
311200,33,470,-150,2486,-887,-7666,1745147082250126433
311392,-7,445,-134,2454,-776,-7682,1745147082250126433
311584,-38,468,-111,2423,-580,-8001,1745147082306901695
311776,-126,516,-100,2208,-536,-7551,1745147082306901695
311968,-165,514,-84,2137,-431,-7531,1745147082306901695
312160,-190,514,-59,2047,-309,-7550,1745147082306901695
312352,-189,517,-25,1952,-170,-7619,1745147082306901695
312544,-151,520,9,1930,2,-7752,1745147082306901695
312736,-81,507,35,1941,217,-7949,1745147082306901695
312928,15,481,51,1985,460,-8232,1745147082306901695
313120,125,446,54,2156,628,-8309,1745147082306901695
313312,202,360,36,2705,401,-8963,1745147082306901695
313504,149,208,-28,3526,-275,-10394,1745147082306901695
313696,-7,49,-101,4086,-840,-11029,1745147082306901695
313888,-183,-90,-110,4033,-877,-10551,1745147082366222195
314080,-282,-177,-47,3501,-454,-10294,1745147082366222195
314272,-323,-210,39,2950,92,-10200,1745147082366222195
314464,-318,-239,82,2440,528,-9836,1745147082366222195
314656,-272,-316,71,2089,671,-9461,1745147082366222195
314848,-222,-401,41,1698,495,-9354,1745147082366222195
315040,-196,-427,23,1104,192,-9161,1745147082366222195
315232,-183,-390,33,454,-29,-8763,1745147082366222195
315424,-171,-309,61,-55,-64,-8220,1745147082366222195
315616,-139,-222,81,-336,85,-7860,1745147082366222195
315808,-123,-127,74,-466,324,-7618,1745147082366222195
316000,-156,-56,39,-471,515,-7411,1745147082366222195
316192,-199,-30,-2,-341,678,-7318,1745147082425593163
316384,-217,-19,-20,-95,774,-7342,1745147082425593163
316576,-200,-7,-12,181,776,-7426,1745147082425593163
316768,-167,1,7,430,717,-7541,1745147082425593163
316960,-134,-2,21,613,598,-7694,1745147082425593163
317152,-106,-8,25,635,467,-7863,1745147082425593163
317344,-80,-7,22,591,347,-7982,1745147082425593163
317536,-57,-2,18,494,215,-8044,1745147082425593163
317728,-40,-5,11,399,70,-8117,1745147082425593163
317920,-32,-18,9,349,-30,-8259,1745147082425593163
318112,-35,-31,8,319,-122,-8417,1745147082425593163
318304,-48,-33,7,264,-146,-8530,1745147082425593163
318496,-67,-26,13,243,-131,-8629,1745147082480797607
318688,-87,-17,24,222,-90,-8685,1745147082480797607
318880,-106,-12,35,236,-51,-8721,1745147082480797607
319072,-127,-11,39,264,4,-8770,1745147082480797607
319264,-151,-7,39,323,78,-8804,1745147082480797607
319456,-176,1,38,393,124,-8728,1745147082480797607
319648,-201,1,36,460,164,-8617,1745147082480797607
319840,-225,-4,33,431,238,-8516,1745147082480797607
320032,-243,-4,36,449,326,-8393,1745147082480797607
320224,-258,-1,41,470,422,-8237,1745147082480797607
320416,-267,-2,45,492,492,-8106,1745147082480797607
320608,-268,-10,46,500,551,-8004,1745147082480797607
320800,-261,-14,49,540,611,-7893,1745147082542495429
320992,-250,-15,54,551,670,-7801,1745147082542495429
321184,-239,-17,57,551,708,-7730,1745147082542495429
321376,-225,-26,60,548,670,-7702,1745147082542495429
321568,-209,-41,61,567,642,-7721,1745147082542495429
321760,-190,-52,61,585,593,-7737,1745147082542495429
321952,-171,-62,61,575,535,-7754,1745147082542495429
322144,-159,-74,61,567,478,-7816,1745147082542495429
322336,-150,-84,61,557,432,-7902,1745147082542495429
322528,-147,-92,65,550,427,-7965,1745147082542495429
322720,-149,-98,72,537,420,-8022,1745147082542495429
322912,-152,-107,81,544,449,-8110,1745147082542495429
323104,-159,-117,92,529,470,-8231,1745147082600583127
323296,-167,-126,100,540,511,-8350,1745147082600583127
323488,-175,-129,108,534,568,-8414,1745147082600583127
323680,-177,-130,116,502,642,-8449,1745147082600583127
323872,-179,-129,123,498,715,-8463,1745147082600583127
324064,-181,-120,127,499,757,-8425,1745147082600583127
324256,-181,-122,127,491,782,-8327,1745147082600583127
324448,-179,-135,124,513,776,-8324,1745147082600583127
324640,-169,-144,122,510,763,-8325,1745147082600583127
324832,-160,-145,121,476,724,-8238,1745147082600583127
325024,-152,-148,119,432,683,-8167,1745147082600583127
325216,-145,-154,119,388,606,-8104,1745147082600583127
325408,-142,-161,119,343,545,-8082,1745147082659370142
325600,-147,-166,118,329,492,-8062,1745147082659370142
325792,-155,-170,117,294,439,-8062,1745147082659370142
325984,-170,-164,117,267,438,-7930,1745147082659370142
326176,-193,-157,116,225,456,-7992,1745147082659370142
326368,-207,-169,117,232,457,-8057,1745147082659370142
326560,-200,-166,118,254,514,-8094,1745147082659370142
326752,-192,-150,119,226,607,-8035,1745147082659370142
326944,-190,-143,116,213,684,-8090,1745147082659370142
327136,-186,-152,111,219,722,-8197,1745147082659370142
327328,-168,-154,106,278,749,-8298,1745147082659370142
327520,-149,-148,101,256,795,-8321,1745147082659370142
327712,-136,-142,99,245,800,-8292,1745147082715923272
327904,-133,-139,99,247,796,-8321,1745147082715923272
328096,-134,-137,101,248,777,-8379,1745147082715923272
328288,-130,-130,106,238,746,-8382,1745147082715923272
328480,-127,-122,111,223,711,-8356,1745147082715923272
328672,-129,-117,111,195,684,-8318,1745147082715923272
328864,-135,-113,108,170,683,-8269,1745147082715923272
329056,-142,-108,106,148,695,-8209,1745147082715923272
329248,-151,-103,103,132,688,-8144,1745147082715923272
329440,-157,-96,101,112,708,-8125,1745147082715923272
329632,-158,-91,97,133,736,-8092,1745147082715923272
329824,-155,-86,91,147,762,-8082,1745147082715923272
330016,-148,-80,84,148,758,-8091,1745147082776354334
330208,-139,-73,76,158,787,-8092,1745147082776354334
330400,-130,-67,68,170,786,-8098,1745147082776354334
330592,-119,-63,62,178,783,-8105,1745147082776354334
330784,-111,-59,56,177,756,-8103,1745147082776354334
330976,-105,-53,52,166,759,-8113,1745147082776354334
331168,-100,-47,49,170,749,-8119,1745147082776354334
331360,-99,-39,47,150,732,-8143,1745147082776354334
331552,-98,-33,46,170,753,-8151,1745147082776354334
331744,-95,-28,44,172,776,-8153,1745147082776354334
331936,-93,-23,42,162,791,-8164,1745147082776354334
332128,-90,-18,38,184,821,-8156,1745147082776354334
332320,-91,-13,34,191,818,-8153,1745147082834818748
332512,-91,-9,29,150,855,-8127,1745147082834818748
332704,-88,-7,25,145,885,-8116,1745147082834818748
332896,-82,-4,22,145,898,-8125,1745147082834818748
333088,-77,0,19,132,928,-8123,1745147082834818748
333280,-70,5,17,138,917,-8100,1745147082834818748
333472,-62,7,13,153,903,-8072,1745147082834818748
333664,-54,10,8,164,871,-8050,1745147082834818748
333856,-48,12,4,165,857,-8036,1745147082834818748
334048,-45,13,1,160,830,-8022,1745147082834818748
334240,-45,13,-1,180,830,-8016,1745147082834818748
334432,-44,12,-3,168,800,-8025,1745147082834818748
334624,-43,12,-4,173,791,-8024,1745147082892937904
334816,-41,11,-5,173,789,-8020,1745147082892937904
335008,-41,8,-7,184,789,-8040,1745147082892937904
335200,-44,4,-8,170,788,-8061,1745147082892937904
335392,-48,-1,-12,174,800,-8069,1745147082892937904
335584,-53,-5,-15,164,778,-8058,1745147082892937904
335776,-56,-13,-18,153,771,-8043,1745147082892937904
335968,-59,-20,-21,137,781,-8036,1745147082892937904
336160,-59,-25,-24,99,791,-8011,1745147082892937904
336352,-59,-29,-29,84,815,-8010,1745147082892937904
336544,-58,-31,-33,74,823,-8011,1745147082892937904
336736,-56,-30,-37,82,843,-8015,1745147082892937904
336928,-52,-27,-41,95,849,-7995,1745147082950563211
337120,-51,-26,-42,124,873,-7995,1745147082950563211
337312,-49,-25,-41,169,881,-7993,1745147082950563211
337504,-49,-28,-39,183,911,-7992,1745147082950563211
337696,-47,-31,-35,189,931,-8001,1745147082950563211
337888,-45,-37,-32,211,945,-8014,1745147082950563211
338080,-44,-42,-28,224,970,-8024,1745147082950563211
338272,-44,-46,-25,234,966,-8026,1745147082950563211
338464,-45,-51,-24,232,978,-8004,1745147082950563211
338656,-44,-57,-27,229,956,-7989,1745147082950563211
338848,-43,-62,-28,209,956,-7960,1745147082950563211
339040,-41,-67,-27,181,943,-7943,1745147082950563211
339232,-40,-72,-26,159,933,-7966,1745147083009215436
339424,-40,-76,-24,140,902,-7984,1745147083009215436
339616,-38,-80,-23,121,880,-8020,1745147083009215436
339808,-39,-80,-23,108,874,-8038,1745147083009215436
340000,-41,-78,-23,106,865,-8089,1745147083009215436
340192,-47,-77,-23,126,858,-8088,1745147083009215436
340384,-56,-77,-20,130,856,-8124,1745147083009215436
340576,-64,-78,-18,135,860,-8179,1745147083009215436
340768,-70,-79,-15,139,890,-8212,1745147083009215436
340960,-76,-78,-11,142,913,-8234,1745147083009215436
341152,-82,-75,-8,153,943,-8210,1745147083009215436
341344,-87,-76,-5,156,951,-8171,1745147083009215436
341536,-90,-78,-4,142,982,-8141,1745147083068849006
341728,-91,-82,-5,135,994,-8102,1745147083068849006
341920,-90,-84,-6,116,1023,-8047,1745147083068849006
342112,-86,-84,-6,92,1031,-8012,1745147083068849006
342304,-80,-85,-9,65,1025,-7991,1745147083068849006
342496,-71,-86,-14,40,1020,-7985,1745147083068849006
342688,-60,-85,-18,36,1007,-8047,1745147083068849006
342880,-51,-77,-18,21,973,-8052,1745147083068849006
343072,-45,-72,-18,21,974,-8084,1745147083068849006
343264,-41,-68,-16,40,967,-8109,1745147083068849006
343456,-40,-64,-15,56,964,-8133,1745147083068849006
343648,-40,-62,-14,57,968,-8130,1745147083068849006
343840,-41,-61,-14,63,970,-8129,1745147083126658582
344032,-40,-61,-14,57,976,-8129,1745147083126658582
344224,-39,-59,-15,36,1010,-8114,1745147083126658582
344416,-36,-58,-13,24,1013,-8109,1745147083126658582
344608,-33,-56,-12,3,1002,-8114,1745147083126658582
344800,-30,-53,-13,-9,1004,-8098,1745147083126658582
344992,-29,-49,-16,-31,1001,-8112,1745147083126658582
345184,-28,-43,-18,-27,995,-8102,1745147083126658582
345376,-30,-37,-21,-18,981,-8125,1745147083126658582
345568,-31,-31,-24,-27,981,-8138,1745147083126658582
345760,-33,-27,-26,-15,982,-8124,1745147083126658582
345952,-33,-23,-26,2,973,-8110,1745147083126658582
346144,-32,-21,-26,23,963,-8097,1745147083184791488
346336,-32,-19,-25,30,965,-8085,1745147083184791488
346528,-31,-19,-25,31,974,-8087,1745147083184791488
346720,-31,-16,-24,60,979,-8086,1745147083184791488
346912,-32,-13,-24,22,955,-8054,1745147083184791488
347104,-32,-20,-25,-5,965,-8042,1745147083184791488
347296,-33,-24,-26,2,978,-8072,1745147083184791488
347488,-34,-23,-26,-17,993,-8066,1745147083184791488
347680,-36,-19,-25,-31,1000,-8068,1745147083184791488
347872,-39,-17,-24,-12,1013,-8071,1745147083184791488
348064,-42,-18,-25,-28,998,-8081,1745147083184791488
348256,-48,-15,-28,-2,1006,-8085,1745147083184791488
348448,-48,-12,-29,-7,1013,-8062,1745147083243013769
348640,-45,-13,-27,2,1029,-8047,1745147083243013769
348832,-43,-14,-25,-16,1043,-8039,1745147083243013769
349024,-41,-17,-24,-11,1056,-8018,1745147083243013769
349216,-36,-19,-26,-14,1051,-8038,1745147083243013769
349408,-31,-20,-27,-13,1024,-8058,1745147083243013769
349600,-29,-20,-29,8,1023,-8045,1745147083243013769
349792,-29,-21,-31,-9,1000,-8052,1745147083243013769
349984,-30,-23,-31,-13,979,-8051,1745147083243013769
350176,-31,-24,-29,-26,980,-8055,1745147083243013769
350368,-34,-26,-27,-16,980,-8060,1745147083243013769
350560,-37,-29,-27,-45,980,-8054,1745147083243013769
350752,-36,-30,-26,-40,990,-8044,1745147083301561307
350944,-36,-30,-25,-67,1004,-8039,1745147083301561307
351136,-37,-29,-24,-65,1031,-8030,1745147083301561307
351328,-37,-30,-23,-69,1028,-8037,1745147083301561307
351520,-38,-31,-26,-69,1016,-8017,1745147083301561307
351712,-40,-30,-26,-81,1029,-8025,1745147083301561307
351904,-40,-31,-26,-75,1023,-8042,1745147083301561307
352096,-41,-30,-25,-50,1014,-8053,1745147083301561307
352288,-43,-31,-23,-54,1028,-8059,1745147083301561307
352480,-46,-30,-23,-54,1021,-8050,1745147083301561307
352672,-49,-31,-23,-44,1033,-8053,1745147083301561307
352864,-50,-33,-25,-34,1048,-8041,1745147083301561307
353056,-52,-35,-26,-38,1057,-8035,1745147083360049575
353248,-50,-37,-28,-46,1059,-8025,1745147083360049575
353440,-49,-40,-29,-45,1045,-8033,1745147083360049575
353632,-45,-42,-31,-50,1035,-8021,1745147083360049575
353824,-43,-42,-32,-79,1046,-8016,1745147083360049575
354016,-41,-41,-30,-92,1043,-8018,1745147083360049575
354208,-39,-41,-28,-82,1027,-8014,1745147083360049575
354400,-39,-41,-28,-91,1046,-8033,1745147083360049575
354592,-38,-40,-28,-72,1044,-8050,1745147083360049575
354784,-36,-39,-30,-70,1049,-8059,1745147083360049575
354976,-33,-38,-32,-74,1070,-8065,1745147083360049575
355168,-32,-35,-32,-68,1066,-8085,1745147083360049575
355360,-31,-33,-30,-62,1086,-8099,1745147083418360865
355552,-31,-33,-30,-65,1105,-8096,1745147083418360865
355744,-29,-33,-28,-72,1115,-8105,1745147083418360865
355936,-26,-33,-27,-69,1112,-8118,1745147083418360865
356128,-24,-31,-27,-78,1121,-8123,1745147083418360865
356320,-21,-27,-26,-69,1121,-8106,1745147083418360865
356512,-20,-23,-26,-81,1113,-8094,1745147083418360865
356704,-20,-23,-26,-91,1091,-8073,1745147083418360865
356896,-19,-23,-27,-96,1086,-8052,1745147083418360865
357088,-17,-22,-29,-107,1083,-8047,1745147083418360865
357280,-15,-23,-31,-121,1070,-8045,1745147083418360865
357472,-13,-22,-32,-114,1059,-8042,1745147083418360865
357664,-13,-19,-33,-123,1049,-8063,1745147083477499908
357856,-15,-16,-34,-121,1036,-8064,1745147083477499908
358048,-18,-11,-36,-111,1039,-8074,1745147083477499908
358240,-20,-7,-36,-105,1040,-8080,1745147083477499908
358432,-19,-4,-33,-99,1050,-8092,1745147083477499908
358624,-19,-3,-31,-82,1079,-8072,1745147083477499908
358816,-19,-4,-27,-64,1082,-8065,1745147083477499908
359008,-19,-6,-25,-59,1105,-8054,1745147083477499908
359200,-19,-7,-25,-80,1104,-8055,1745147083477499908
359392,-17,-9,-26,-80,1118,-8040,1745147083477499908
359584,-15,-8,-27,-101,1117,-8042,1745147083477499908
359776,-13,-7,-30,-107,1099,-8043,1745147083477499908
359968,-11,-6,-30,-105,1094,-8047,1745147083530835567
360160,-10,-4,-30,-114,1099,-8062,1745147083530835567
360352,-7,-2,-30,-99,1080,-8061,1745147083530835567
360544,-6,-2,-30,-100,1074,-8070,1745147083530835567
360736,-7,0,-29,-114,1069,-8077,1745147083530835567
360928,-8,0,-28,-108,1071,-8084,1745147083530835567
361120,-10,0,-27,-109,1080,-8071,1745147083530835567
361312,-11,1,-27,-105,1081,-8072,1745147083530835567
361504,-11,1,-26,-100,1067,-8073,1745147083530835567
361696,-12,2,-26,-128,1083,-8066,1745147083530835567
361888,-12,3,-25,-107,1082,-8071,1745147083530835567
362080,-12,4,-27,-107,1078,-8064,1745147083530835567
362272,-11,5,-27,-126,1075,-8064,1745147083594352018
362464,-11,7,-26,-109,1075,-8061,1745147083594352018
362656,-11,8,-26,-112,1081,-8065,1745147083594352018
362848,-11,8,-25,-110,1092,-8054,1745147083594352018
363040,-11,8,-24,-112,1091,-8062,1745147083594352018
363232,-11,8,-23,-115,1093,-8066,1745147083594352018
363424,-11,8,-24,-110,1112,-8053,1745147083594352018
363616,-11,8,-24,-119,1105,-8059,1745147083594352018
363808,-10,7,-23,-104,1092,-8055,1745147083594352018
364000,-10,8,-22,-114,1092,-8049,1745147083594352018
364192,-11,8,-21,-100,1086,-8072,1745147083594352018
364384,-12,10,-20,-107,1080,-8063,1745147083594352018
364576,-14,11,-19,-99,1071,-8043,1745147083653065596
364768,-16,8,-18,-106,1083,-8017,1745147083653065596
364960,-17,3,-17,-114,1083,-8029,1745147083653065596
365152,-18,1,-16,-108,1095,-8034,1745147083653065596
365344,-18,1,-15,-109,1083,-8025,1745147083653065596
365536,-19,1,-16,-111,1100,-8009,1745147083653065596
365728,-18,-1,-16,-133,1110,-7999,1745147083653065596
365920,-16,-4,-15,-112,1097,-8001,1745147083653065596
366112,-13,-7,-14,-108,1110,-8010,1745147083653065596
366304,-12,-7,-14,-122,1082,-8023,1745147083653065596
366496,-14,-7,-15,-95,1076,-8040,1745147083653065596
366688,-19,-9,-17,-112,1063,-8032,1745147083653065596
366880,-21,-10,-18,-113,1054,-8047,1745147083711109076
367072,-20,-10,-17,-115,1067,-8060,1745147083711109076
367264,-22,-9,-15,-114,1075,-8080,1745147083711109076
367456,-23,-8,-13,-112,1083,-8084,1745147083711109076
367648,-25,-8,-11,-111,1095,-8059,1745147083711109076
367840,-26,-9,-10,-104,1102,-8049,1745147083711109076
368032,-26,-11,-9,-112,1106,-8044,1745147083711109076
368224,-27,-13,-9,-121,1120,-8055,1745147083711109076
368416,-26,-14,-11,-124,1128,-8036,1745147083711109076
368608,-25,-14,-12,-134,1113,-8032,1745147083711109076
368800,-23,-14,-12,-124,1099,-8008,1745147083711109076
368992,-21,-14,-10,-126,1102,-8014,1745147083711109076
369184,-19,-14,-9,-125,1102,-8013,1745147083769980986
369376,-20,-15,-10,-139,1085,-8024,1745147083769980986
369568,-20,-16,-12,-160,1095,-8028,1745147083769980986
369760,-19,-15,-14,-146,1092,-8049,1745147083769980986
369952,-19,-14,-14,-156,1099,-8067,1745147083769980986
370144,-18,-13,-15,-159,1097,-8086,1745147083769980986
370336,-18,-11,-14,-157,1099,-8103,1745147083769980986
370528,-18,-8,-12,-164,1112,-8114,1745147083769980986
370720,-17,-6,-11,-141,1122,-8126,1745147083769980986
370912,-16,-3,-8,-148,1134,-8107,1745147083769980986
371104,-13,-2,-7,-134,1129,-8082,1745147083769980986
371296,-9,-1,-6,-133,1134,-8063,1745147083769980986
371488,-7,-1,-5,-142,1117,-8027,1745147083827980092
371680,-6,0,-6,-144,1117,-8012,1745147083827980092
371872,-4,-2,-6,-138,1107,-8020,1745147083827980092
372064,-4,-2,-6,-161,1093,-8030,1745147083827980092
372256,-4,-3,-6,-158,1103,-8047,1745147083827980092
372448,-3,-1,-7,-157,1123,-8071,1745147083827980092
372640,-2,3,-8,-159,1126,-8077,1745147083827980092
372832,-2,8,-9,-135,1118,-8094,1745147083827980092
373024,-1,11,-10,-134,1127,-8107,1745147083827980092
373216,-1,13,-9,-144,1123,-8111,1745147083827980092
373408,1,14,-8,-124,1108,-8096,1745147083827980092
373600,2,16,-8,-147,1110,-8089,1745147083827980092
373792,4,18,-10,-148,1112,-8087,1745147083886582317
373984,4,21,-11,-164,1092,-8065,1745147083886582317
374176,4,22,-13,-157,1080,-8054,1745147083886582317
374368,3,24,-14,-160,1072,-8041,1745147083886582317
374560,3,27,-15,-149,1072,-8032,1745147083886582317
374752,3,29,-16,-150,1069,-8040,1745147083886582317
374944,1,31,-17,-138,1096,-8019,1745147083886582317
375136,2,32,-18,-138,1108,-8029,1745147083886582317
375328,2,33,-18,-130,1134,-8042,1745147083886582317
375520,3,32,-19,-117,1148,-8045,1745147083886582317
375712,6,31,-19,-119,1130,-8053,1745147083886582317
375904,8,30,-21,-135,1118,-8053,1745147083886582317
376096,9,30,-22,-134,1103,-8071,1745147083944753036
376288,8,31,-22,-132,1086,-8065,1745147083944753036
376480,7,31,-21,-144,1072,-8059,1745147083944753036
376672,4,31,-19,-142,1070,-8050,1745147083944753036
376864,2,32,-17,-143,1056,-8049,1745147083944753036
377056,0,31,-16,-140,1075,-8057,1745147083944753036
377248,0,32,-15,-134,1090,-8048,1745147083944753036
377440,-1,33,-15,-124,1106,-8055,1745147083944753036
377632,-2,33,-15,-108,1116,-8053,1745147083944753036
377824,-2,34,-15,-94,1142,-8051,1745147083944753036
378016,1,33,-13,-93,1139,-8044,1745147083944753036
378208,4,33,-13,-100,1130,-8072,1745147083944753036
378400,7,32,-14,-83,1108,-8073,1745147084003266824
378592,7,30,-13,-64,1103,-8058,1745147084003266824
378784,7,26,-13,-62,1088,-8049,1745147084003266824
378976,6,23,-12,-63,1076,-8036,1745147084003266824
379168,4,21,-12,-87,1056,-8023,1745147084003266824
379360,0,17,-12,-115,1034,-7999,1745147084003266824
379552,-4,16,-10,-94,1050,-7991,1745147084003266824
379744,-6,15,-9,-117,1070,-7997,1745147084003266824
379936,-6,17,-7,-139,1085,-8005,1745147084003266824
380128,-4,17,-7,-128,1107,-8013,1745147084003266824
380320,-1,14,-7,-105,1100,-8062,1745147084003266824
380512,1,17,-8,-103,1115,-8066,1745147084003266824
380704,0,17,-7,-80,1109,-8080,1745147084058302051
380896,0,16,-6,-78,1103,-8079,1745147084058302051
381088,0,14,-5,-56,1082,-8097,1745147084058302051
381280,0,12,-4,-77,1082,-8099,1745147084058302051
381472,-2,10,-4,-86,1068,-8078,1745147084058302051
381664,-4,9,-4,-88,1052,-8075,1745147084058302051
381856,-7,11,-4,-93,1056,-8030,1745147084058302051
382048,-11,10,-2,-106,1056,-8016,1745147084058302051
382240,-12,7,-3,-131,1066,-8000,1745147084058302051
382432,-45,9,-7,-230,497,-8131,1745147084058302051
382624,-151,44,-21,-192,-618,-8571,1745147084058302051
382816,-353,135,-65,-360,-893,-8422,1745147084058302051
383008,-496,109,-3,-333,-1067,-8107,1745147084120134975
383200,-620,51,66,-348,-371,-8327,1745147084120134975
383392,-694,90,108,-380,585,-8141,1745147084120134975
383584,-668,104,130,-310,1506,-7935,1745147084120134975
383776,-620,126,136,-20,1958,-7971,1745147084120134975
383968,-618,141,102,268,2065,-8224,1745147084120134975
384160,-606,125,51,292,1765,-7724,1745147084120134975
384352,-529,64,15,404,1565,-8062,1745147084120134975
384544,-522,31,-9,351,1521,-8057,1745147084120134975
384736,-507,6,-5,229,1642,-8002,1745147084120134975
384928,-468,-10,11,85,1908,-7925,1745147084120134975
385120,-418,-17,32,12,2007,-7934,1745147084120134975
385312,-382,-23,41,19,1794,-7948,1745147084178759544
385504,-349,-27,33,-56,1927,-7892,1745147084178759544
385696,-309,-24,23,-71,1996,-7875,1745147084178759544
385888,-285,-26,6,-23,1758,-7903,1745147084178759544
386080,-269,-27,-11,-29,1666,-7957,1745147084178759544
386272,-248,-31,-20,-89,1871,-7860,1745147084178759544
386464,-220,-32,-23,-28,1768,-7853,1745147084178759544
386656,-191,-29,-27,-115,1922,-7830,1745147084178759544
386848,-152,-26,-30,-127,2112,-7823,1745147084178759544
387040,-96,-23,-25,-328,2538,-7691,1745147084178759544
387232,11,7,-8,-630,3528,-7359,1745147084178759544
387424,258,62,-3,-1016,5571,-6753,1745147084178759544
387616,689,149,-38,-1091,7618,-6181,1745147084236969168
387808,1179,205,-113,-564,6753,-6809,1745147084236969168
388000,1425,194,-219,294,3680,-7598,1745147084236969168
388192,1523,98,-308,946,813,-8389,1745147084236969168
388384,1503,-58,-326,1308,-1099,-8715,1745147084236969168
388576,1313,-119,-238,1333,-2392,-8633,1745147084236969168
388768,1040,-146,-98,1067,-3160,-8903,1745147084236969168
388960,691,-189,5,460,-3075,-8858,1745147084236969168
389152,335,-165,103,-181,-2663,-8689,1745147084236969168
389344,23,-109,153,-741,-1963,-8562,1745147084236969168
389536,-200,-57,150,-1108,-1022,-8313,1745147084236969168
389728,-341,-9,116,-1180,-4,-8275,1745147084236969168
389920,-409,53,66,-1101,975,-8150,1745147084295906338
390112,-403,106,14,-831,1689,-7887,1745147084295906338
390304,-343,121,-40,-462,2302,-7718,1745147084295906338
390496,-245,100,-73,-95,2500,-7564,1745147084295906338
390688,-126,70,-90,418,2848,-8299,1745147084295906338
390880,-58,120,-52,536,2410,-7848,1745147084295906338
391072,20,67,-47,772,1943,-7874,1745147084295906338
391264,45,2,-47,772,1104,-8095,1745147084295906338
391456,-27,-21,-53,496,113,-8216,1745147084295906338
391648,-123,-46,-52,131,-326,-8236,1745147084295906338
391840,-219,-47,-30,-263,-146,-8159,1745147084295906338
392032,-283,-40,5,-477,415,-8061,1745147084295906338
392224,-307,-19,34,-510,1032,-7973,1745147084353748050
392416,-297,10,42,-460,1523,-7922,1745147084353748050
392608,-265,39,24,-375,1827,-7908,1745147084353748050
392800,-238,64,-11,-200,1807,-7934,1745147084353748050
392992,-220,73,-47,-75,1663,-7977,1745147084353748050
393184,-214,73,-69,-11,1511,-7964,1745147084353748050
393376,-204,61,-69,115,1325,-8016,1745147084353748050
393568,-213,41,-54,130,1169,-7982,1745147084353748050
393760,-195,21,-27,86,1300,-7963,1745147084353748050
393952,-168,5,4,46,1491,-7911,1745147084353748050
394144,-127,-3,30,50,1647,-7907,1745147084353748050
394336,-90,-11,39,55,1691,-7939,1745147084353748050
394528,-64,-18,30,31,1622,-7957,1745147084417684966
394720,-53,-19,15,-58,1504,-7955,1745147084417684966
394912,-47,-16,2,-159,1396,-7948,1745147084417684966
395104,-44,-8,-2,-229,1323,-7978,1745147084417684966
395296,-44,9,-3,-250,1306,-7999,1745147084417684966
395488,-46,23,1,-230,1336,-7986,1745147084417684966
395680,-48,34,5,-186,1336,-7999,1745147084417684966
395872,-48,43,5,-158,1331,-8027,1745147084417684966
396064,-50,49,4,-130,1309,-8045,1745147084417684966
396256,-55,53,1,-109,1309,-8056,1745147084417684966
396448,-60,56,-1,-74,1316,-8069,1745147084417684966
396640,-62,58,-3,-41,1353,-8064,1745147084417684966
396832,-59,55,-4,15,1395,-8041,1745147084475554385
397216,-37,43,-3,85,1466,-8001,1745147084475554385
397408,-24,34,-3,100,1478,-8016,1745147084475554385
397600,-11,26,-6,110,1464,-8033,1745147084475554385
397792,0,18,-9,102,1440,-8051,1745147084475554385
397984,9,12,-14,77,1407,-8066,1745147084475554385
398176,16,9,-16,31,1383,-8084,1745147084475554385
398368,19,9,-18,-10,1361,-8099,1745147084475554385
398560,19,13,-18,-64,1309,-8079,1745147084475554385
398752,14,19,-19,-112,1246,-8054,1745147084475554385
398944,10,28,-21,-157,1222,-8024,1745147084475554385
399136,10,37,-21,-193,1229,-8025,1745147084475554385
399328,6,51,-20,-232,1249,-8023,1745147084539445103
399520,-3,68,-21,-256,1256,-8023,1745147084539445103
399712,-24,93,-24,-303,1206,-7991,1745147084539445103
399904,-43,118,-28,-323,1161,-7975,1745147084539445103
400096,-59,140,-31,-265,1132,-7936,1745147084539445103
400288,-74,156,-32,-183,1180,-7963,1745147084539445103
400480,-85,166,-29,-78,1245,-7999,1745147084539445103
400672,-94,167,-28,41,1295,-8051,1745147084539445103
400864,-104,160,-32,146,1311,-8071,1745147084539445103
401056,-109,146,-35,208,1324,-8073,1745147084539445103
401248,-107,133,-35,213,1397,-8036,1745147084539445103
401440,-100,121,-31,178,1434,-7998,1745147084539445103
401632,-85,112,-25,118,1485,-7930,1745147084597971496
401824,-55,101,-19,75,1520,-7864,1745147084597971496
402016,-24,91,-14,101,1606,-7904,1745147084597971496
402208,-9,83,-12,154,1622,-7899,1745147084597971496
402400,4,71,-15,188,1530,-7830,1745147084597971496
402592,34,53,-18,213,1498,-7738,1745147084597971496
402784,83,27,-14,258,1583,-7794,1745147084597971496
402976,110,6,-6,210,1581,-7794,1745147084597971496
403168,141,-18,9,88,1628,-7669,1745147084597971496
403360,149,-71,87,-711,3350,-7285,1745147084597971496
403552,-142,-84,235,1180,214,-8478,1745147084597971496
403744,115,-23,32,159,1635,-7796,1745147084597971496
405664,53,16,17,48,1224,-8273,1745147086270328458
467680,-60,157,19,-26,1092,-7797,1745147086270328458
467680,-60,157,19,-26,1092,-7797,1745147086270328458
468064,104,-50,21,-305,401,-8202,1745147086270328458
468256,48,-13,25,-396,543,-8164,1745147086270328458
468448,54,-35,33,-428,825,-8209,1745147086270328458
468640,6,-5,38,-323,865,-8198,1745147086270328458
468832,5,15,30,-252,848,-8270,1745147086270328458
469024,-16,1,21,-215,869,-8262,1745147086270328458
469216,-43,23,19,-217,908,-8278,1745147086270328458
469408,-43,19,19,-178,1001,-8208,1745147086270328458
469600,-55,12,23,-155,1188,-8124,1745147086270328458
469792,-42,20,28,-188,1299,-8041,1745147086323473025
469792,-42,20,28,-188,1299,-8041,1745147086323473025
469984,-24,10,27,-234,1275,-7979,1745147086323473025
470176,-13,14,24,-299,1288,-7920,1745147086323473025
470368,22,23,23,-336,1400,-7906,1745147086323473025
470560,57,21,24,-292,1424,-7945,1745147086323473025
470752,81,26,22,-250,1263,-8068,1745147086323473025
470944,92,31,12,-255,1037,-8206,1745147086323473025
471136,91,37,5,-304,958,-8327,1745147086323473025
471328,94,58,8,-417,1029,-8440,1745147086323473025
471520,99,86,11,-507,1061,-8558,1745147086323473025
471712,100,122,6,-563,1060,-8610,1745147086323473025
471904,107,162,0,-546,1174,-8559,1745147086382054000
472096,129,184,0,-314,1432,-8487,1745147086382054000
472288,178,181,14,91,1734,-8468,1745147086382054000
472480,244,149,40,471,1793,-8386,1745147086382054000
472672,300,101,57,623,1581,-7962,1745147086382054000
472864,436,140,40,-81,2155,-8545,1745147086382054000
473056,591,78,44,288,2147,-7422,1745147086382054000
473248,644,44,24,-37,943,-7874,1745147086382054000
473440,739,48,-25,86,323,-8381,1745147086382054000
473632,446,-20,-47,510,-2395,-8201,1745147086382054000
473824,30,-29,-93,404,-3297,-8377,1745147086382054000
474016,-357,-66,-81,33,-2552,-8245,1745147086382054000
474208,-627,-51,2,-324,-1480,-8336,1745147086440446956
474400,-760,55,51,-700,-67,-8476,1745147086440446956
474592,-746,236,70,-1063,1244,-7510,1745147086440446956
474784,-659,275,16,-1275,2364,-6780,1745147086440446956
474976,-485,172,-17,-954,3003,-6724,1745147086440446956
475168,-294,86,-66,-528,2917,-7136,1745147086440446956
475360,-117,9,-150,-110,2723,-7426,1745147086440446956
475552,27,-35,-162,432,2512,-8304,1745147086440446956
475744,81,49,-96,474,1828,-8054,1745147086440446956
475936,114,37,-51,537,1281,-7927,1745147086440446956
476128,131,-14,-19,435,898,-8063,1745147086440446956
476320,121,-26,-1,218,635,-8261,1745147086440446956
476512,92,-17,7,-74,505,-8148,1745147086498770955
476704,56,-18,10,-325,405,-8021,1745147086498770955
476896,23,-30,1,-424,441,-8077,1745147086498770955
477088,-11,-15,-5,-431,558,-8155,1745147086498770955
477280,-42,8,-6,-360,677,-8151,1745147086498770955
477472,-68,20,-8,-260,859,-8132,1745147086498770955
477664,-81,17,-10,-142,995,-8104,1745147086498770955
477856,-84,2,-10,-30,1120,-8088,1745147086498770955
478048,-78,-9,-8,30,1177,-8088,1745147086498770955
478240,-71,-12,-6,33,1204,-8051,1745147086498770955
478432,-64,-18,-6,0,1158,-7968,1745147086498770955
478624,-57,-27,-9,-52,1079,-7933,1745147086498770955
478816,-50,-42,-16,-136,1005,-7894,1745147086557548699
479008,-47,-54,-22,-188,949,-7911,1745147086557548699
479200,-47,-57,-23,-239,912,-7930,1745147086557548699
479392,-50,-57,-22,-283,879,-7945,1745147086557548699
479584,-56,-54,-19,-290,879,-7981,1745147086557548699
479776,-65,-49,-17,-281,918,-7998,1745147086557548699
479968,-72,-44,-15,-276,962,-8018,1745147086557548699
480160,-76,-42,-13,-238,1015,-8046,1745147086557548699
480352,-77,-41,-8,-226,1076,-8076,1745147086557548699
480544,-76,-39,-5,-190,1134,-8102,1745147086557548699
480736,-73,-38,-3,-170,1143,-8097,1745147086557548699
480928,-68,-37,-3,-147,1158,-8084,1745147086557548699
481120,-62,-38,-3,-119,1138,-8049,1745147086615729053
481312,-56,-42,-3,-132,1115,-8014,1745147086615729053
481504,-51,-47,-4,-149,1072,-7991,1745147086615729053
481696,-50,-53,-5,-180,1038,-7966,1745147086615729053
481888,-50,-57,-8,-201,1006,-7965,1745147086615729053
482080,-53,-61,-12,-192,961,-7964,1745147086615729053
482272,-57,-62,-16,-217,942,-7965,1745147086615729053
482464,-64,-62,-17,-225,942,-8005,1745147086615729053
482656,-71,-62,-18,-211,950,-8022,1745147086615729053
482848,-80,-61,-18,-212,962,-8050,1745147086615729053
483040,-87,-60,-19,-201,1010,-8073,1745147086615729053
483232,-93,-59,-20,-201,1048,-8089,1745147086615729053
483424,-95,-58,-19,-201,1082,-8074,1745147086674251487
483616,-95,-57,-19,-210,1129,-8083,1745147086674251487
483808,-92,-54,-18,-211,1163,-8072,1745147086674251487
484000,-88,-52,-19,-211,1183,-8079,1745147086674251487
484192,-81,-51,-19,-205,1200,-8091,1745147086674251487
484384,-75,-49,-21,-203,1213,-8069,1745147086674251487
484576,-67,-48,-22,-198,1196,-8055,1745147086674251487
484768,-60,-48,-23,-203,1176,-8050,1745147086674251487
484960,-55,-47,-23,-216,1152,-8030,1745147086674251487
485152,-53,-47,-23,-235,1144,-8017,1745147086674251487
485344,-55,-50,-24,-267,1125,-8002,1745147086674251487
485536,-55,-53,-26,-288,1120,-8010,1745147086674251487
485728,-53,-50,-28,-269,1109,-7987,1745147086730666857
485920,-48,-45,-29,-274,1063,-7932,1745147086730666857
486112,-42,-47,-31,-263,1034,-8022,1745147086730666857
486304,-42,-48,-31,-268,1034,-8088,1745147086730666857
486496,-48,-46,-29,-282,1054,-8063,1745147086730666857
486688,-49,-46,-28,-293,1103,-8059,1745147086730666857
486880,-48,-44,-28,-315,1162,-8063,1745147086730666857
487072,-44,-42,-30,-332,1202,-8079,1745147086730666857
487264,-41,-40,-30,-329,1212,-8113,1745147086730666857
487456,-39,-36,-28,-332,1208,-8116,1745147086730666857
487648,-36,-33,-25,-311,1195,-8118,1745147086730666857
487840,-30,-32,-22,-293,1166,-8106,1745147086730666857
488032,-28,-31,-21,-287,1165,-8108,1745147086791041410
488224,-30,-30,-21,-280,1162,-8110,1745147086791041410
488416,-35,-30,-21,-279,1163,-8070,1745147086791041410
488608,-38,-30,-21,-291,1164,-8031,1745147086791041410
488800,-41,-31,-17,-274,1148,-7996,1745147086791041410
488992,-45,-33,-13,-269,1173,-7969,1745147086791041410
489184,-48,-35,-9,-278,1205,-7949,1745147086791041410
489376,-51,-40,-7,-265,1184,-7931,1745147086791041410
489568,-49,-43,-9,-263,1179,-7947,1745147086791041410
489760,-49,-45,-12,-274,1169,-7944,1745147086791041410
489952,-49,-44,-13,-251,1147,-7965,1745147086791041410
490144,-45,-49,-10,-270,1150,-7987,1745147086791041410
490336,-40,-53,-4,-277,1145,-7998,1745147086849600562
490528,-39,-55,3,-277,1139,-8003,1745147086849600562
490720,-40,-57,9,-289,1173,-8004,1745147086849600562
490912,-41,-58,14,-311,1181,-7970,1745147086849600562
491104,-43,-57,14,-335,1189,-7966,1745147086849600562
491296,-44,-57,14,-328,1200,-7953,1745147086849600562
491488,-43,-56,13,-333,1232,-7976,1745147086849600562
491680,-40,-55,13,-353,1246,-7992,1745147086849600562
491872,-36,-54,14,-338,1265,-8039,1745147086849600562
492064,-32,-53,15,-329,1276,-8071,1745147086849600562
492256,-27,-53,16,-326,1274,-8118,1745147086849600562
492448,-22,-55,16,-356,1239,-8116,1745147086849600562
492640,-17,-57,18,-350,1232,-8102,1745147086907786906
492832,-15,-55,21,-362,1210,-8074,1745147086907786906
493024,-17,-51,23,-366,1189,-8062,1745147086907786906
493216,-20,-47,24,-381,1169,-8041,1745147086907786906
493408,-22,-46,23,-382,1152,-8032,1745147086907786906
493600,-21,-41,22,-379,1152,-8014,1745147086907786906
493792,-20,-38,20,-386,1124,-8008,1745147086907786906
493984,-20,-36,20,-361,1136,-8021,1745147086907786906
494176,-20,-34,22,-375,1138,-8030,1745147086907786906
494368,-18,-32,21,-367,1137,-8053,1745147086907786906
494560,-16,-28,20,-380,1158,-8069,1745147086907786906
494752,-14,-24,18,-395,1184,-8070,1745147086907786906
494944,-11,-20,17,-396,1181,-8064,1745147086966511057
495136,-8,-16,16,-399,1216,-8065,1745147086966511057
495328,-5,-11,16,-401,1222,-8057,1745147086966511057
495520,-2,-4,16,-419,1241,-8043,1745147086966511057
495712,2,5,17,-424,1247,-8041,1745147086966511057
495904,7,10,16,-406,1239,-8047,1745147086966511057
496096,11,16,16,-407,1246,-8074,1745147086966511057
496288,13,19,15,-382,1248,-8095,1745147086966511057
496480,14,22,15,-382,1234,-8120,1745147086966511057
496672,15,26,14,-361,1214,-8139,1745147086966511057
496864,18,30,12,-357,1215,-8157,1745147086966511057
497056,21,34,12,-338,1180,-8131,1745147086966511057
497248,19,35,12,-363,1172,-8102,1745147087024652088
497440,14,35,15,-365,1169,-8085,1745147087024652088
497632,11,37,17,-377,1156,-8077,1745147087024652088
497824,11,41,19,-373,1152,-8072,1745147087024652088
498016,12,47,20,-367,1147,-8049,1745147087024652088
498208,12,54,21,-341,1128,-8065,1745147087024652088
498400,11,55,20,-319,1127,-8078,1745147087024652088
498592,9,57,18,-310,1133,-8083,1745147087024652088
498784,7,58,20,-307,1133,-8092,1745147087024652088
498976,4,59,24,-311,1156,-8090,1745147087024652088
499168,2,58,30,-302,1169,-8086,1745147087024652088
499360,1,57,34,-304,1187,-8064,1745147087024652088
499552,0,55,37,-312,1213,-8057,1745147087080140019
499744,0,54,40,-323,1233,-8028,1745147087080140019
499936,1,53,41,-324,1223,-8015,1745147087080140019
500128,1,52,44,-312,1218,-8007,1745147087080140019
500320,1,51,47,-284,1220,-8016,1745147087080140019
500512,-1,48,51,-267,1201,-8023,1745147087080140019
500704,-4,46,54,-244,1182,-8033,1745147087080140019
500896,-7,42,59,-241,1165,-8037,1745147087080140019
501088,-13,38,65,-211,1171,-8052,1745147087080140019
501280,-17,31,72,-225,1152,-8047,1745147087080140019
501472,-22,21,78,-228,1164,-8035,1745147087080140019
501664,-26,13,82,-223,1160,-8025,1745147087080140019
501856,-29,6,88,-255,1159,-7987,1745147087144519848
502048,-32,-2,94,-269,1149,-7983,1745147087144519848
502240,-36,-9,101,-261,1151,-7972,1745147087144519848
502432,-45,-15,107,-259,1142,-7936,1745147087144519848
502624,-53,-22,115,-251,1155,-7961,1745147087144519848
502816,-58,-28,124,-259,1191,-7987,1745147087144519848
503008,-63,-35,132,-264,1238,-8002,1745147087144519848
503200,-68,-39,140,-268,1283,-8020,1745147087144519848
503392,-68,-42,148,-261,1299,-8062,1745147087144519848
503584,-64,-46,152,-267,1317,-8074,1745147087144519848
503776,-60,-50,151,-283,1323,-8079,1745147087144519848
503968,-55,-51,150,-285,1309,-8064,1745147087144519848
504160,-50,-53,148,-306,1290,-8055,1745147087198200711
504352,-46,-58,146,-312,1263,-8048,1745147087198200711
504544,-44,-58,144,-345,1251,-8029,1745147087198200711
504736,-43,-57,143,-347,1232,-8031,1745147087198200711
504928,-44,-54,142,-350,1203,-8035,1745147087198200711
505120,-44,-51,141,-344,1190,-8028,1745147087198200711
505312,-44,-48,137,-338,1167,-8029,1745147087198200711
505504,-44,-44,133,-330,1174,-8044,1745147087198200711
505696,-43,-41,127,-314,1163,-8047,1745147087198200711
505888,-43,-40,121,-317,1169,-8048,1745147087198200711
506080,-43,-39,115,-321,1168,-8044,1745147087198200711
506272,-43,-39,111,-327,1155,-8026,1745147087198200711
506464,-44,-39,108,-334,1148,-8015,1745147087258579170
506656,-47,-38,104,-331,1148,-8002,1745147087258579170
506848,-48,-35,99,-359,1163,-7976,1745147087258579170
507040,-46,-39,93,-395,1174,-7905,1745147087258579170
507232,-43,-54,83,-413,1201,-7911,1745147087258579170
507424,-42,-59,74,-388,1235,-8057,1745147087258579170
507616,-39,-32,70,-368,1258,-8131,1745147087258579170
507808,-36,0,65,-384,1259,-8036,1745147087258579170
508000,-32,8,58,-369,1255,-7994,1745147087258579170
508192,-28,5,49,-355,1268,-8022,1745147087258579170
508384,-22,7,41,-362,1270,-8044,1745147087258579170
508576,-18,12,36,-381,1265,-8046,1745147087258579170
508768,-11,17,33,-390,1239,-8031,1745147087316705306
508960,-6,21,30,-393,1220,-8041,1745147087316705306
509152,-4,26,24,-384,1214,-8043,1745147087316705306
509344,-5,34,19,-391,1199,-8041,1745147087316705306
509536,-7,40,15,-390,1181,-8031,1745147087316705306
509728,-8,43,11,-373,1172,-8033,1745147087316705306
509920,-10,47,8,-366,1160,-8039,1745147087316705306
510112,-12,49,5,-345,1172,-8031,1745147087316705306
510304,-14,52,1,-342,1181,-8027,1745147087316705306
510496,-17,52,-1,-339,1200,-8009,1745147087316705306
510688,-18,54,-3,-353,1232,-8008,1745147087316705306
510880,-17,53,-6,-346,1238,-8001,1745147087316705306
511072,-12,56,-11,-354,1264,-8006,1745147087375487633
511264,-8,59,-16,-358,1260,-8002,1745147087375487633
511456,-5,63,-20,-345,1251,-8006,1745147087375487633
511648,-4,65,-24,-331,1236,-8022,1745147087375487633
511840,-4,67,-26,-316,1228,-8033,1745147087375487633
512032,-3,69,-27,-300,1236,-8032,1745147087375487633
512224,-3,69,-27,-295,1237,-8026,1745147087375487633
512416,-3,69,-28,-274,1254,-8026,1745147087375487633
512608,-4,68,-29,-289,1251,-8016,1745147087375487633
512800,-5,66,-30,-269,1258,-8012,1745147087375487633
512992,-6,63,-32,-265,1250,-8016,1745147087375487633
513184,-7,59,-32,-258,1240,-7998,1745147087375487633
513376,-9,56,-32,-267,1229,-7988,1745147087433532364
513568,-10,54,-30,-247,1233,-7986,1745147087433532364
513760,-12,50,-29,-241,1227,-7986,1745147087433532364
513952,-14,48,-28,-232,1234,-7978,1745147087433532364
514144,-16,45,-26,-223,1246,-7987,1745147087433532364
514336,-16,42,-24,-230,1261,-7990,1745147087433532364
514528,-15,37,-22,-242,1271,-7991,1745147087433532364
514720,-15,33,-19,-226,1276,-7994,1745147087433532364
514912,-13,29,-17,-250,1286,-8007,1745147087433532364
515104,-13,25,-15,-249,1293,-7997,1745147087433532364
515296,-12,22,-12,-257,1277,-8012,1745147087433532364
515488,-10,20,-10,-252,1286,-8027,1745147087433532364
515680,-11,17,-8,-259,1287,-8028,1745147087492324639
515872,-13,14,-6,-254,1288,-8009,1745147087492324639
516064,-15,11,-4,-240,1269,-8000,1745147087492324639
516256,-19,8,-1,-233,1253,-7993,1745147087492324639
516448,-22,4,2,-241,1250,-7980,1745147087492324639
516640,-24,0,6,-231,1252,-7973,1745147087492324639
516832,-24,-4,7,-221,1270,-7967,1745147087492324639
517024,-23,-7,10,-232,1276,-7974,1745147087492324639
517216,-22,-10,10,-248,1289,-7965,1745147087492324639
517408,-20,-14,11,-250,1272,-7979,1745147087492324639
517600,-18,-16,12,-253,1280,-7989,1745147087492324639
517792,-18,-19,13,-244,1269,-8001,1745147087492324639
517984,-17,-22,15,-250,1262,-8002,1745147087552237477
518176,-16,-23,16,-262,1261,-8010,1745147087552237477
518368,-16,-25,15,-261,1251,-8014,1745147087552237477
518560,-16,-26,16,-265,1256,-8014,1745147087552237477
518752,-18,-26,16,-266,1243,-8017,1745147087552237477
518944,-20,-27,14,-269,1244,-8017,1745147087552237477
519136,-22,-27,15,-269,1247,-8037,1745147087552237477
519328,-23,-27,14,-276,1262,-8021,1745147087552237477
519520,-24,-27,13,-283,1279,-8032,1745147087552237477
519712,-25,-28,13,-292,1290,-8029,1745147087552237477
519904,-24,-26,13,-303,1297,-8033,1745147087552237477
520096,-24,-26,12,-293,1296,-8030,1745147087552237477
520288,-23,-25,10,-309,1296,-8027,1745147087605099390
520480,-21,-24,11,-308,1286,-8000,1745147087605099390
520672,-19,-23,10,-299,1284,-8000,1745147087605099390
520864,-17,-22,9,-295,1258,-8016,1745147087605099390
521056,-17,-21,8,-302,1244,-8033,1745147087605099390
521248,-19,-18,7,-310,1238,-8036,1745147087605099390
521440,-21,-16,6,-302,1220,-8048,1745147087605099390
521632,-24,-14,5,-294,1227,-8056,1745147087605099390
521824,-28,-13,6,-297,1223,-8051,1745147087605099390
522016,-32,-13,7,-280,1230,-8048,1745147087605099390
522208,-36,-11,8,-302,1246,-8053,1745147087605099390
522400,-39,-10,8,-302,1253,-8047,1745147087605099390
522592,-46,-4,9,-307,1261,-7994,1745147087667969753
522784,-55,5,10,-303,1262,-8011,1745147087667969753
522976,-56,0,10,-299,1295,-8032,1745147087667969753
523168,-54,0,9,-321,1324,-7998,1745147087667969753
523360,-50,1,8,-326,1347,-8019,1745147087667969753
523552,-46,3,6,-302,1363,-8022,1745147087667969753
523744,-42,7,4,-311,1359,-8050,1745147087667969753
523936,-38,8,2,-293,1343,-8046,1745147087667969753
524128,-36,8,1,-298,1332,-8053,1745147087667969753
524320,-34,9,0,-292,1318,-8050,1745147087667969753
524512,-31,10,-1,-303,1305,-8055,1745147087667969753
524704,-29,12,-3,-311,1312,-8046,1745147087667969753
524896,-27,14,-2,-321,1298,-8025,1745147087725816152
525088,-25,16,-3,-320,1296,-8011,1745147087725816152
525280,-25,18,-4,-316,1281,-7998,1745147087725816152
525472,-24,20,-6,-310,1293,-8011,1745147087725816152
525664,-22,21,-7,-325,1277,-8014,1745147087725816152
525856,-21,22,-9,-305,1294,-8015,1745147087725816152
526048,-18,24,-10,-302,1311,-8022,1745147087725816152
526240,-17,27,-11,-313,1312,-8026,1745147087725816152
526432,-16,28,-12,-312,1316,-8017,1745147087725816152
526624,-16,29,-13,-298,1321,-8029,1745147087725816152
526816,-16,29,-13,-286,1318,-8034,1745147087725816152
527008,-15,30,-13,-284,1320,-8023,1745147087725816152
527200,-15,30,-14,-288,1330,-8030,1745147087784610563
527392,-15,30,-15,-289,1315,-8032,1745147087784610563
527584,-15,31,-15,-277,1319,-8036,1745147087784610563
527776,-16,30,-15,-286,1328,-8023,1745147087784610563
527968,-16,29,-14,-284,1315,-8009,1745147087784610563
528160,-16,28,-13,-287,1339,-7980,1745147087784610563
528352,-15,27,-12,-272,1338,-7982,1745147087784610563
528544,-13,27,-12,-267,1347,-7980,1745147087784610563
528736,-9,26,-12,-295,1341,-7980,1745147087784610563
528928,-5,24,-12,-268,1346,-7982,1745147087784610563
529120,-4,24,-12,-268,1328,-7995,1745147087784610563
529312,-2,24,-11,-246,1314,-8008,1745147087784610563
529504,-3,25,-8,-257,1300,-7998,1745147087842639043
529696,-3,21,-5,-255,1296,-7982,1745147087842639043
529888,-5,17,-4,-255,1297,-7997,1745147087842639043
530080,-8,15,-3,-258,1303,-8001,1745147087842639043
530272,-9,14,-2,-273,1320,-8008,1745147087842639043
530464,-10,12,-2,-273,1326,-8002,1745147087842639043
530656,-11,9,0,-259,1317,-8003,1745147087842639043
530848,-11,8,1,-261,1331,-7999,1745147087842639043
531040,-10,6,2,-248,1349,-8002,1745147087842639043
531232,-10,4,2,-250,1341,-7990,1745147087842639043
531424,-10,2,4,-257,1341,-8002,1745147087842639043
531616,-9,1,4,-254,1344,-7992,1745147087842639043
531808,-9,1,5,-257,1337,-8005,1745147087898425669
532000,-9,0,5,-254,1336,-8007,1745147087898425669
532192,-8,-1,7,-267,1329,-8003,1745147087898425669
532384,-7,-2,8,-264,1313,-8008,1745147087898425669
532576,-7,-3,8,-258,1321,-7996,1745147087898425669
532768,-8,-3,8,-278,1304,-7995,1745147087898425669
532960,-9,-5,8,-267,1296,-7999,1745147087898425669
533152,-9,-6,9,-285,1310,-7994,1745147087898425669
533344,-8,-6,10,-282,1311,-7996,1745147087898425669
533536,-7,-4,10,-296,1316,-7995,1745147087898425669
533728,-6,-3,9,-297,1324,-8009,1745147087898425669
533920,-5,-1,8,-280,1309,-8018,1745147087898425669
534112,-6,0,7,-288,1322,-8029,1745147087959428080
534304,-7,2,9,-266,1303,-8020,1745147087959428080
534496,-10,8,11,-269,1303,-8023,1745147087959428080
534688,-10,5,13,-257,1311,-8031,1745147087959428080
534880,-9,1,10,-277,1328,-8020,1745147087959428080
535072,-8,2,7,-287,1336,-8024,1745147087959428080
535264,-7,4,3,-291,1339,-8018,1745147087959428080
535456,-6,8,2,-305,1331,-8013,1745147087959428080
535648,-4,9,1,-284,1326,-8025,1745147087959428080
535840,-4,11,1,-279,1308,-8009,1745147087959428080
536032,-5,11,1,-273,1297,-8025,1745147087959428080
536224,-6,12,1,-274,1287,-8017,1745147087959428080
536416,-7,13,1,-278,1300,-1,1745147088018332178
536608,-7,13,0,-272,1314,-8009,1745147088018332178
536800,-7,14,0,-286,1328,-8024,1745147088018332178
536992,-7,15,-2,-289,1315,-8020,1745147088018332178
537184,-6,17,-2,-287,1332,-8026,1745147088018332178
537376,-5,20,-3,-284,1331,-8038,1745147088018332178
537568,-4,22,-4,-282,1336,-8053,1745147088018332178
537760,-4,25,-3,-281,1330,-8031,1745147088018332178
537952,-5,29,-1,-265,1320,-8028,1745147088018332178
538144,-3,26,-2,-242,1322,-8036,1745147088018332178
538336,-2,24,-6,-268,1323,-8003,1745147088018332178
538528,-4,25,-8,-269,1309,-7984,1745147088018332178
538720,-4,26,-9,-287,1310,-7975,1745147088076998777
538912,-3,28,-9,-269,1309,-7997,1745147088076998777
539104,-3,28,-11,-271,1314,-7997,1745147088076998777
539296,-2,29,-12,-270,1309,-7994,1745147088076998777
539488,-1,31,-15,-255,1310,-8013,1745147088076998777
539680,-1,32,-17,-274,1315,-8005,1745147088076998777
539872,-1,33,-18,-255,1301,-8011,1745147088076998777
540064,-2,34,-17,-245,1306,-8015,1745147088076998777
540256,-2,34,-17,-226,1305,-8028,1745147088076998777
540448,-2,37,-18,-250,1309,-8039,1745147088076998777
540640,0,39,-19,-253,1318,-8057,1745147088076998777
540832,1,40,-20,-256,1325,-8058,1745147088076998777
541024,2,42,-21,-257,1309,-8063,1745147088135043195
541216,2,42,-23,-255,1304,-8051,1745147088135043195
541408,0,43,-25,-266,1288,-8045,1745147088135043195
541600,-3,44,-25,-244,1277,-8049,1745147088135043195
541792,-5,46,-25,-254,1270,-8054,1745147088135043195
541984,-9,48,-24,-234,1268,-8047,1745147088135043195
542176,-13,48,-25,-216,1268,-8047,1745147088135043195
542368,-17,48,-26,-217,1262,-8033,1745147088135043195
542560,-21,49,-29,-219,1272,-8029,1745147088135043195
542752,-24,49,-31,-214,1269,-8048,1745147088135043195
542944,-28,49,-34,-209,1273,-8046,1745147088135043195
543136,-30,48,-35,-202,1275,-8050,1745147088135043195
543328,-31,49,-34,-178,1288,-8063,1745147088193623858
543520,-29,45,-35,-135,1273,-8092,1745147088193623858
543712,-28,38,-36,-95,1282,-8082,1745147088193623858
543904,-28,31,-37,-58,1252,-8093,1745147088193623858
544096,-28,25,-33,-60,1253,-8149,1745147088193623858
544288,-29,18,-29,-31,1244,-8222,1745147088193623858
544480,-31,12,-26,-9,1242,-8177,1745147088193623858
544672,-33,18,-24,-59,1253,-8150,1745147088193623858
544864,-35,15,-29,-57,1256,-8257,1745147088193623858
545056,-35,8,-34,-25,1224,-8273,1745147088193623858
545248,-38,2,-35,44,1170,-8142,1745147088193623858
545440,-47,-2,-32,90,1067,-7925,1745147088193623858
545632,-65,1,-39,95,1017,-8081,1745147088251768587
545824,-77,6,-48,55,1029,-7988,1745147088251768587
546016,-71,33,-62,124,1008,-7512,1745147088251768587
546208,-56,72,-86,313,829,-7477,1745147088251768587
546400,-25,129,-122,429,515,-7478,1745147088251768587
546592,-6,121,-185,824,209,-8144,1745147088251768587
546784,4,63,-222,1310,-7,-9015,1745147088251768587
546976,46,8,-227,1676,-182,-8885,1745147088251768587
547168,44,-59,-232,2073,-588,-8004,1745147088251768587
547360,-74,-167,-254,2814,-1448,-8400,1745147088251768587
547552,-203,-353,-270,3435,-2099,-8910,1745147088251768587
547744,-310,-544,-243,3540,-2472,-8774,1745147088251768587
547936,-371,-691,-186,3767,-3466,-8447,1745147088310571279
548128,-445,-774,-221,3820,-4351,-7463,1745147088310571279
548320,-790,-752,-258,3891,-4774,-7317,1745147088310571279
548512,-1212,-797,-262,4485,-5439,-8823,1745147088310571279
548704,-1498,-982,-281,4365,-4802,-7670,1745147088310571279
548896,-1758,-1031,-335,4136,-3912,-6888,1745147088310571279
549088,-1920,-1003,-425,3983,-3033,-6859,1745147088310571279
549280,-1975,-985,-484,3839,-2161,-6689,1745147088310571279
549472,-1992,-977,-468,3879,-1470,-6678,1745147088310571279
549664,-1961,-986,-366,4085,-928,-6723,1745147088310571279
549856,-1872,-1017,-175,4389,-505,-6673,1745147088310571279
550048,-1738,-1071,87,4801,-202,-6703,1745147088310571279
550240,-1571,-1128,381,5221,-107,-6729,1745147088368718144
550432,-1380,-1189,703,5433,-203,-6623,1745147088368718144
550624,-1199,-1247,1043,5408,-501,-6673,1745147088368718144
550816,-1045,-1318,1387,5291,-987,-7048,1745147088368718144
551008,-908,-1402,1720,4930,-1467,-7231,1745147088368718144
551200,-792,-1432,2028,4627,-1952,-7458,1745147088368718144
551392,-740,-1482,2316,4516,-2400,-7814,1745147088368718144
551584,-763,-1531,2582,4514,-2738,-7791,1745147088368718144
551776,-846,-1510,2804,4108,-2853,-7104,1745147088368718144
551968,-990,-1369,2992,3388,-3038,-7219,1745147088368718144
552160,-1165,-1222,3197,2949,-3126,-7499,1745147088368718144
552352,-1365,-1092,3406,3030,-2977,-7238,1745147088368718144
552544,-1588,-987,3579,3397,-2589,-7053,1745147088427684272
552736,-1808,-903,3716,3678,-1972,-6791,1745147088427684272
552928,-1997,-837,3836,3900,-1341,-6835,1745147088427684272
553120,-2154,-805,3960,4240,-715,-6938,1745147088427684272
553312,-2225,-839,4017,3823,668,-7185,1745147088427684272
553504,-2220,-796,3951,2300,3135,-6445,1745147088427684272
553696,-2193,-592,3768,609,5504,-4898,1745147088427684272
553888,-2111,-409,3617,2036,6072,-4508,1745147088427684272
554080,-1821,-317,3802,4864,6013,-4027,1745147088427684272
554272,-1321,-447,4416,6003,5064,-3411,1745147088427684272
554464,-946,-696,4771,4410,3098,-3906,1745147088427684272
554656,-857,-721,4651,1196,1552,-3864,1745147088427684272
554848,-838,-474,4495,-302,783,-3587,1745147088484326254
555040,-799,-185,4525,261,745,-3349,1745147088484326254
555232,-820,45,4606,1478,1190,-2740,1745147088484326254
555424,-852,237,4625,2505,1846,-1815,1745147088484326254
555616,-774,394,4574,3120,2674,-1373,1745147088484326254
555808,-581,506,4460,3187,3943,-1576,1745147088484326254
556000,-331,618,4322,3103,5227,-2189,1745147088484326254
556192,-56,763,4150,2858,6544,-2941,1745147088484326254
556384,220,938,4141,2769,8089,-3489,1745147088484326254
556576,509,1155,4334,2874,8035,-3893,1745147088484326254
556768,800,1358,4462,2831,8059,-3984,1745147088484326254
556960,1066,1554,4573,2674,7535,-4039,1745147088484326254
557152,1293,1766,4645,2470,6781,-4065,1745147088544675495
557344,1463,1994,4698,2313,5977,-4083,1745147088544675495
557536,1580,2240,4744,2238,5358,-4166,1745147088544675495
557728,1647,2492,4782,2252,4922,-4365,1745147088544675495
557920,1669,2749,4802,2438,4661,-4641,1745147088544675495
558112,1654,3002,4803,2729,4665,-4971,1745147088544675495
558304,1608,3243,4827,3131,4670,-5267,1745147088544675495
558496,1553,3464,4861,3766,4620,-5529,1745147088544675495
558688,1477,3633,4865,4607,4599,-5670,1745147088544675495
558880,1368,3767,4846,5455,4570,-5822,1745147088544675495
559072,1263,3878,4822,6220,4548,-6226,1745147088544675495
559264,1214,3984,4790,6835,4842,-6668,1745147088544675495
559456,1253,4089,4735,7428,5391,-6945,1745147088606866645
559648,1381,4190,4635,8104,6058,-7161,1745147088606866645
559840,1572,4260,4503,8849,6675,-7388,1745147088606866645
560032,1808,4298,4373,9466,7174,-7655,1745147088606866645
560224,2067,4316,4268,9970,7511,-7866,1745147088606866645
560416,2332,4315,4196,10248,7643,-7972,1745147088606866645
560608,2579,4301,4150,10413,7564,-8107,1745147088606866645
560800,2792,4273,4131,10400,7301,-8148,1745147088606866645
560992,2959,4241,4136,10380,6799,-8119,1745147088606866645
561184,3069,4202,4147,10378,6142,-7981,1745147088606866645
561376,3107,4159,4155,10419,5370,-7871,1745147088606866645
561568,3071,4101,4145,10412,4538,-7692,1745147088606866645
561760,2963,4045,4120,10397,3727,-7426,1745147088659563456
561952,2790,3981,4083,10469,2935,-7116,1745147088659563456
562144,2550,3908,4037,10568,2178,-6793,1745147088659563456
562336,2236,3807,3984,10761,1452,-6430,1745147088659563456
562528,1872,3687,3930,11006,734,-5848,1745147088659563456
562720,1485,3533,3876,11366,5,-5379,1745147088659563456
562912,1099,3339,3805,11712,-597,-5000,1745147088659563456
563104,728,3117,3694,12004,-953,-4725,1745147088659563456
563296,369,2891,3533,12103,-972,-4693,1745147088659563456
563488,0,2678,3353,11975,-569,-4784,1745147088659563456
563680,-362,2487,3195,11654,-341,-4786,1745147088659563456
563872,-660,2299,2984,11531,-99,-4840,1745147088659563456
564064,-942,2118,2701,11107,589,-4910,1745147088720075507
564256,-1180,1934,2480,10725,1284,-4984,1745147088720075507
564448,-1356,1756,2324,10384,1796,-5012,1745147088720075507
564640,-1471,1577,2192,10097,2161,-5024,1745147088720075507
564832,-1527,1397,2071,9853,2380,-5041,1745147088720075507
565024,-1533,1228,1955,9642,2456,-5019,1745147088720075507
565216,-1503,1060,1838,9374,2339,-4997,1745147088720075507
565408,-1431,906,1728,9050,2165,-5015,1745147088720075507
565600,-1306,791,1627,8657,1955,-5035,1745147088720075507
565792,-1145,704,1520,8251,1815,-5114,1745147088720075507
565984,-976,638,1407,7935,1654,-5138,1745147088720075507
566176,-809,588,1285,7683,1425,-5120,1745147088720075507
566368,-643,559,1168,7465,1053,-5120,1745147088778681586
566560,-477,550,1056,7284,697,-5115,1745147088778681586
566752,-320,556,949,7140,395,-5102,1745147088778681586
566944,-175,569,848,7055,196,-5070,1745147088778681586
567136,-50,587,746,7012,13,-5034,1745147088778681586
567328,57,607,635,6989,-156,-4979,1745147088778681586
567520,149,621,528,6976,-303,-4926,1745147088778681586
567712,222,626,438,7011,-464,-4850,1745147088778681586
567904,272,623,371,7060,-703,-4756,1745147088778681586
568096,300,610,326,7096,-997,-4694,1745147088778681586
568288,312,591,306,7113,-1291,-4654,1745147088778681586
568480,311,572,301,7111,-1550,-4666,1745147088778681586
568672,287,555,302,7068,-1765,-4711,1745147088836895325
568864,233,539,302,7023,-1972,-4729,1745147088836895325
569056,150,528,292,6953,-2141,-4746,1745147088836895325
569248,45,514,281,6935,-2321,-4675,1745147088836895325
569440,-70,497,268,6860,-2420,-4626,1745147088836895325
569632,-178,488,272,6836,-2470,-4581,1745147088836895325
569824,-275,474,282,6844,-2483,-4508,1745147088836895325
570016,-356,466,296,6866,-2391,-4491,1745147088836895325
570208,-433,454,313,6929,-2308,-4445,1745147088836895325
570400,-500,439,312,7034,-2160,-4394,1745147088836895325
570592,-547,418,286,7088,-1959,-4293,1745147088836895325
570784,-565,389,244,7134,-1732,-4220,1745147088836895325
570976,-548,343,196,7217,-1585,-4184,1745147088900271934
571168,-496,280,149,7329,-1469,-4173,1745147088900271934
571360,-418,210,108,7381,-1430,-4152,1745147088900271934
571552,-328,145,75,7438,-1452,-4172,1745147088900271934
571744,-233,89,50,7421,-1504,-4152,1745147088900271934
571936,-136,45,30,7391,-1575,-4107,1745147088900271934
572128,-50,4,11,7352,-1679,-4055,1745147088900271934
572320,26,-35,-12,7281,-1807,-4008,1745147088900271934
572512,90,-64,-37,7210,-1954,-3987,1745147088900271934
572704,142,-84,-61,7124,-2093,-3936,1745147088900271934
572896,179,-97,-81,7047,-2221,-3890,1745147088900271934
573088,195,-106,-91,6987,-2387,-3869,1745147088900271934
573280,205,-102,-107,6952,-2495,-3862,1745147088951896670
573472,205,-90,-111,6938,-2575,-3863,1745147088951896670
573664,203,-81,-110,6907,-2570,-3883,1745147088951896670
573856,196,-67,-113,6898,-2556,-3901,1745147088951896670
574048,187,-56,-123,6886,-2542,-3894,1745147088951896670
574240,179,-51,-135,6917,-2560,-3811,1745147088951896670
574432,176,-51,-146,6961,-2598,-3744,1745147088951896670
574624,180,-57,-151,7014,-2642,-3701,1745147088951896670
574816,186,-70,-152,7061,-2683,-3655,1745147088951896670
575008,192,-86,-155,7088,-2706,-3639,1745147088951896670
575200,200,-99,-161,7112,-2720,-3586,1745147088951896670
575392,211,-113,-175,7130,-2760,-3534,1745147088951896670
575584,219,-133,-194,7184,-2790,-3453,1745147089012235390
575776,233,-170,-210,7220,-2795,-3265,1745147089012235390
575968,257,-197,-213,6954,-2800,-3131,1745147089012235390
576160,267,-243,-198,7081,-3018,-3311,1745147089012235390
576352,284,-213,-229,7215,-3337,-3500,1745147089012235390
576544,255,-191,-321,7198,-3502,-3242,1745147089012235390
576736,242,-193,-392,7091,-3600,-3366,1745147089012235390
576928,230,-190,-414,6960,-3515,-3277,1745147089012235390
577120,217,-202,-399,6933,-3371,-3213,1745147089012235390
577312,209,-210,-371,7013,-3196,-3140,1745147089012235390
577504,212,-225,-337,7048,-3075,-3101,1745147089012235390
577696,228,-232,-299,7116,-3064,-3107,1745147089012235390
578080,257,-245,-259,7172,-3209,-3164,1745147089080312008
578272,257,-244,-261,7150,-3325,-3135,1745147089080312008
578464,247,-240,-268,7151,-3486,-3088,1745147089080312008
578656,232,-235,-271,7090,-3625,-3030,1745147089080312008
578848,224,-233,-265,7021,-3722,-2940,1745147089080312008
579040,224,-229,-247,6952,-3738,-2905,1745147089080312008
579232,226,-219,-224,6915,-3697,-2937,1745147089080312008
579424,220,-202,-205,6878,-3649,-2997,1745147089080312008
579616,214,-183,-189,6869,-3601,-3040,1745147089080312008
579808,213,-166,-173,6889,-3535,-3070,1745147089080312008
580000,215,-149,-159,6941,-3425,-3093,1745147089080312008
580192,215,-133,-143,6972,-3335,-3107,1745147089080312008
580384,211,-120,-126,7026,-3276,-3096,1745147089139255688
580768,222,-103,-87,7104,-3186,-3078,1745147089139255688
580960,240,-97,-71,7125,-3145,-3073,1745147089139255688
581152,252,-95,-62,7137,-3105,-3027,1745147089139255688
581344,255,-101,-61,7148,-3167,-2979,1745147089139255688
581536,257,-109,-61,7155,-3259,-2925,1745147089139255688
581728,264,-116,-60,7139,-3333,-2906,1745147089139255688
581920,267,-115,-61,7118,-3344,-2946,1745147089139255688
582112,260,-106,-62,7066,-3340,-2984,1745147089139255688
582304,245,-97,-63,7049,-3317,-2984,1745147089139255688
582496,232,-90,-65,7062,-3291,-3015,1745147089139255688
582688,221,-83,-64,7068,-3260,-2990,1745147089139255688
582880,213,-80,-65,7093,-3253,-2975,1745147089197829632
583072,208,-78,-66,7135,-3251,-2980,1745147089197829632
583264,203,-78,-67,7159,-3229,-2985,1745147089197829632
583456,200,-77,-70,7160,-3178,-3000,1745147089197829632
583648,194,-76,-73,7150,-3159,-2980,1745147089197829632
583840,185,-77,-78,7133,-3171,-2981,1745147089197829632
584032,178,-78,-81,7098,-3156,-3004,1745147089197829632
584224,176,-73,-83,7063,-3127,-3051,1745147089197829632
584416,172,-66,-88,7036,-3067,-3071,1745147089197829632
584608,167,-62,-98,7065,-3038,-3066,1745147089197829632
584800,163,-65,-108,7107,-3072,-3006,1745147089197829632
584992,164,-77,-119,7163,-3150,-2944,1745147089197829632
585184,169,-92,-129,7198,-3204,-2892,1745147089255847175
585376,174,-106,-135,7179,-3271,-2906,1745147089255847175
585568,172,-116,-144,7160,-3311,-2907,1745147089255847175
585760,166,-124,-155,7116,-3360,-2922,1745147089255847175
585952,161,-130,-166,7072,-3404,-2928,1745147089255847175
586144,160,-131,-174,7005,-3399,-2952,1745147089255847175
586336,158,-127,-177,6952,-3366,-2957,1745147089255847175
586528,154,-121,-176,6935,-3342,-2969,1745147089255847175
586720,148,-116,-170,6952,-3310,-2984,1745147089255847175
586912,143,-111,-160,6982,-3268,-2994,1745147089255847175
587104,140,-110,-152,7006,-3218,-2948,1745147089255847175
587296,137,-115,-143,7051,-3221,-2917,1745147089255847175
587488,138,-126,-134,7077,-3281,-2880,1745147089314522889
587680,145,-139,-123,7089,-3334,-2854,1745147089314522889
587872,153,-153,-113,7086,-3407,-2843,1745147089314522889
588064,158,-161,-107,7057,-3441,-2886,1745147089314522889
588256,158,-162,-105,6971,-3442,-2951,1745147089314522889
588448,148,-156,-104,6898,-3414,-3008,1745147089314522889
588640,133,-145,-104,6831,-3382,-3011,1745147089314522889
588832,120,-133,-101,6819,-3357,-2983,1745147089314522889
589024,109,-124,-93,6833,-3371,-2960,1745147089314522889
589216,108,-117,-84,6873,-3364,-2926,1745147089314522889
589408,107,-108,-74,6903,-3348,-2921,1745147089314522889
589600,102,-104,-70,6953,-3342,-2902,1745147089314522889
589792,97,-104,-70,6998,-3335,-2888,1745147089377892779
589984,96,-107,-70,7014,-3341,-2905,1745147089377892779
590176,101,-108,-68,7018,-3318,-2949,1745147089377892779
590368,106,-105,-65,6973,-3271,-2994,1745147089377892779
590560,107,-97,-62,6952,-3221,-3006,1745147089377892779
590752,107,-91,-59,6917,-3172,-3019,1745147089377892779
590944,108,-86,-56,6931,-3149,-3004,1745147089377892779
591136,109,-83,-54,6954,-3149,-2999,1745147089377892779
591328,111,-85,-52,7002,-3188,-2954,1745147089377892779
591520,115,-90,-52,7049,-3229,-2916,1745147089377892779
591712,118,-99,-54,7056,-3284,-2884,1745147089377892779
591904,120,-107,-55,7052,-3335,-2866,1745147089377892779
592096,120,-114,-57,7026,-3389,-2873,1745147089436468390
592288,123,-121,-56,6985,-3425,-2919,1745147089436468390
592480,125,-121,-55,6961,-3429,-2973,1745147089436468390
592672,121,-116,-56,6957,-3402,-3000,1745147089436468390
592864,109,-108,-58,6969,-3397,-2997,1745147089436468390
593056,95,-103,-58,6962,-3403,-2984,1745147089436468390
593248,85,-97,-53,6963,-3387,-2987,1745147089436468390
593440,76,-92,-45,6983,-3328,-3002,1745147089436468390
593632,67,-88,-40,7006,-3312,-3003,1745147089436468390
593824,59,-89,-36,7015,-3317,-2970,1745147089436468390
594016,51,-92,-32,7000,-3328,-2945,1745147089436468390
594208,43,-93,-30,6966,-3333,-2944,1745147089436468390
594400,33,-89,-28,6924,-3318,-3001,1745147089494679212
594592,21,-84,-27,6871,-3292,-3052,1745147089494679212
594784,11,-77,-28,6859,-3297,-3041,1745147089494679212
594976,5,-73,-30,6848,-3322,-3029,1745147089494679212
595168,5,-69,-30,6860,-3330,-3031,1745147089494679212
595360,7,-60,-31,6867,-3287,-3053,1745147089494679212
595552,8,-49,-34,6861,-3225,-3094,1745147089494679212
595744,6,-40,-38,6872,-3154,-3109,1745147089494679212
595936,2,-36,-40,6893,-3133,-3067,1745147089494679212
596128,5,-41,-39,6935,-3189,-3004,1745147089494679212
596320,11,-48,-36,6961,-3247,-2967,1745147089494679212
596512,19,-55,-34,6950,-3289,-2939,1745147089494679212
596704,22,-60,-35,6914,-3327,-2964,1745147089553320395
596896,21,-63,-37,6879,-3358,-2984,1745147089553320395
597088,18,-63,-38,6826,-3379,-3031,1745147089553320395
597280,16,-60,-37,6775,-3376,-3065,1745147089553320395
597472,13,-51,-31,6748,-3334,-3106,1745147089553320395
597664,9,-39,-24,6744,-3273,-3119,1745147089553320395
597856,5,-28,-17,6748,-3229,-3117,1745147089553320395
598048,4,-19,-8,6777,-3174,-3121,1745147089553320395
598240,5,-13,2,6798,-3156,-3112,1745147089553320395
598432,11,-9,12,6816,-3109,-3121,1745147089553320395
598624,18,-6,21,6818,-3080,-3128,1745147089553320395
598816,26,-5,29,6826,-3036,-3123,1745147089553320395
599008,32,-6,34,6838,-3012,-3109,1745147089611599290
599200,34,-11,34,6856,-3070,-3090,1745147089611599290
599392,42,-16,36,6872,-3114,-3058,1745147089611599290
599584,50,-20,35,6874,-3139,-3080,1745147089611599290
599776,54,-20,31,6866,-3116,-3120,1745147089611599290
599968,50,-19,23,6871,-3113,-3098,1745147089611599290
600160,46,-21,14,6878,-3142,-3054,1745147089611599290
600352,45,-27,8,6895,-3216,-3021,1745147089611599290
600544,48,-31,7,6884,-3261,-2992,1745147089611599290
600736,46,-33,7,6878,-3286,-2982,1745147089611599290
600928,38,-34,7,6851,-3323,-3016,1745147089611599290
