timestamp,gyr_x,gyr_y,gyr_z,acc_x,acc_y,acc_z,pkt_time_ns
114016,17,247,7,219,1747,-7497,1745145665048421269
114208,119,73,8,122,1754,-7849,1745145665048421269
114400,141,93,8,-39,1766,-7703,1745145665048421269
114592,154,111,9,-118,1860,-7752,1745145665048421269
114784,192,109,14,-101,1924,-7841,1745145665048421269
114976,217,139,17,-52,1910,-7932,1745145665048421269
115168,237,141,19,1,1869,-8041,1745145665048421269
115360,252,143,22,46,1839,-8092,1745145665048421269
115552,256,156,27,124,1752,-8143,1745145665048421269
115744,256,145,30,185,1655,-8186,1745145665048421269
115936,249,143,32,267,1643,-8219,1745145665048421269
116128,242,137,33,351,1685,-8285,1745145665048421269
116320,240,119,32,443,1671,-8380,1745145665104552423
116512,231,104,26,542,1607,-8448,1745145665104552423
116704,216,73,15,680,1596,-8480,1745145665104552423
116896,208,31,5,776,1727,-8580,1745145665104552423
117088,203,-15,-7,773,1867,-8557,1745145665104552423
117280,212,-47,-14,637,2100,-8559,1745145665104552423
117472,237,-56,-18,474,2205,-8526,1745145665104552423
117664,260,-56,-23,346,2040,-8450,1745145665104552423
117856,237,-22,-43,274,873,-8302,1745145665104552423
118048,236,-62,-67,724,2337,-8075,1745145665104552423
118240,280,-147,-54,682,1855,-7789,1745145665104552423
118432,280,-187,-68,820,1502,-8203,1745145665104552423
118624,254,-246,-66,841,1453,-7988,1745145665160782222
118816,208,-264,-54,735,1154,-8170,1745145665160782222
119008,67,-170,125,339,-781,-8580,1745145665160782222
119200,-456,85,-20,-1414,-3405,-6473,1745145665160782222
119392,-476,-20,-185,-1684,-1372,-6709,1745145665160782222
119584,-586,-96,-124,-1690,-230,-7241,1745145665160782222
119776,-589,22,-60,-1569,991,-7463,1745145665160782222
119968,-555,99,-13,-1210,2156,-7400,1745145665160782222
120160,-469,160,-10,-748,3018,-7353,1745145665160782222
120352,-342,187,-51,-260,3471,-7510,1745145665160782222
120544,-196,166,-119,182,3649,-7602,1745145665160782222
120736,-70,173,-137,591,3489,-8156,1745145665160782222
120928,28,178,-136,734,2946,-7890,1745145665221176879
121120,115,123,-121,889,2431,-7924,1745145665221176879
121312,168,67,-86,904,1939,-7975,1745145665221176879
121504,187,21,-46,800,1535,-8009,1745145665221176879
121696,176,-18,-17,606,1252,-8030,1745145665221176879
121888,146,-41,-3,401,1078,-8088,1745145665221176879
122080,103,-46,5,188,1022,-8104,1745145665221176879
122272,55,-37,5,14,1019,-8014,1745145665221176879
122464,12,-34,0,-106,1105,-7918,1745145665221176879
122656,-23,-34,-7,-146,1258,-7919,1745145665221176879
122848,-48,-26,-10,-131,1429,-7931,1745145665221176879
123040,-61,-14,-11,-64,1581,-7908,1745145665221176879
123232,-64,-6,-12,15,1687,-7863,1745145665278703853
123424,-57,-10,-14,78,1759,-7828,1745145665278703853
123616,-44,-22,-16,151,1789,-7846,1745145665278703853
123808,-32,-32,-15,197,1767,-7864,1745145665278703853
124000,-22,-41,-13,199,1709,-7892,1745145665278703853
124192,-15,-45,-11,179,1684,-7901,1745145665278703853
124384,-10,-50,-9,148,1616,-7925,1745145665278703853
124576,-9,-52,-8,116,1568,-7937,1745145665278703853
124768,-12,-52,-7,68,1543,-7952,1745145665278703853
124960,-16,-51,-6,54,1525,-7978,1745145665278703853
125152,-21,-51,-4,19,1525,-7981,1745145665278703853
125344,-25,-50,-3,3,1555,-7980,1745145665278703853
125536,-29,-49,-2,25,1588,-7977,1745145665336321504
125728,-32,-49,-2,22,1599,-7960,1745145665336321504
125920,-32,-48,-2,19,1628,-7947,1745145665336321504
126112,-33,-50,-2,32,1623,-7962,1745145665336321504
126304,-33,-48,-3,42,1622,-7964,1745145665336321504
126496,-33,-48,-3,50,1618,-7962,1745145665336321504
126688,-34,-50,-5,50,1611,-7969,1745145665336321504
126880,-37,-50,-7,67,1595,-7951,1745145665336321504
127072,-41,-49,-9,75,1579,-7941,1745145665336321504
127264,-44,-48,-10,65,1571,-7952,1745145665336321504
127456,-48,-47,-11,64,1569,-7964,1745145665336321504
127648,-52,-48,-15,61,1586,-7961,1745145665336321504
127840,-54,-47,-16,31,1596,-7955,1745145665396451059
128032,-55,-49,-17,23,1616,-7949,1745145665396451059
128224,-56,-48,-19,-13,1625,-7938,1745145665396451059
128416,-56,-45,-21,-18,1618,-7937,1745145665396451059
128608,-53,-42,-25,-40,1629,-7928,1745145665396451059
128800,-49,-36,-28,-53,1630,-7928,1745145665396451059
128992,-45,-30,-31,-55,1618,-7933,1745145665396451059
129184,-41,-24,-35,-50,1639,-7926,1745145665396451059
129376,-40,-18,-38,-18,1631,-7907,1745145665396451059
129568,-39,-15,-39,-9,1637,-7907,1745145665396451059
129760,-39,-12,-41,0,1616,-7917,1745145665396451059
129952,-41,-11,-44,11,1624,-7919,1745145665396451059
130144,-42,-9,-47,0,1609,-7909,1745145665453852357
130336,-43,-8,-49,-19,1593,-7884,1745145665453852357
130528,-45,-5,-50,-22,1604,-7886,1745145665453852357
130720,-46,-4,-52,-37,1630,-7912,1745145665453852357
130912,-44,-1,-53,-46,1639,-7933,1745145665453852357
131104,-42,3,-56,-51,1662,-7934,1745145665453852357
131296,-37,9,-59,-48,1690,-7935,1745145665453852357
131488,-29,14,-61,-56,1690,-7870,1745145665453852357
131680,-21,11,-62,-37,1702,-7888,1745145665453852357
131872,-16,14,-63,-44,1709,-7882,1745145665453852357
132064,-14,19,-63,-49,1698,-7885,1745145665453852357
132256,-10,22,-63,-25,1688,-7888,1745145665453852357
132448,-7,26,-64,-15,1700,-7901,1745145665513397907
132640,-7,28,-64,-11,1716,-7930,1745145665513397907
132832,-5,31,-64,-19,1721,-7956,1745145665513397907
133024,0,33,-63,-10,1734,-7991,1745145665513397907
133216,6,36,-64,-11,1737,-8033,1745145665513397907
133408,11,34,-64,-9,1717,-8056,1745145665513397907
133600,16,33,-65,-5,1671,-8041,1745145665513397907
133792,23,30,-63,0,1617,-7994,1745145665513397907
133984,25,30,-61,-6,1574,-7962,1745145665513397907
134176,22,33,-56,13,1521,-7945,1745145665513397907
134368,15,36,-52,22,1504,-7933,1745145665513397907
134560,6,38,-50,41,1510,-7910,1745145665513397907
134752,-4,41,-49,54,1532,-7889,1745145665570239523
134944,-12,44,-47,72,1575,-7882,1745145665570239523
135136,-20,43,-47,91,1631,-7883,1745145665570239523
135328,-26,40,-47,117,1688,-7914,1745145665570239523
135520,-32,35,-47,127,1764,-7994,1745145665570239523
135712,-35,28,-49,102,1815,-8052,1745145665570239523
135904,-30,19,-52,74,1879,-8114,1745145665570239523
136096,-20,11,-55,14,1905,-8118,1745145665570239523
136288,-8,6,-56,-18,1902,-8091,1745145665570239523
136480,2,5,-54,-37,1855,-8035,1745145665570239523
136672,8,8,-52,-41,1806,-7974,1745145665570239523
136864,11,15,-50,-52,1738,-7950,1745145665570239523
137056,12,24,-51,-26,1698,-7968,1745145665630463556
137248,13,34,-52,7,1651,-7979,1745145665630463556
137440,15,43,-54,47,1610,-8011,1745145665630463556
137632,16,47,-54,100,1585,-8057,1745145665630463556
137824,15,46,-53,145,1554,-8087,1745145665630463556
138016,14,39,-52,174,1503,-8116,1745145665630463556
138208,10,31,-48,157,1477,-8091,1745145665630463556
138400,2,22,-44,117,1476,-8043,1745145665630463556
138592,-10,18,-37,64,1500,-8008,1745145665630463556
138784,-24,21,-31,28,1568,-8011,1745145665630463556
138976,-35,28,-27,-13,1638,-8014,1745145665630463556
139168,-39,39,-26,-23,1712,-8005,1745145665630463556
139360,-35,51,-28,-26,1777,-7969,1745145665687400797
139552,-28,62,-30,-8,1831,-7971,1745145665687400797
139744,-24,71,-33,27,1844,-8003,1745145665687400797
139936,-20,75,-35,72,1873,-8051,1745145665687400797
140128,-17,74,-38,81,1877,-8095,1745145665687400797
140320,-14,69,-39,58,1859,-8164,1745145665687400797
140512,-9,62,-38,34,1826,-8140,1745145665687400797
140704,-4,58,-35,16,1787,-8106,1745145665687400797
140896,0,58,-31,-17,1738,-8071,1745145665687400797
141088,4,65,-22,-30,1703,-8020,1745145665687400797
141280,4,76,-13,-16,1666,-8014,1745145665687400797
141472,2,88,-6,19,1673,-7999,1745145665687400797
141664,2,96,-1,91,1651,-7998,1745145665747031814
141856,6,100,3,134,1647,-8000,1745145665747031814
142048,11,101,6,180,1644,-8001,1745145665747031814
142240,16,98,10,210,1651,-8003,1745145665747031814
142432,21,91,16,212,1636,-8025,1745145665747031814
142624,24,83,20,197,1630,-8043,1745145665747031814
142816,23,74,25,166,1640,-8053,1745145665747031814
143008,22,68,28,102,1649,-8032,1745145665747031814
143200,18,66,30,63,1655,-7987,1745145665747031814
143392,12,69,33,40,1694,-7946,1745145665747031814
143584,9,75,34,25,1723,-7898,1745145665747031814
143776,8,84,37,44,1779,-7868,1745145665747031814
143968,9,89,40,98,1829,-7859,1745145665805577478
144160,13,91,43,128,1854,-7881,1745145665805577478
144352,21,90,46,173,1890,-7923,1745145665805577478
144544,32,85,49,207,1913,-7975,1745145665805577478
144736,46,79,53,212,1899,-7996,1745145665805577478
144928,60,73,56,228,1895,-8014,1745145665805577478
145120,74,68,59,230,1814,-8055,1745145665805577478
145312,87,65,64,236,1731,-8012,1745145665805577478
145504,92,65,67,241,1640,-8026,1745145665805577478
145696,94,68,72,241,1555,-8026,1745145665805577478
145888,93,70,78,269,1486,-8035,1745145665805577478
146080,86,73,84,290,1462,-8064,1745145665805577478
146272,75,77,89,342,1466,-8158,1745145665862498051
146464,63,80,94,387,1544,-8223,1745145665862498051
146656,52,78,99,456,1605,-8271,1745145665862498051
146848,46,68,104,513,1670,-8344,1745145665862498051
147040,44,53,110,554,1752,-8456,1745145665862498051
147232,50,30,114,595,1892,-8621,1745145665862498051
147424,63,7,116,629,2043,-8565,1745145665862498051
147616,81,-10,123,608,2200,-8455,1745145665862498051
147808,106,-16,134,584,2388,-8355,1745145665862498051
148000,154,-11,146,537,2611,-8114,1745145665862498051
148192,240,8,147,422,2949,-7849,1745145665862498051
148384,369,50,161,321,3431,-7140,1745145665862498051
148576,531,118,176,371,3523,-5694,1745145665922351411
148768,719,210,149,573,3380,-5130,1745145665922351411
148960,983,338,105,969,3296,-5865,1745145665922351411
149152,1199,454,79,1741,3076,-5513,1745145665922351411
149344,1179,593,68,2632,2932,-2665,1745145665922351411
149536,726,682,43,3503,3136,-5469,1745145665922351411
149728,164,706,-22,4983,2919,-7768,1745145665922351411
149920,-157,486,-186,6715,2996,-7218,1745145665922351411
150112,-570,215,-484,8252,3328,-7265,1745145665922351411
150304,-978,-80,-833,8967,3746,-7538,1745145665922351411
150496,-1348,-382,-1125,8661,4126,-6634,1745145665922351411
150688,-1559,-573,-1330,7469,4461,-6004,1745145665922351411
150880,-1508,-661,-1459,5824,4768,-5281,1745145665979196569
151072,-1230,-685,-1536,4741,4386,-4872,1745145665979196569
151264,-949,-718,-1563,4350,3494,-5624,1745145665979196569
151456,-927,-736,-1547,3910,2589,-6182,1745145665979196569
151648,-1124,-693,-1538,3304,2174,-6267,1745145665979196569
151840,-1330,-549,-1591,2661,2410,-5851,1745145665979196569
152032,-1493,-371,-1700,2275,2911,-5505,1745145665979196569
152224,-1485,-213,-1792,2359,3096,-5232,1745145665979196569
152416,-1357,-131,-1794,2918,2818,-5023,1745145665979196569
152608,-1129,-82,-1698,3340,2341,-4992,1745145665979196569
152800,-837,-45,-1525,3522,1684,-5157,1745145665979196569
152992,-544,-11,-1302,3432,732,-5404,1745145665979196569
153184,-291,42,-1036,2991,-486,-5384,1745145666039355498
153376,-92,144,-694,2192,-2098,-5133,1745145666039355498
153568,163,307,-282,1540,-4386,-4711,1745145666039355498
153760,403,524,56,983,-6492,-4567,1745145666039355498
153952,540,761,238,1205,-9200,-4578,1745145666039355498
154144,483,1024,329,910,-10548,-4234,1745145666039355498
154336,317,1306,584,1208,-12185,-3893,1745145666039355498
154528,61,1563,873,1645,-13439,-3325,1745145666039355498
154720,-255,1780,1209,2195,-14241,-2917,1745145666039355498
154912,-568,1953,1582,2635,-14647,-2700,1745145666039355498
155104,-848,2127,1964,2850,-14469,-2976,1745145666039355498
155296,-1092,2308,2335,3057,-13597,-3476,1745145666039355498
155488,-1316,2462,2695,3459,-12451,-3736,1745145666095752848
155680,-1510,2567,3050,4000,-11521,-3890,1745145666095752848
155872,-1638,2637,3405,4484,-10774,-4110,1745145666095752848
156064,-1718,2693,3752,4892,-10100,-4293,1745145666095752848
156256,-1784,2743,4074,5178,-9477,-4440,1745145666095752848
156448,-1850,2788,4362,5429,-8832,-4602,1745145666095752848
156640,-1925,2838,4624,5580,-8165,-4791,1745145666095752848
156832,-2003,2898,4864,5753,-7438,-5068,1745145666095752848
157024,-2088,2968,5095,5994,-6642,-5429,1745145666095752848
157216,-2188,3042,5329,6343,-5798,-5767,1745145666095752848
157408,-2287,3123,5560,6678,-4860,-5817,1745145666095752848
157600,-2382,3216,5781,7036,-3916,-5885,1745145666095752848
157792,-2465,3307,5987,7427,-2963,-6072,1745145666156297815
157984,-2521,3395,6178,7892,-1969,-6208,1745145666156297815
158176,-2544,3477,6341,8517,-964,-6113,1745145666156297815
158368,-2564,3516,6456,9347,-124,-5951,1745145666156297815
158560,-2584,3505,6524,10178,554,-5879,1745145666156297815
158752,-2592,3465,6555,10957,988,-5729,1745145666156297815
158944,-2557,3409,6538,11725,1457,-5471,1745145666156297815
159136,-2503,3339,6497,12383,2041,-5155,1745145666156297815
159328,-2438,3263,6462,13139,2305,-5087,1745145666156297815
159520,-2371,3174,6383,13923,2671,-5149,1745145666156297815
159712,-2315,3086,6263,14675,3072,-5407,1745145666156297815
159904,-2267,3018,6108,15287,3615,-5578,1745145666156297815
160096,-2206,2973,5927,15901,4171,-5731,1745145666212260481
160288,-2103,2933,5739,16406,4797,-5924,1745145666212260481
160480,-1924,2891,5615,16563,6003,-6078,1745145666212260481
160672,-1715,2865,5590,16803,6660,-6235,1745145666212260481
160864,-1497,2844,5517,16799,7876,-6483,1745145666212260481
161056,-1341,2844,5581,16830,7997,-6565,1745145666212260481
161248,-1206,2826,5636,16866,8156,-6318,1745145666212260481
161440,-1135,2796,5706,16913,7825,-6145,1745145666212260481
161632,-1121,2751,5800,16908,7245,-5636,1745145666212260481
161824,-1144,2706,5895,16813,6502,-4930,1745145666212260481
162016,-1241,2672,5960,16731,5780,-4661,1745145666212260481
162208,-1396,2646,5988,16517,5154,-3932,1745145666212260481
162400,-1592,2617,5979,16436,4640,-3269,1745145666272535399
162592,-1813,2568,5927,16538,4216,-2669,1745145666272535399
162784,-2051,2485,5827,16847,3828,-2054,1745145666272535399
162976,-2303,2366,5683,17209,3496,-1426,1745145666272535399
163168,-2556,2234,5509,17630,3253,-996,1745145666272535399
163360,-2785,2063,5306,17728,3279,-673,1745145666272535399
163552,-2968,1876,5080,17548,3603,-515,1745145666272535399
163744,-3089,1698,4839,17055,4190,-468,1745145666272535399
163936,-3162,1525,4581,16340,4903,-750,1745145666272535399
164128,-3186,1350,4304,15416,5706,-958,1745145666272535399
164320,-3164,1192,4011,14412,6469,-1268,1745145666272535399
164512,-3096,1041,3715,13448,7016,-1570,1745145666272535399
164704,-2992,892,3422,12610,7327,-1984,1745145666330033103
164896,-2864,736,3137,11781,7396,-2337,1745145666330033103
165088,-2707,606,2861,11058,7325,-2534,1745145666330033103
165280,-2534,507,2611,10320,7143,-2739,1745145666330033103
165472,-2350,425,2389,9571,6926,-2951,1745145666330033103
165664,-2167,369,2194,8849,6673,-3175,1745145666330033103
165856,-1973,344,2013,8189,6492,-3333,1745145666330033103
166048,-1759,345,1846,7569,6303,-3330,1745145666330033103
166240,-1520,357,1688,7092,6089,-3334,1745145666330033103
166432,-1264,364,1540,6833,5665,-3403,1745145666330033103
166624,-1004,363,1402,6782,5029,-3532,1745145666330033103
166816,-749,358,1276,6872,4336,-3597,1745145666330033103
167008,-506,360,1161,7004,3642,-3627,1745145666387770545
167200,-284,364,1053,7098,3056,-3693,1745145666387770545
167392,-84,372,946,7189,2527,-3700,1745145666387770545
167584,80,380,832,7245,1997,-3648,1745145666387770545
167776,207,375,712,7308,1450,-3632,1745145666387770545
167968,295,362,605,7336,917,-3644,1745145666387770545
168160,346,335,522,7320,351,-3627,1745145666387770545
168352,358,294,460,7209,-134,-3579,1745145666387770545
168544,319,250,417,7079,-558,-3544,1745145666387770545
168736,231,219,387,6955,-948,-3577,1745145666387770545
168928,117,219,374,6795,-1294,-3630,1745145666387770545
169120,0,237,369,6646,-1461,-3587,1745145666387770545
169312,-120,268,372,6537,-1461,-3614,1745145666448069890
169504,-245,309,391,6508,-1445,-3680,1745145666448069890
169696,-365,338,420,6535,-1434,-3723,1745145666448069890
169888,-471,348,467,6659,-1402,-3791,1745145666448069890
170080,-568,338,527,6808,-1371,-3872,1745145666448069890
170272,-643,314,589,6930,-1308,-3964,1745145666448069890
170464,-692,294,635,7039,-1157,-4040,1745145666448069890
170656,-711,266,657,7093,-986,-4150,1745145666448069890
170848,-720,229,643,7161,-725,-4250,1745145666448069890
171040,-733,235,617,7268,-581,-4589,1745145666448069890
171232,-779,249,570,7171,-830,-4140,1745145666448069890
171424,-772,193,516,7103,-1051,-3978,1745145666448069890
171616,-759,127,469,7072,-1279,-4108,1745145666504625154
171808,-758,99,421,6928,-1419,-4130,1745145666504625154
172000,-764,86,372,6782,-1535,-4138,1745145666504625154
172192,-770,89,313,6639,-1577,-4207,1745145666504625154
172384,-777,109,245,6522,-1517,-4372,1745145666504625154
172576,-786,140,177,6442,-1396,-4430,1745145666504625154
172768,-778,174,116,6380,-1160,-4459,1745145666504625154
172960,-746,214,69,6351,-888,-4483,1745145666504625154
173152,-680,249,38,6414,-701,-4450,1745145666504625154
173344,-586,265,23,6576,-580,-4477,1745145666504625154
173536,-467,259,21,6789,-544,-4491,1745145666504625154
173728,-339,234,24,6965,-470,-4471,1745145666504625154
173920,-215,200,20,7096,-456,-4430,1745145666565400797
174112,-101,161,4,7192,-535,-4392,1745145666565400797
174304,2,115,-21,7201,-670,-4282,1745145666565400797
174496,88,58,-51,7188,-923,-4081,1745145666565400797
174688,163,1,-79,7153,-1220,-3978,1745145666565400797
174880,214,-52,-99,7089,-1560,-3936,1745145666565400797
175072,241,-97,-117,7019,-1890,-3942,1745145666565400797
175264,242,-123,-130,6930,-2141,-3843,1745145666565400797
175456,228,-136,-134,6911,-2489,-3855,1745145666565400797
175648,210,-150,-154,6887,-2664,-3871,1745145666565400797
175840,171,-138,-182,6864,-2718,-3843,1745145666565400797
176032,119,-111,-209,6819,-2792,-3714,1745145666565400797
176224,66,-94,-235,6762,-2867,-3612,1745145666621193100
176416,30,-95,-254,6721,-2911,-3580,1745145666621193100
176608,16,-97,-264,6773,-2855,-3675,1745145666621193100
176800,2,-82,-267,6878,-2754,-3754,1745145666621193100
176992,-23,-56,-264,6950,-2666,-3718,1745145666621193100
177184,-49,-38,-255,7055,-2627,-3625,1745145666621193100
177376,-58,-33,-242,7110,-2643,-3505,1745145666621193100
177568,-49,-48,-232,7149,-2725,-3443,1745145666621193100
177760,-22,-71,-229,7177,-2753,-3464,1745145666621193100
177952,8,-84,-222,7153,-2718,-3522,1745145666621193100
178144,27,-81,-212,7084,-2666,-3544,1745145666621193100
178336,35,-74,-202,6989,-2665,-3451,1745145666621193100
178528,33,-84,-198,6974,-2696,-3417,1745145666681688433
178720,28,-85,-190,6903,-2743,-3448,1745145666681688433
178912,30,-78,-173,6846,-2850,-3457,1745145666681688433
179104,41,-66,-153,6803,-2905,-3500,1745145666681688433
179296,57,-43,-134,6758,-2907,-3544,1745145666681688433
179488,68,-20,-124,6761,-2885,-3533,1745145666681688433
179680,70,1,-125,6756,-2860,-3510,1745145666681688433
179872,71,22,-133,6774,-2800,-3503,1745145666681688433
180064,80,40,-137,6789,-2746,-3525,1745145666681688433
180256,99,56,-136,6812,-2671,-3495,1745145666681688433
180448,119,65,-134,6881,-2616,-3433,1745145666681688433
180640,130,62,-135,6972,-2685,-3477,1745145666681688433
180832,140,53,-136,7014,-2778,-3538,1745145666737999116
181024,157,45,-132,7017,-2839,-3544,1745145666737999116
181216,176,41,-125,6966,-2841,-3543,1745145666737999116
181408,186,43,-120,6925,-2835,-3559,1745145666737999116
181600,183,48,-118,6919,-2857,-3536,1745145666737999116
181792,172,44,-123,6909,-2884,-3485,1745145666737999116
181984,158,38,-127,6887,-2950,-3458,1745145666737999116
182176,151,37,-123,6867,-2992,-3515,1745145666737999116
182368,152,40,-110,6843,-3008,-3555,1745145666737999116
182560,155,46,-96,6848,-3001,-3564,1745145666737999116
182752,155,49,-83,6861,-2955,-3589,1745145666737999116
182944,157,49,-72,6863,-2931,-3556,1745145666737999116
183136,164,50,-61,6854,-2858,-3547,1745145666798289138
183328,180,52,-50,6841,-2772,-3589,1745145666798289138
183520,205,55,-37,6871,-2688,-3691,1745145666798289138
183712,238,61,-21,6938,-2621,-3727,1745145666798289138
183904,269,73,-8,6999,-2610,-3666,1745145666798289138
184096,296,76,0,7033,-2688,-3572,1745145666798289138
184288,331,58,6,7026,-2770,-3524,1745145666798289138
184480,372,33,13,6983,-2810,-3593,1745145666798289138
184672,407,25,20,6930,-2794,-3690,1745145666798289138
184864,431,36,24,6864,-2788,-3713,1745145666798289138
185056,443,49,21,6798,-2779,-3681,1745145666798289138
185248,455,45,15,6781,-2781,-3711,1745145666798289138
185440,475,32,10,6811,-2829,-3757,1745145666855808457
185632,499,21,7,6898,-2886,-3835,1745145666855808457
185824,511,26,2,6965,-2963,-3822,1745145666855808457
186016,512,36,-2,6981,-3053,-3738,1745145666855808457
186208,516,35,-7,6942,-3142,-3644,1745145666855808457
186400,519,18,-17,6931,-3118,-3660,1745145666855808457
186592,523,-2,-32,6937,-3136,-3738,1745145666855808457
186784,525,-8,-45,6954,-3168,-3786,1745145666855808457
186976,517,-7,-50,7008,-3211,-3775,1745145666855808457
187168,501,-9,-48,7050,-3292,-3707,1745145666855808457
187360,482,-14,-40,7085,-3418,-3626,1745145666855808457
187552,461,-30,-31,7118,-3548,-3572,1745145666855808457
187744,438,-45,-25,7118,-3685,-3509,1745145666912037526
187936,410,-53,-23,7078,-3765,-3486,1745145666912037526
188128,378,-60,-24,7016,-3795,-3471,1745145666912037526
188320,342,-65,-29,6958,-3768,-3494,1745145666912037526
188512,303,-64,-31,6916,-3735,-3506,1745145666912037526
188704,264,-58,-29,6936,-3678,-3501,1745145666912037526
188896,226,-51,-26,6973,-3634,-3451,1745145666912037526
189088,186,-44,-25,7030,-3598,-3394,1745145666912037526
189280,154,-45,-25,7058,-3566,-3361,1745145666912037526
189472,138,-52,-23,7060,-3508,-3346,1745145666912037526
189664,135,-55,-18,7082,-3417,-3365,1745145666912037526
189856,132,-45,-11,7110,-3331,-3340,1745145666912037526
190048,124,-34,-5,7123,-3363,-3286,1745145666973651807
190240,121,-44,1,7133,-3414,-3258,1745145666973651807
190432,130,-68,9,7123,-3442,-3294,1745145666973651807
190624,138,-80,16,7101,-3436,-3332,1745145666973651807
190816,137,-77,19,7075,-3440,-3344,1745145666973651807
191008,128,-64,18,7029,-3461,-3300,1745145666973651807
191200,113,-55,16,6960,-3477,-3242,1745145666973651807
191392,99,-53,17,6901,-3497,-3247,1745145666973651807
191584,88,-50,19,6864,-3458,-3258,1745145666973651807
191776,74,-42,25,6842,-3450,-3265,1745145666973651807
191968,55,-34,31,6869,-3451,-3245,1745145666973651807
192160,35,-32,37,6890,-3461,-3210,1745145666973651807
192352,20,-36,44,-1,-1,-1,1745145667030075406
192544,11,-38,50,6880,-3387,-3199,1745145667030075406
192736,3,-37,55,6852,-3308,-3274,1745145667030075406
192928,-3,-28,56,6834,-3198,-3334,1745145667030075406
193120,-6,-16,56,6825,-3116,-3350,1745145667030075406
193312,-5,-6,54,6833,-3067,-3309,1745145667030075406
193504,0,-4,54,6838,-3020,-3274,1745145667030075406
193696,7,-8,53,6880,-2983,-3229,1745145667030075406
193888,17,-11,54,6885,-2999,-3212,1745145667030075406
194080,29,-16,54,6867,-3023,-3184,1745145667030075406
194272,43,-23,53,6867,-3054,-3192,1745145667030075406
194464,54,-30,52,6837,-3075,-3220,1745145667030075406
194656,62,-31,51,6810,-3068,-3236,1745145667090576572
194848,69,-29,52,6789,-3069,-3264,1745145667090576572
195040,74,-27,54,6782,-3042,-3304,1745145667090576572
195232,79,-23,56,6799,-3014,-3329,1745145667090576572
195424,82,-15,59,6828,-2963,-3331,1745145667090576572
195616,86,-8,60,6846,-2937,-3311,1745145667090576572
195808,93,-8,60,6859,-2897,-3308,1745145667090576572
196000,102,-11,60,6896,-2887,-3297,1745145667090576572
196192,114,-15,62,6857,-2885,-3287,1745145667090576572
196384,125,-18,64,6839,-2877,-3279,1745145667090576572
196576,134,-22,66,6803,-2833,-3292,1745145667090576572
196768,142,-23,67,6797,-2824,-3303,1745145667090576572
196960,150,-20,66,6768,-2812,-3291,1745145667147694592
197152,160,-18,66,6804,-2846,-3268,1745145667147694592
197344,171,-17,64,6813,-2908,-3229,1745145667147694592
197536,181,-20,59,6803,-2953,-3248,1745145667147694592
197728,191,-26,54,6806,-2941,-3269,1745145667147694592
197920,193,-23,50,6839,-2979,-3263,1745145667147694592
198112,187,-16,44,6833,-2971,-3213,1745145667147694592
198304,182,-18,39,6795,-2940,-3191,1745145667147694592
198496,183,-25,36,6785,-2932,-3197,1745145667147694592
198688,185,-28,36,6811,-2910,-3260,1745145667147694592
198880,186,-23,36,6838,-2911,-3277,1745145667147694592
199072,184,-17,34,6872,-2905,-3266,1745145667147694592
199264,181,-18,30,6877,-2904,-3231,1745145667207700242
199456,179,-24,24,6865,-2886,-3220,1745145667207700242
199648,178,-24,19,6865,-2845,-3222,1745145667207700242
199840,176,-21,14,6881,-2853,-3206,1745145667207700242
200032,174,-20,7,6882,-2895,-3175,1745145667207700242
200224,176,-23,0,6870,-2910,-3163,1745145667207700242
200416,176,-27,-6,6902,-2933,-3143,1745145667207700242
200608,171,-26,-12,6927,-3001,-3081,1745145667207700242
200800,160,-25,-20,6916,-3063,-2995,1745145667207700242
200992,151,-32,-26,6872,-3153,-2920,1745145667207700242
201184,144,-41,-26,6845,-3242,-2921,1745145667207700242
201376,136,-45,-26,6823,-3339,-2978,1745145667207700242
201568,125,-43,-21,6787,-3391,-3047,1745145667265043312
201760,112,-35,-15,6746,-3377,-3100,1745145667265043312
201952,95,-22,-12,6715,-3312,-3132,1745145667265043312
202144,79,-6,-8,6715,-3247,-3156,1745145667265043312
202336,69,3,-3,6722,-3195,-3191,1745145667265043312
202528,70,10,5,6771,-3140,-3224,1745145667265043312
202720,80,19,14,6803,-3097,-3225,1745145667265043312
202912,92,30,22,6830,-3016,-3209,1745145667265043312
203104,103,35,28,6834,-2981,-3188,1745145667265043312
203296,117,31,34,6826,-2989,-3174,1745145667265043312
203488,135,24,39,6789,-2981,-3166,1745145667265043312
203680,158,20,44,6754,-2951,-3221,1745145667265043312
203872,187,21,44,6736,-2899,-3259,1745145667324275219
204064,210,29,42,6824,-2933,-3252,1745145667324275219
204256,214,40,38,6879,-3054,-3202,1745145667324275219
204448,226,40,32,6892,-3184,-3132,1745145667324275219
204640,243,31,25,6847,-3244,-3116,1745145667324275219
204832,252,20,13,6807,-3227,-3177,1745145667324275219
205024,249,16,0,6787,-3226,-3270,1745145667324275219
205216,241,24,-8,6782,-3231,-3269,1745145667324275219
205408,231,34,-9,6796,-3263,-3218,1745145667324275219
205600,221,31,-7,6838,-3312,-3169,1745145667324275219
205792,208,17,-1,6853,-3378,-3171,1745145667324275219
205984,197,5,2,6858,-3408,-3193,1745145667324275219
206176,187,6,4,6834,-3393,-3226,1745145667378273736
206368,174,15,5,6819,-3344,-3247,1745145667378273736
206560,158,19,6,6817,-3327,-3226,1745145667378273736
206752,143,21,9,6825,-3294,-3211,1745145667378273736
206944,133,20,12,6809,-3218,-3206,1745145667378273736
207136,130,21,15,6827,-3150,-3198,1745145667378273736
207328,132,24,12,6829,-3087,-3173,1745145667378273736
207520,136,28,7,6842,-3077,-3131,1745145667378273736
207712,146,28,5,6886,-3137,-3071,1745145667378273736
207904,155,23,6,6919,-3278,-3011,1745145667378273736
208096,166,6,9,6895,-3423,-3044,1745145667378273736
208288,177,-13,14,6851,-3484,-3087,1745145667378273736
208480,182,-16,18,6805,-3456,-3171,1745145667446258688
208672,172,-2,18,6745,-3397,-3188,1745145667446258688
208864,155,19,16,6704,-3344,-3182,1745145667446258688
209056,141,33,14,6748,-3297,-3181,1745145667446258688
209248,138,37,17,6812,-3281,-3195,1745145667446258688
209440,140,41,21,6876,-3266,-3197,1745145667446258688
209632,146,45,24,6888,-3207,-3180,1745145667446258688
209824,152,45,23,6874,-3114,-3158,1745145667446258688
210016,158,39,22,6862,-3029,-3147,1745145667446258688
210208,166,31,20,6835,-2983,-3134,1745145667446258688
210400,177,27,18,6827,-2967,-3120,1745145667446258688
210592,188,24,16,6833,-2998,-3076,1745145667446258688
210784,195,25,10,6876,-3071,-3015,1745145667497938372
210784,195,25,10,6876,-3071,-3015,1745145667497938372
211168,205,21,-5,6882,-3207,-2938,1745145667497938372
211360,209,13,-17,6861,-3200,-2986,1745145667497938372
211552,204,10,-29,6860,-3184,-3030,1745145667497938372
211744,197,14,-38,6854,-3122,-3007,1745145667497938372
211936,190,22,-43,6874,-3117,-2947,1745145667497938372
212128,185,22,-47,6893,-3131,-2883,1745145667497938372
212320,186,14,-49,6898,-3160,-2858,1745145667497938372
212512,189,8,-50,6877,-3145,-2889,1745145667497938372
212704,191,10,-51,6846,-3114,-2898,1745145667497938372
212896,192,13,-51,6797,-3080,-2912,1745145667497938372
213088,193,14,-50,6774,-3067,-2903,1745145667560074315
213280,198,13,-49,6773,-3047,-2893,1745145667560074315
213472,203,17,-47,6810,-3081,-2880,1745145667560074315
213664,210,22,-48,6828,-3137,-2871,1745145667560074315
213856,220,23,-50,6837,-3209,-2886,1745145667560074315
214048,230,26,-54,6834,-3203,-2902,1745145667560074315
214240,231,32,-60,6823,-3223,-2903,1745145667560074315
214432,223,39,-65,6828,-3292,-2884,1745145667560074315
214624,218,37,-70,6801,-3342,-2866,1745145667560074315
214816,221,35,-69,6776,-3344,-2891,1745145667560074315
215008,222,41,-67,6781,-3326,-2934,1745145667560074315
215200,216,54,-67,6781,-3301,-2960,1745145667560074315
215392,210,62,-68,6837,-3294,-2944,1745145667621589899
215776,211,65,-66,6882,-3282,-2884,1745145667621589899
215968,217,62,-62,6872,-3275,-2878,1745145667621589899
216160,226,56,-57,6878,-3272,-2916,1745145667621589899
216352,238,54,-53,6875,-3228,-2980,1745145667621589899
216544,248,57,-51,6911,-3270,-2997,1745145667621589899
216736,254,60,-50,6968,-3364,-2956,1745145667621589899
216928,260,57,-50,6951,-3483,-2899,1745145667621589899
217120,267,43,-50,6905,-3570,-2910,1745145667621589899
217312,271,33,-50,6864,-3582,-3007,1745145667621589899
217504,264,34,-51,6807,-3545,-3119,1745145667621589899
217696,251,44,-52,6804,-3534,-3137,1745145667621589899
217888,236,53,-53,6833,-3547,-3104,1745145667679151092
218080,223,52,-52,6858,-3557,-3031,1745145667679151092
218272,215,49,-49,6908,-3578,-2986,1745145667679151092
218464,209,48,-45,6946,-3614,-2992,1745145667679151092
218656,204,47,-41,6974,-3654,-2996,1745145667679151092
218848,198,44,-38,6965,-3650,-2996,1745145667679151092
219040,193,39,-36,6978,-3622,-3010,1745145667679151092
219232,192,32,-33,6960,-3581,-3042,1745145667679151092
219424,195,28,-30,6980,-3509,-3065,1745145667679151092
219616,198,28,-30,6979,-3422,-3093,1745145667679151092
219808,208,31,-28,7013,-3396,-3110,1745145667679151092
220000,229,35,-26,7003,-3375,-3078,1745145667679151092
220192,261,38,-24,7017,-3340,-3073,1745145667743734929
220384,295,42,-19,7016,-3382,-3045,1745145667743734929
220576,332,38,-14,7020,-3452,-3004,1745145667743734929
220768,372,25,-11,6985,-3492,-2993,1745145667743734929
220960,411,12,-5,6953,-3514,-3032,1745145667743734929
221152,443,10,1,6944,-3518,-3071,1745145667743734929
221344,464,17,6,6958,-3531,-3058,1745145667743734929
221536,478,24,11,6972,-3560,-3029,1745145667743734929
221728,491,24,15,7019,-3630,-3040,1745145667743734929
221920,502,20,19,7087,-3728,-3031,1745145667743734929
222112,505,17,22,7114,-3834,-3000,1745145667743734929
222304,497,14,25,7132,-3913,-2955,1745145667743734929
222496,477,7,24,7084,-3982,-2883,1745145667795111334
222688,448,0,23,7049,-4058,-2819,1745145667795111334
222880,416,-5,21,6990,-4090,-2779,1745145667795111334
223072,387,-11,19,6933,-4123,-2766,1745145667795111334
223264,357,-13,17,6916,-4091,-2796,1745145667795111334
223456,317,-8,11,6968,-4057,-2809,1745145667795111334
223648,265,-2,1,7016,-4063,-2759,1745145667795111334
223840,214,-4,-9,7050,-4123,-2663,1745145667795111334
224032,181,-18,-9,7039,-4150,-2621,1745145667795111334
224224,158,-33,-5,7045,-4135,-2663,1745145667795111334
224416,131,-37,1,7028,-4045,-2733,1745145667795111334
224608,100,-32,4,7012,-3955,-2749,1745145667795111334
224800,70,-27,3,6989,-3837,-2740,1745145667860190896
224992,49,-27,1,6958,-3717,-2722,1745145667860190896
225184,37,-30,3,6987,-3651,-2706,1745145667860190896
225376,31,-32,5,7018,-3639,-2713,1745145667860190896
225568,28,-38,5,7057,-3647,-2685,1745145667860190896
225760,28,-45,3,7038,-3629,-2658,1745145667860190896
225952,27,-51,-1,7011,-3578,-2653,1745145667860190896
226144,27,-54,-7,6964,-3533,-2660,1745145667860190896
226336,28,-56,-14,6940,-3482,-2665,1745145667860190896
226528,27,-53,-22,6941,-3507,-2635,1745145667860190896
226720,21,-48,-28,6953,-3635,-2574,1745145667860190896
226912,17,-51,-33,6925,-3713,-2524,1745145667860190896
227104,19,-56,-33,6862,-3725,-2519,1745145667917481571
227296,14,-57,-34,6823,-3698,-2589,1745145667917481571
227488,0,-53,-34,6808,-3630,-2628,1745145667917481571
227680,-15,-43,-33,6803,-3575,-2613,1745145667917481571
227872,-18,-35,-28,6794,-3495,-2589,1745145667917481571
228064,-11,-30,-23,6839,-3414,-2593,1745145667917481571
228256,0,-27,-18,6913,-3384,-2625,1745145667917481571
228448,12,-26,-17,6963,-3373,-2612,1745145667917481571
228640,29,-28,-17,6991,-3391,-2567,1745145667917481571
228832,48,-36,-17,6963,-3381,-2551,1745145667917481571
229024,70,-47,-17,6903,-3377,-2570,1745145667917481571
229216,91,-51,-19,6824,-3349,-2613,1745145667917481571
229408,111,-42,-21,6780,-3303,-2644,1745145667977045454
229600,132,-30,-23,6772,-3301,-2654,1745145667977045454
229792,153,-21,-26,6805,-3317,-2620,1745145667977045454
229984,174,-18,-27,6851,-3366,-2586,1745145667977045454
230176,195,-21,-28,6908,-3421,-2591,1745145667977045454
230368,212,-25,-28,6931,-3447,-2563,1745145667977045454
230560,224,-29,-29,6931,-3480,-2539,1745145667977045454
230752,234,-34,-30,6889,-3497,-2557,1745145667977045454
230944,243,-36,-29,6896,-3529,-2582,1745145667977045454
231136,247,-35,-28,6864,-3581,-2596,1745145667977045454
231328,243,-28,-27,6870,-3646,-2584,1745145667977045454
231520,232,-24,-28,6867,-3681,-2580,1745145667977045454
231712,216,-25,-28,6873,-3729,-2569,1745145668035983509
231904,201,-23,-28,6901,-3790,-2545,1745145668035983509
232096,186,-19,-25,6924,-3821,-2514,1745145668035983509
232288,176,-18,-24,6901,-3834,-2497,1745145668035983509
232480,164,-19,-24,6896,-3834,-2504,1745145668035983509
232672,149,-16,-25,6882,-3840,-2511,1745145668035983509
232864,126,-12,-27,6856,-3838,-2492,1745145668035983509
233056,108,-12,-28,6806,-3825,-2454,1745145668035983509
233248,98,-13,-28,6749,-3722,-2484,1745145668035983509
233440,91,-11,-26,6758,-3672,-2542,1745145668035983509
233632,85,-3,-24,6853,-3660,-2564,1745145668035983509
233824,79,4,-22,6914,-3710,-2511,1745145668035983509
234016,76,0,-22,6937,-3723,-2464,1745145668093174028
234208,75,-9,-22,6965,-3711,-2478,1745145668093174028
234400,69,-16,-23,6950,-3695,-2549,1745145668093174028
234592,64,-16,-23,6938,-3628,-2582,1745145668093174028
234784,61,-8,-25,6925,-3576,-2604,1745145668093174028
234976,59,-3,-26,6934,-3571,-2583,1745145668093174028
235168,59,-2,-29,6963,-3593,-2557,1745145668093174028
235360,62,-5,-31,6975,-3623,-2533,1745145668093174028
235552,64,-11,-32,6974,-3635,-2525,1745145668093174028
235744,63,-15,-35,6931,-3618,-2539,1745145668093174028
235936,58,-19,-35,6920,-3600,-2559,1745145668093174028
236128,52,-20,-36,6915,-3573,-2578,1745145668093174028
236320,47,-19,-38,6920,-3600,-2603,1745145668152719370
236512,43,-18,-41,6954,-3642,-2568,1745145668152719370
236704,41,-18,-45,6974,-3665,-2537,1745145668152719370
236896,40,-21,-50,6940,-3629,-2535,1745145668152719370
237088,36,-23,-55,6933,-3602,-2573,1745145668152719370
237280,28,-19,-60,6969,-3631,-2538,1745145668152719370
237472,21,-18,-64,6968,-3706,-2474,1745145668152719370
237664,23,-27,-64,6940,-3729,-2442,1745145668152719370
237856,27,-38,-62,6916,-3713,-2507,1745145668152719370
238048,25,-36,-61,6880,-3663,-2592,1745145668152719370
238240,21,-23,-62,6857,-3611,-2599,1745145668152719370
238432,22,-10,-60,6838,-3584,-2552,1745145668152719370
238624,29,-6,-58,6852,-3549,-2506,1745145668210023534
238816,37,-7,-55,6906,-3551,-2489,1745145668210023534
239008,47,-7,-50,6936,-3586,-2464,1745145668210023534
239200,62,-8,-45,6929,-3624,-2459,1745145668210023534
239392,81,-11,-39,6921,-3622,-2487,1745145668210023534
239584,92,-10,-34,6912,-3604,-2502,1745145668210023534
239776,99,-5,-31,6889,-3592,-2518,1745145668210023534
239968,109,0,-28,6838,-3565,-2517,1745145668210023534
240160,122,4,-26,6854,-3546,-2532,1745145668210023534
240352,132,12,-24,6876,-3543,-2557,1745145668210023534
240544,139,20,-24,6935,-3598,-2540,1745145668210023534
240736,147,20,-25,6957,-3641,-2523,1745145668210023534
240928,156,14,-26,6986,-3662,-2523,1745145668262986123
241120,162,11,-28,6971,-3654,-2528,1745145668262986123
241312,166,11,-30,6928,-3655,-2524,1745145668262986123
241504,174,13,-32,6886,-3639,-2533,1745145668262986123
241696,183,15,-35,6858,-3619,-2585,1745145668262986123
241888,192,19,-37,6872,-3591,-2617,1745145668262986123
242080,199,28,-38,6913,-3569,-2598,1745145668262986123
242272,204,34,-40,6945,-3603,-2524,1745145668262986123
242464,213,29,-41,6951,-3631,-2478,1745145668262986123
242656,224,17,-40,6948,-3682,-2465,1745145668262986123
242848,231,8,-40,6974,-3724,-2492,1745145668262986123
243040,234,4,-40,6991,-3765,-2519,1745145668262986123
243232,231,5,-38,6962,-3814,-2500,1745145668328445733
243424,225,3,-37,6955,-3869,-2503,1745145668328445733
243616,215,-1,-34,6962,-3907,-2525,1745145668328445733
243808,203,-2,-33,6946,-3943,-2534,1745145668328445733
244000,189,4,-31,6936,-3959,-2516,1745145668328445733
244192,171,10,-28,6895,-3944,-2484,1745145668328445733
244384,153,13,-26,6895,-3893,-2454,1745145668328445733
244576,136,11,-21,6894,-3851,-2477,1745145668328445733
244768,124,12,-15,6923,-3813,-2499,1745145668328445733
244960,113,18,-7,6969,-3802,-2492,1745145668328445733
245152,106,21,-4,7029,-3800,-2447,1745145668328445733
245344,101,16,-1,7042,-3805,-2434,1745145668328445733
245536,98,7,-1,7040,-3810,-2442,1745145668386960980
245728,96,2,-3,7029,-3804,-2492,1745145668386960980
245920,87,3,-10,7032,-3828,-2480,1745145668386960980
246112,74,4,-19,6968,-3869,-2443,1745145668386960980
246304,63,0,-25,6913,-3890,-2402,1745145668386960980
246496,53,-4,-26,6892,-3891,-2424,1745145668386960980
246688,40,-1,-26,6897,-3872,-2464,1745145668386960980
246880,23,6,-26,6894,-3842,-2476,1745145668386960980
247072,9,8,-26,6949,-3839,-2477,1745145668386960980
247264,-1,6,-25,6987,-3847,-2441,1745145668386960980
247456,-7,4,-21,7004,-3809,-2409,1745145668386960980
247648,-9,-2,-17,6971,-3768,-2426,1745145668386960980
247840,-10,-6,-15,6951,-3684,-2476,1745145668443982907
248032,-11,-5,-12,6968,-3634,-2514,1745145668443982907
248224,-10,-1,-10,6977,-3615,-2515,1745145668443982907
248416,-3,-2,-9,6974,-3632,-2492,1745145668443982907
248608,7,-9,-8,6949,-3612,-2486,1745145668443982907
248800,18,-13,-9,6954,-3594,-2527,1745145668443982907
248992,24,-10,-10,6948,-3581,-2528,1745145668443982907
249184,28,-6,-15,6943,-3606,-2491,1745145668443982907
249376,30,-5,-19,6939,-3660,-2430,1745145668443982907
249568,34,-8,-21,6925,-3690,-2375,1745145668443982907
249760,40,-12,-23,6891,-3692,-2398,1745145668443982907
249952,47,-13,-22,6873,-3668,-2465,1745145668443982907
250144,51,-5,-20,6907,-3615,-2514,1745145668503553769
250336,52,6,-20,6934,-3591,-2489,1745145668503553769
250528,53,8,-19,6970,-3581,-2447,1745145668503553769
250720,62,2,-17,6993,-3567,-2447,1745145668503553769
250912,73,-5,-16,7010,-3536,-2482,1745145668503553769
251104,82,-4,-15,7028,-3537,-2511,1745145668503553769
251296,88,0,-14,7016,-3565,-2493,1745145668503553769
251488,93,-3,-16,7013,-3596,-2454,1745145668503553769
251680,97,-12,-17,6983,-3634,-2443,1745145668503553769
251872,99,-18,-20,6943,-3616,-2436,1745145668503553769
252064,100,-17,-23,6892,-3596,-2434,1745145668503553769
252256,100,-12,-27,6854,-3552,-2458,1745145668503553769
252448,97,-7,-31,6874,-3554,-2436,1745145668560642675
252640,92,-4,-34,6921,-3607,-2410,1745145668560642675
252832,90,-6,-36,6967,-3646,-2372,1745145668560642675
253024,87,-13,-37,7005,-3694,-2365,1745145668560642675
253216,80,-19,-38,7041,-3740,-2368,1745145668560642675
253408,68,-24,-39,7046,-3783,-2357,1745145668560642675
253600,56,-25,-41,7022,-3812,-2357,1745145668560642675
253792,42,-25,-43,6975,-3808,-2363,1745145668560642675
253984,26,-22,-44,6924,-3756,-2398,1745145668560642675
254176,10,-15,-45,6869,-3711,-2420,1745145668560642675
254368,3,-9,-45,6836,-3636,-2431,1745145668560642675
254560,8,-5,-42,6828,-3520,-2444,1745145668560642675
254752,20,-1,-39,6876,-3453,-2463,1745145668620568950
254944,37,2,-36,6960,-3487,-2436,1745145668620568950
255136,58,2,-34,7026,-3535,-2385,1745145668620568950
255328,81,-7,-34,7042,-3622,-2333,1745145668620568950
255520,102,-18,-33,7007,-3673,-2338,1745145668620568950
255712,115,-24,-32,6948,-3701,-2389,1745145668620568950
255904,117,-20,-32,6917,-3707,-2420,1745145668620568950
256096,114,-10,-31,6878,-3757,-2425,1745145668620568950
256288,105,-3,-29,6881,-3794,-2414,1745145668620568950
256480,93,0,-27,6911,-3798,-2412,1745145668620568950
256672,77,2,-26,6950,-3779,-2422,1745145668620568950
256864,62,3,-25,7012,-3789,-2417,1745145668620568950
257056,49,1,-25,7058,-3774,-2414,1745145668679461902
257248,39,-4,-26,7066,-3752,-2382,1745145668679461902
257440,33,-9,-29,7030,-3703,-2357,1745145668679461902
257632,32,-14,-33,6960,-3613,-2382,1745145668679461902
257824,32,-13,-39,6914,-3520,-2435,1745145668679461902
258016,35,-8,-44,6942,-3468,-2466,1745145668679461902
258208,42,-3,-47,7011,-3539,-2420,1745145668679461902
258400,54,-8,-49,7045,-3616,-2343,1745145668679461902
258592,66,-20,-54,7063,-3678,-2310,1745145668679461902
258784,74,-31,-60,7019,-3701,-2338,1745145668679461902
258976,72,-33,-66,6988,-3685,-2383,1745145668679461902
259168,66,-26,-69,6943,-3702,-2368,1745145668679461902
259360,63,-20,-67,6905,-3781,-2320,1745145668736321955
259552,60,-22,-62,6900,-3824,-2300,1745145668736321955
259744,55,-23,-55,6930,-3861,-2329,1745145668736321955
259936,42,-20,-51,6939,-3841,-2355,1745145668736321955
260128,25,-15,-47,6948,-3822,-2362,1745145668736321955
260320,12,-11,-42,6953,-3795,-2351,1745145668736321955
260512,6,-10,-38,6971,-3745,-2367,1745145668736321955
260704,4,-8,-35,6995,-3689,-2406,1745145668736321955
260896,3,-3,-35,7023,-3632,-2413,1745145668736321955
261088,4,2,-37,7022,-3609,-2388,1745145668736321955
261280,6,2,-42,7028,-3618,-2333,1745145668736321955
261472,12,-5,-44,7003,-3634,-2313,1745145668736321955
261664,23,-13,-43,6985,-3646,-2319,1745145668796068076
261856,34,-14,-41,6959,-3673,-2337,1745145668796068076
262048,43,-9,-40,6928,-3690,-2339,1745145668796068076
262240,48,-6,-40,6920,-3690,-2342,1745145668796068076
262432,49,-6,-40,6912,-3673,-2352,1745145668796068076
262624,51,-3,-38,6916,-3613,-2394,1745145668796068076
262816,57,6,-33,6935,-3578,-2397,1745145668796068076
263008,66,14,-27,6971,-3550,-2375,1745145668796068076
263200,79,15,-22,7038,-3543,-2349,1745145668796068076
263392,90,9,-21,7099,-3590,-2330,1745145668796068076
263584,96,2,-20,7135,-3681,-2298,1745145668796068076
263776,101,-7,-20,7093,-3744,-2281,1745145668796068076
263968,105,-15,-20,7018,-3770,-2295,1745145668855010402
264160,101,-14,-20,6939,-3771,-2338,1745145668855010402
264352,92,-4,-20,6908,-3767,-2379,1745145668855010402
264544,81,5,-22,6895,-3771,-2379,1745145668855010402
264736,70,12,-25,6925,-3759,-2358,1745145668855010402
264928,57,14,-28,6962,-3770,-2354,1745145668855010402
265120,44,14,-30,7006,-3748,-2342,1745145668855010402
265312,37,14,-30,7006,-3692,-2328,1745145668855010402
265504,36,14,-31,7010,-3640,-2347,1745145668855010402
265696,40,12,-29,7025,-3594,-2354,1745145668855010402
265888,49,9,-30,7015,-3539,-2375,1745145668855010402
266080,61,9,-30,7027,-3549,-2385,1745145668855010402
266272,74,7,-31,7028,-3528,-2380,1745145668911362440
266464,85,7,-33,7039,-3527,-2346,1745145668911362440
266656,97,6,-33,7037,-3526,-2339,1745145668911362440
266848,110,2,-34,7008,-3507,-2338,1745145668911362440
267040,125,-1,-34,6998,-3490,-2350,1745145668911362440
267232,140,1,-34,6983,-3427,-2358,1745145668911362440
267424,155,3,-34,7012,-3402,-2355,1745145668911362440
267616,172,3,-33,7060,-3438,-2331,1745145668911362440
267808,188,-4,-34,7109,-3526,-2305,1745145668911362440
268000,204,-12,-35,7121,-3625,-2263,1745145668911362440
268192,214,-20,-37,7056,-3694,-2247,1745145668911362440
268384,222,-24,-37,6975,-3670,-2292,1745145668911362440
268576,228,-20,-38,6933,-3617,-2355,1745145668971436839
268768,232,-6,-36,6937,-3597,-2350,1745145668971436839
268960,238,9,-33,6960,-3617,-2290,1745145668971436839
269152,249,13,-30,6997,-3636,-2204,1745145668971436839
269344,264,6,-27,6978,-3618,-2191,1745145668971436839
269536,288,2,-22,6930,-3489,-2241,1745145668971436839
269728,331,13,-8,6898,-3342,-2259,1745145668971436839
269920,392,34,10,6906,-3208,-2261,1745145668971436839
270112,465,48,26,6951,-3121,-2219,1745145668971436839
270304,536,46,37,7049,-3098,-2194,1745145668971436839
270496,604,35,43,7134,-3140,-2166,1745145668971436839
270688,671,23,46,7146,-3195,-2140,1745145668971436839
270880,735,13,48,7156,-3228,-2107,1745145669028726263
271072,793,5,49,7156,-3336,-2101,1745145669028726263
271264,835,-2,52,7159,-3494,-2094,1745145669028726263
271456,865,-8,54,7065,-3684,-2023,1745145669028726263
271648,891,-27,52,6979,-3775,-1993,1745145669028726263
271840,894,-36,52,6919,-3863,-2085,1745145669028726263
272032,884,-16,55,6862,-3936,-2082,1745145669028726263
272224,864,-4,59,6854,-3984,-2010,1745145669028726263
272416,848,4,63,6862,-4041,-1951,1745145669028726263
272608,836,11,69,6886,-4035,-1936,1745145669028726263
272800,838,27,74,6846,-3875,-1844,1745145669028726263
272992,858,50,81,6810,-3699,-1717,1745145669028726263
273184,896,61,89,6849,-3527,-1716,1745145669085324965
273376,952,54,100,6910,-3400,-1788,1745145669085324965
273568,1019,40,112,6983,-3259,-1848,1745145669085324965
273760,1105,27,127,7034,-3164,-1776,1745145669085324965
273952,1202,11,143,7129,-3149,-1714,1745145669085324965
274144,1309,-14,154,7218,-3179,-1675,1745145669085324965
274336,1414,-45,163,7251,-3250,-1615,1745145669085324965
274528,1513,-76,167,7244,-3359,-1532,1745145669085324965
274720,1599,-108,169,7251,-3545,-1496,1745145669085324965
274912,1669,-136,173,7195,-3763,-1476,1745145669085324965
275104,1718,-160,175,7140,-4013,-1503,1745145669085324965
275296,1742,-177,174,7080,-4230,-1535,1745145669085324965
275488,1739,-185,169,6998,-4438,-1560,1745145669146904871
275680,1706,-181,162,6907,-4608,-1584,1745145669146904871
275872,1661,-165,155,6821,-4728,-1515,1745145669146904871
276064,1607,-146,141,6743,-4847,-1441,1745145669146904871
276256,1543,-129,120,6721,-4940,-1458,1745145669146904871
276448,1469,-116,100,6729,-5008,-1476,1745145669146904871
276640,1385,-109,83,6765,-5066,-1417,1745145669146904871
276832,1295,-98,62,6789,-5101,-1346,1745145669146904871
277024,1203,-84,43,6759,-5103,-1262,1745145669146904871
277216,1131,-61,29,6716,-5029,-1164,1745145669146904871
277408,1076,-43,22,6692,-4915,-1171,1745145669146904871
277600,1039,-30,19,6705,-4784,-1161,1745145669146904871
277792,1012,-26,17,6810,-4693,-1109,1745145669206798647
277984,989,-33,16,6944,-4634,-1075,1745145669206798647
278176,970,-45,16,7041,-4590,-1068,1745145669206798647
278368,963,-55,18,7047,-4514,-1024,1745145669206798647
278560,973,-61,21,7040,-4442,-952,1745145669206798647
278752,989,-69,25,7016,-4373,-943,1745145669206798647
278944,1004,-81,27,7029,-4328,-970,1745145669206798647
279136,1016,-95,29,7027,-4333,-936,1745145669206798647
279328,1026,-111,32,7008,-4393,-922,1745145669206798647
279520,1035,-125,36,6998,-4463,-946,1745145669206798647
279712,1040,-133,42,6955,-4508,-967,1745145669206798647
279904,1038,-133,48,6893,-4529,-916,1745145669206798647
280096,1031,-127,51,6841,-4539,-842,1745145669262046267
280288,1020,-121,50,6787,-4564,-758,1745145669262046267
280480,1010,-117,47,6740,-4600,-716,1745145669262046267
280672,1010,-111,43,6698,-4587,-677,1745145669262046267
280864,1012,-102,38,6661,-4548,-663,1745145669262046267
281056,1013,-90,33,6662,-4522,-736,1745145669262046267
281248,1017,-75,29,6662,-4483,-764,1745145669262046267
281440,1032,-60,28,6678,-4415,-675,1745145669262046267
281632,1053,-53,30,6756,-4424,-651,1745145669262046267
281824,1080,-57,27,6843,-4449,-676,1745145669262046267
282016,1105,-64,22,6890,-4495,-690,1745145669262046267
282208,1128,-66,14,6875,-4496,-675,1745145669262046267
282400,1151,-65,6,6861,-4544,-579,1745145669323598101
282592,1165,-65,-3,6874,-4638,-542,1745145669323598101
282784,1170,-68,-9,6877,-4766,-482,1745145669323598101
282976,1165,-74,-12,6857,-4878,-397,1745145669323598101
283168,1150,-76,-12,6813,-4994,-360,1745145669323598101
283360,1122,-73,-12,6769,-5080,-361,1745145669323598101
283552,1085,-64,-14,6712,-5100,-357,1745145669323598101
283744,1045,-49,-14,6647,-5070,-342,1745145669323598101
283936,1001,-31,-17,6628,-5052,-331,1745145669323598101
284128,956,-17,-17,6647,-5045,-314,1745145669323598101
284320,910,-8,-15,6686,-5004,-256,1745145669323598101
284512,866,-3,-9,6725,-4989,-165,1745145669323598101
284704,827,5,-2,6735,-4945,-160,1745145669379136448
284896,796,12,5,6742,-4911,-146,1745145669379136448
285088,773,14,11,6761,-4893,-155,1745145669379136448
285280,752,15,14,6782,-4857,-163,1745145669379136448
285472,733,16,16,6791,-4850,-162,1745145669379136448
285664,710,16,15,6808,-4883,-192,1745145669379136448
285856,689,15,14,6838,-4891,-191,1745145669379136448
286048,668,16,14,6831,-4887,-165,1745145669379136448
286240,647,20,14,6811,-4861,-117,1745145669379136448
286432,620,26,12,6796,-4816,-61,1745145669379136448
286624,594,32,8,6763,-4779,18,1745145669379136448
286816,572,35,4,6763,-4819,9,1745145669379136448
287008,554,32,1,6791,-4875,7,1745145669440034016
287200,532,31,1,6809,-4899,20,1745145669440034016
287392,504,34,-1,6790,-4882,12,1745145669440034016
287584,473,44,-3,6774,-4838,-19,1745145669440034016
287776,443,56,-6,6756,-4773,-62,1745145669440034016
287968,419,63,-9,6767,-4717,-20,1745145669440034016
288160,403,67,-11,6805,-4671,52,1745145669440034016
288352,392,64,-14,6846,-4679,83,1745145669440034016
288544,379,55,-17,6917,-4747,80,1745145669440034016
288736,365,42,-20,6928,-4811,69,1745145669440034016
288928,345,36,-23,6904,-4822,95,1745145669440034016
289120,322,37,-25,6818,-4816,151,1745145669440034016
289312,290,38,-29,6785,-4821,119,1745145669493293269
289504,257,38,-33,6764,-4857,96,1745145669493293269
289696,224,38,-33,6799,-4877,120,1745145669493293269
289888,188,39,-31,6821,-4903,135,1745145669493293269
290080,146,43,-28,6856,-4910,111,1745145669493293269
290272,101,44,-26,6865,-4906,102,1745145669493293269
290464,60,42,-28,6851,-4915,127,1745145669493293269
290656,22,38,-30,6860,-4903,139,1745145669493293269
290848,-15,36,-32,6852,-4900,137,1745145669493293269
291040,-53,35,-37,6815,-4901,78,1745145669493293269
291232,-90,37,-41,6794,-4862,90,1745145669493293269
291424,-126,40,-44,6761,-4797,145,1745145669493293269
291616,-157,43,-44,6756,-4717,167,1745145669556764773
291808,-180,45,-42,6742,-4661,166,1745145669556764773
292000,-192,44,-38,6762,-4600,131,1745145669556764773
292192,-196,41,-34,6805,-4543,109,1745145669556764773
292384,-194,40,-33,6847,-4500,118,1745145669556764773
292576,-189,36,-32,6871,-4459,104,1745145669556764773
292768,-177,30,-33,6886,-4440,69,1745145669556764773
292960,-161,25,-37,6891,-4429,51,1745145669556764773
293152,-146,20,-42,6898,-4468,72,1745145669556764773
293344,-134,16,-46,6884,-4496,80,1745145669556764773
293536,-129,14,-51,6862,-4530,56,1745145669556764773
293728,-130,13,-57,6845,-4559,29,1745145669556764773
293920,-134,11,-62,6853,-4599,72,1745145669613985500
294112,-142,9,-65,6869,-4638,87,1745145669613985500
294304,-152,8,-68,6875,-4679,88,1745145669613985500
294496,-166,7,-70,6862,-4684,94,1745145669613985500
294688,-179,10,-73,6809,-4648,93,1745145669613985500
294880,-190,17,-73,6764,-4576,83,1745145669613985500
295072,-198,22,-74,6788,-4531,22,1745145669613985500
295264,-203,22,-75,6848,-4525,-31,1745145669613985500
295456,-205,16,-76,6919,-4562,-49,1745145669613985500
295648,-207,8,-76,7002,-4634,-40,1745145669613985500
295840,-213,2,-78,7033,-4693,-30,1745145669613985500
296032,-222,-1,-81,7000,-4714,12,1745145669613985500
296224,-223,1,-83,6921,-4674,71,1745145669673010846
296416,-214,4,-83,6866,-4635,63,1745145669673010846
296608,-205,4,-83,6874,-4596,-20,1745145669673010846
296800,-200,0,-84,6914,-4572,-56,1745145669673010846
296992,-200,-4,-86,6986,-4566,-55,1745145669673010846
297184,-203,-13,-86,7036,-4592,-23,1745145669673010846
297376,-209,-22,-87,7056,-4609,10,1745145669673010846
297568,-215,-31,-87,7044,-4618,-4,1745145669673010846
297760,-223,-38,-88,7019,-4664,-21,1745145669673010846
297952,-233,-44,-90,6988,-4698,-58,1745145669673010846
298144,-247,-47,-89,6975,-4735,-113,1745145669673010846
298336,-270,-48,-89,6956,-4740,-163,1745145669673010846
298528,-300,-48,-91,6953,-4723,-210,1745145669730750579
298720,-332,-45,-93,6947,-4684,-175,1745145669730750579
298912,-358,-40,-95,6944,-4601,-99,1745145669730750579
299104,-373,-36,-94,6944,-4518,-123,1745145669730750579
299296,-379,-38,-95,6964,-4460,-216,1745145669730750579
299488,-381,-44,-97,7038,-4409,-315,1745145669730750579
299680,-379,-51,-103,7094,-4372,-389,1745145669730750579
299872,-374,-59,-109,7151,-4368,-415,1745145669730750579
300064,-372,-70,-117,7235,-4436,-373,1745145669730750579
300256,-380,-93,-129,7282,-4573,-264,1745145669730750579
300448,-385,-111,-139,7194,-4656,-172,1745145669730750579
300640,-378,-116,-144,7062,-4687,-179,1745145669730750579
300832,-369,-114,-143,6980,-4695,-324,1745145669790124985
301024,-369,-114,-140,6952,-4624,-473,1745145669790124985
301216,-386,-119,-116,7001,-4601,-579,1745145669790124985
301408,-391,-123,-111,7269,-4891,-666,1745145669790124985
301600,-417,-129,-155,7273,-4836,-739,1745145669790124985
301792,-443,-138,-163,7341,-4879,-766,1745145669790124985
301984,-479,-146,-173,7337,-4871,-750,1745145669790124985
302176,-514,-149,-182,7257,-4821,-764,1745145669790124985
302368,-556,-150,-191,7195,-4768,-840,1745145669790124985
302560,-600,-151,-199,7160,-4674,-999,1745145669790124985
302752,-645,-156,-206,7164,-4614,-1175,1745145669790124985
302944,-691,-164,-215,7243,-4529,-1355,1745145669790124985
303136,-742,-176,-228,7372,-4496,-1450,1745145669847209776
303328,-800,-198,-247,7496,-4512,-1523,1745145669847209776
303520,-855,-224,-269,7583,-4525,-1585,1745145669847209776
303712,-903,-251,-291,7597,-4466,-1655,1745145669847209776
303904,-949,-276,-317,7622,-4399,-1762,1745145669847209776
304096,-1002,-301,-346,7642,-4326,-1876,1745145669847209776
304288,-1058,-330,-378,7656,-4266,-1922,1745145669847209776
304480,-1116,-360,-411,7667,-4207,-1929,1745145669847209776
304672,-1168,-393,-443,7630,-4120,-2012,1745145669847209776
304864,-1212,-426,-473,7643,-4042,-2070,1745145669847209776
305056,-1255,-467,-500,7728,-4071,-2027,1745145669847209776
305248,-1295,-518,-526,7824,-4177,-1977,1745145669847209776
305440,-1318,-569,-544,7805,-4242,-1956,1745145669906632046
305632,-1319,-613,-553,7742,-4223,-2087,1745145669906632046
305824,-1318,-648,-561,7701,-4147,-2371,1745145669906632046
306016,-1323,-678,-572,7671,-4096,-2694,1745145669906632046
306208,-1328,-707,-588,7703,-4042,-2993,1745145669906632046
306400,-1333,-730,-603,7756,-4041,-3242,1745145669906632046
306592,-1342,-749,-620,7851,-4021,-3444,1745145669906632046
306784,-1359,-766,-635,7915,-4004,-3503,1745145669906632046
306976,-1381,-797,-652,7950,-3928,-3518,1745145669906632046
307168,-1402,-846,-666,7994,-3873,-3620,1745145669906632046
307360,-1415,-904,-689,8077,-3804,-3837,1745145669906632046
307552,-1444,-956,-728,8387,-3653,-4537,1745145669906632046
307744,-1520,-897,-762,8382,-3317,-4404,1745145669965926348
307936,-1591,-828,-740,8369,-3347,-4235,1745145669965926348
308128,-1659,-847,-763,8456,-3351,-4178,1745145669965926348
308320,-1704,-888,-806,8591,-3194,-4370,1745145669965926348
308512,-1744,-918,-825,8670,-3194,-4286,1745145669965926348
308704,-1761,-962,-853,8756,-3183,-4148,1745145669965926348
308896,-1767,-1015,-882,8899,-3138,-4060,1745145669965926348
309088,-1762,-1075,-905,9033,-3167,-3911,1745145669965926348
309280,-1756,-1149,-944,9204,-3142,-3788,1745145669965926348
309472,-1747,-1235,-1000,9298,-3124,-3704,1745145669965926348
309664,-1712,-1311,-1056,9272,-2796,-3956,1745145669965926348
309856,-1681,-1354,-1072,9231,-2656,-3909,1745145669965926348
310048,-1626,-1415,-1108,9183,-2349,-4115,1745145670025177786
310240,-1551,-1476,-1141,9203,-2025,-4384,1745145670025177786
310432,-1465,-1542,-1173,9298,-1743,-4633,1745145670025177786
310624,-1374,-1614,-1210,9438,-1501,-4861,1745145670025177786
310816,-1274,-1685,-1251,9546,-1331,-4998,1745145670025177786
311008,-1166,-1750,-1288,9630,-1196,-5135,1745145670025177786
311200,-1059,-1811,-1321,9745,-1098,-5341,1745145670025177786
311392,-957,-1871,-1352,9803,-1102,-5500,1745145670025177786
311584,-860,-1933,-1383,9846,-1090,-5596,1745145670025177786
311776,-764,-1986,-1409,9833,-1066,-5650,1745145670025177786
311968,-672,-2028,-1428,9850,-1121,-5752,1745145670025177786
312160,-594,-2077,-1444,9914,-1195,-5795,1745145670025177786
312352,-528,-2133,-1464,9978,-1312,-5717,1745145670080445614
312544,-467,-2202,-1487,10011,-1369,-5587,1745145670080445614
312736,-415,-2276,-1517,10075,-1461,-5506,1745145670080445614
312928,-372,-2346,-1549,10108,-1559,-5468,1745145670080445614
313120,-343,-2422,-1574,10157,-1600,-5399,1745145670080445614
313312,-320,-2504,-1593,10175,-1594,-5302,1745145670080445614
313504,-305,-2585,-1602,10136,-1551,-5310,1745145670080445614
313696,-300,-2664,-1601,10018,-1397,-5374,1745145670080445614
313888,-299,-2732,-1591,9777,-1224,-5529,1745145670080445614
314080,-300,-2791,-1568,9603,-1046,-5758,1745145670080445614
314272,-296,-2838,-1539,9453,-828,-5925,1745145670080445614
314464,-281,-2876,-1518,9419,-609,-5905,1745145670080445614
314656,-252,-2918,-1515,9492,-436,-5945,1745145670140775063
314848,-222,-2982,-1530,9663,-412,-6034,1745145670140775063
315040,-186,-3076,-1564,9750,-382,-5903,1745145670140775063
315232,-135,-3178,-1619,9741,-269,-5984,1745145670140775063
315424,-92,-3278,-1672,9591,-78,-5887,1745145670140775063
315616,-56,-3368,-1725,9402,55,-5763,1745145670140775063
315808,-29,-3448,-1786,9167,219,-5708,1745145670140775063
316000,-7,-3512,-1855,8866,397,-5727,1745145670140775063
316192,8,-3571,-1915,8554,724,-5680,1745145670140775063
316384,18,-3637,-1951,8314,1023,-5768,1745145670140775063
316576,30,-3690,-1990,8186,1202,-5891,1745145670140775063
316768,20,-3729,-2064,8084,1414,-5946,1745145670140775063
316960,-12,-3755,-2143,7951,1628,-5902,1745145670199169842
317152,-55,-3778,-2224,7535,1575,-5113,1745145670199169842
317344,-57,-3930,-2321,7474,1975,-5352,1745145670199169842
317536,-80,-4070,-2402,7376,2080,-5510,1745145670199169842
317728,-100,-4122,-2476,7034,2283,-5443,1745145670199169842
317920,-139,-4164,-2553,6620,2389,-5280,1745145670199169842
318112,-182,-4202,-2619,6224,2370,-5258,1745145670199169842
318304,-225,-4224,-2661,5717,2199,-5251,1745145670199169842
318496,-283,-4220,-2686,5148,2009,-5233,1745145670199169842
318688,-366,-4183,-2690,4440,1841,-5417,1745145670199169842
318880,-457,-4090,-2672,3659,1680,-5579,1745145670199169842
319072,-558,-3959,-2651,2962,1535,-5600,1745145670199169842
319264,-671,-3803,-2635,2396,1400,-5516,1745145670257937847
319456,-785,-3634,-2622,1954,1219,-5472,1745145670257937847
319648,-878,-3464,-2613,1619,1118,-5337,1745145670257937847
319840,-948,-3295,-2606,1350,1090,-5138,1745145670257937847
320032,-1005,-3121,-2613,1132,1151,-4843,1745145670257937847
320224,-1053,-2955,-2633,902,1224,-4546,1745145670257937847
320416,-1077,-2795,-2656,749,1337,-4272,1745145670257937847
320608,-1057,-2635,-2666,619,1491,-4073,1745145670257937847
320800,-993,-2480,-2659,464,1748,-3990,1745145670257937847
320992,-895,-2329,-2654,304,2045,-3930,1745145670257937847
321184,-776,-2180,-2656,229,2340,-3859,1745145670257937847
321376,-643,-2042,-2659,228,2518,-3731,1745145670257937847
321568,-490,-1916,-2664,184,2648,-3663,1745145670315928307
321760,-307,-1792,-2665,152,2728,-3600,1745145670315928307
321952,-100,-1676,-2659,162,2740,-3598,1745145670315928307
322144,113,-1565,-2650,187,2641,-3655,1745145670315928307
322336,310,-1464,-2639,261,2401,-3689,1745145670315928307
322528,485,-1372,-2626,329,2088,-3743,1745145670315928307
322720,635,-1284,-2612,314,1799,-3799,1745145670315928307
322912,758,-1194,-2596,227,1563,-3855,1745145670315928307
323104,854,-1094,-2585,101,1356,-3913,1745145670315928307
323296,933,-989,-2573,57,1134,-4010,1745145670315928307
323488,991,-891,-2561,101,855,-4082,1745145670315928307
323680,1023,-809,-2550,135,549,-3957,1745145670315928307
323872,1030,-737,-2538,109,370,-3970,1745145670374639854
324064,1027,-663,-2523,3,242,-4076,1745145670374639854
324256,1017,-591,-2500,-44,144,-4135,1745145670374639854
324448,993,-518,-2469,-34,47,-4246,1745145670374639854
324640,957,-453,-2431,-6,-18,-4407,1745145670374639854
324832,918,-389,-2383,5,-74,-4451,1745145670374639854
325024,871,-330,-2322,36,-155,-4583,1745145670374639854
325216,818,-273,-2251,43,-264,-4772,1745145670374639854
325408,765,-219,-2174,15,-355,-5025,1745145670374639854
325600,710,-165,-2097,4,-492,-5300,1745145670374639854
325792,658,-111,-2020,32,-636,-5551,1745145670374639854
325984,610,-55,-1945,43,-765,-5788,1745145670374639854
326176,567,5,-1870,57,-882,-5985,1745145670433357286
326368,538,72,-1798,27,-937,-6112,1745145670433357286
326560,527,149,-1728,54,-906,-6218,1745145670433357286
326752,532,232,-1659,102,-826,-6330,1745145670433357286
326944,546,311,-1592,243,-714,-6456,1745145670433357286
327136,566,377,-1536,422,-598,-6516,1745145670433357286
327328,582,422,-1491,654,-499,-6489,1745145670433357286
327520,595,449,-1452,852,-451,-6447,1745145670433357286
327712,614,462,-1414,1002,-414,-6381,1745145670433357286
327904,635,454,-1374,1150,-398,-6353,1745145670433357286
328096,656,434,-1329,1354,-533,-6494,1745145670433357286
328288,672,410,-1285,1487,-665,-6567,1745145670433357286
328480,670,380,-1237,1572,-893,-6668,1745145670486398833
328672,656,345,-1186,1620,-1103,-6738,1745145670486398833
328864,648,348,-1124,1814,-1163,-7554,1745145670486398833
329056,556,446,-1066,1635,-1484,-7089,1745145670486398833
329248,516,474,-1026,1634,-1621,-7233,1745145670486398833
329440,483,499,-987,1662,-1716,-7449,1745145670486398833
329632,433,539,-950,1730,-1800,-7497,1745145670486398833
329824,383,583,-913,1846,-1885,-7617,1745145670486398833
330016,335,629,-877,1944,-1871,-7637,1745145670486398833
330208,294,678,-845,2057,-1772,-7688,1745145670486398833
330400,258,721,-817,2159,-1617,-7686,1745145670486398833
330592,228,752,-797,2294,-1426,-7675,1745145670486398833
330784,204,774,-783,2434,-1351,-7640,1745145670549876222
330976,192,782,-772,2571,-1285,-7592,1745145670549876222
331168,195,775,-762,2713,-1322,-7609,1745145670549876222
331360,203,758,-747,2861,-1353,-7664,1745145670549876222
331552,203,739,-728,2981,-1411,-7737,1745145670549876222
331744,193,716,-715,3049,-1464,-7739,1745145670549876222
331936,176,690,-710,3077,-1530,-7723,1745145670549876222
332128,158,668,-704,3058,-1546,-7744,1745145670549876222
332320,134,648,-693,2989,-1536,-7796,1745145670549876222
332512,109,627,-677,2921,-1462,-7828,1745145670549876222
332704,78,607,-656,2874,-1382,-7852,1745145670549876222
332896,43,589,-633,2821,-1343,-7861,1745145670549876222
333088,10,572,-611,2783,-1306,-7809,1745145670607968347
333280,-23,566,-583,2739,-1319,-7773,1745145670607968347
333472,-52,560,-551,2712,-1327,-7772,1745145670607968347
333664,-75,547,-522,2721,-1305,-7773,1745145670607968347
333856,-105,536,-501,2686,-1259,-7758,1745145670607968347
334048,-142,538,-478,2660,-1155,-7779,1745145670607968347
334240,-169,551,-449,2587,-892,-7920,1745145670607968347
334432,-181,578,-409,2634,-605,-7739,1745145670607968347
334624,-124,590,-353,2739,-386,-8030,1745145670607968347
334816,49,569,-277,3011,-249,-8593,1745145670607968347
335008,316,478,-194,3516,-385,-8963,1745145670607968347
335200,613,339,-134,4017,-702,-9275,1745145670607968347
335392,848,210,-104,4345,-1095,-9463,1745145670666652863
335584,972,99,-88,4426,-1513,-9619,1745145670666652863
335776,994,-3,-62,4246,-1941,-9719,1745145670666652863
335968,925,-105,-16,3839,-2326,-9792,1745145670666652863
336160,782,-194,47,3255,-2600,-9792,1745145670666652863
336352,582,-267,118,2642,-2713,-9741,1745145670666652863
336544,341,-321,184,2121,-2727,-9711,1745145670666652863
336736,68,-368,243,1710,-2644,-9717,1745145670666652863
336928,-202,-421,295,1499,-2710,-9850,1745145670666652863
337120,-442,-451,290,1297,-2445,-9901,1745145670666652863
337312,-645,-461,277,1018,-1984,-9617,1745145670666652863
337504,-783,-465,268,738,-1323,-9339,1745145670666652863
337696,-862,-450,252,525,-613,-8912,1745145670724738114
337888,-883,-428,228,335,81,-8557,1745145670724738114
338080,-858,-397,203,183,647,-8293,1745145670724738114
338272,-802,-368,183,69,1015,-7928,1745145670724738114
338464,-720,-350,167,19,1270,-7643,1745145670724738114
338656,-623,-341,153,-51,1412,-7475,1745145670724738114
338848,-526,-337,139,-106,1473,-7302,1745145670724738114
339040,-446,-334,122,-165,1421,-7219,1745145670724738114
339232,-391,-332,102,-232,1274,-7229,1745145670724738114
339424,-361,-325,84,-273,981,-7277,1745145670724738114
339616,-346,-314,74,-259,574,-7372,1745145670724738114
339808,-340,-297,72,-161,102,-7510,1745145670724738114
340000,-342,-274,73,-20,-333,-7681,1745145670783458463
340192,-356,-244,76,166,-700,-7847,1745145670783458463
340384,-378,-210,82,329,-936,-7962,1745145670783458463
340576,-406,-183,87,511,-1054,-8060,1745145670783458463
340768,-438,-161,88,651,-1079,-8109,1745145670783458463
340960,-471,-145,88,767,-1002,-8123,1745145670783458463
341152,-497,-136,89,842,-835,-8128,1745145670783458463
341344,-517,-136,93,873,-607,-8145,1745145670783458463
341536,-531,-139,100,866,-354,-8189,1745145670783458463
341728,-538,-144,108,832,-72,-8260,1745145670783458463
341920,-542,-149,116,810,204,-8362,1745145670783458463
342112,-544,-153,121,765,454,-8464,1745145670783458463
342304,-543,-155,125,715,717,-16988,1745145670840322683
342496,-538,-156,127,656,972,-8590,1745145670840322683
342688,-522,-157,128,611,1196,-8624,1745145670840322683
342880,-494,-156,128,571,1392,-8594,1745145670840322683
343072,-454,-155,127,534,1506,-8569,1745145670840322683
343264,-405,-153,123,507,1575,-8555,1745145670840322683
343456,-356,-151,117,516,1571,-8516,1745145670840322683
343648,-305,-149,111,506,1491,-8468,1745145670840322683
343840,-258,-148,104,537,1330,-8416,1745145670840322683
344032,-214,-149,98,553,1117,-8364,1745145670840322683
344224,-178,-149,91,554,915,-8313,1745145670840322683
344416,-152,-151,87,552,696,-8261,1745145670840322683
344608,-140,-153,88,526,560,-8191,1745145670900435467
344800,-138,-155,91,487,488,-8109,1745145670900435467
344992,-141,-155,98,429,426,-8046,1745145670900435467
345184,-151,-153,105,365,459,-8021,1745145670900435467
345376,-158,-145,112,276,521,-8004,1745145670900435467
345568,-160,-136,116,218,565,-7986,1745145670900435467
345760,-160,-121,119,185,651,-7993,1745145670900435467
345952,-155,-109,120,171,718,-8062,1745145670900435467
346144,-148,-94,120,206,752,-8090,1745145670900435467
346336,-140,-82,116,247,774,-8144,1745145670900435467
346528,-134,-74,109,309,792,-8193,1745145670900435467
346720,-129,-70,105,366,770,-8223,1745145670900435467
346912,-124,-73,104,406,768,-8246,1745145670958954412
347104,-121,-77,103,467,751,-8257,1745145670958954412
347296,-119,-83,102,470,751,-8254,1745145670958954412
347488,-118,-91,103,473,741,-8245,1745145670958954412
347680,-121,-93,105,459,730,-8236,1745145670958954412
347872,-126,-97,107,454,738,-8225,1745145670958954412
348064,-133,-101,108,445,745,-8225,1745145670958954412
348256,-144,-105,107,413,747,-8202,1745145670958954412
348448,-150,-109,109,397,738,-8189,1745145670958954412
348640,-156,-112,113,377,747,-8161,1745145670958954412
348832,-161,-114,118,339,772,-8140,1745145670958954412
349024,-167,-117,122,324,791,-8104,1745145670958954412
349216,-174,-121,124,335,810,-8069,1745145671016432897
349408,-177,-125,123,318,790,-8056,1745145671016432897
349600,-180,-129,121,329,756,-8067,1745145671016432897
349792,-184,-133,118,326,739,-8071,1745145671016432897
349984,-191,-136,116,336,700,-8095,1745145671016432897
350176,-201,-139,117,349,703,-8105,1745145671016432897
350368,-214,-144,118,384,687,-8112,1745145671016432897
350560,-231,-150,121,395,693,-8101,1745145671016432897
350752,-250,-157,126,402,725,-8091,1745145671016432897
350944,-274,-166,130,396,779,-8103,1745145671016432897
351136,-298,-173,134,369,836,-8121,1745145671016432897
351328,-318,-183,138,370,919,-8121,1745145671016432897
351520,-331,-197,138,338,977,-8084,1745145671075119965
351712,-338,-207,136,303,1010,-8051,1745145671075119965
351904,-337,-218,131,264,1059,-8026,1745145671075119965
352096,-330,-225,124,200,1099,-8004,1745145671075119965
352288,-315,-231,117,164,1105,-7941,1745145671075119965
352480,-298,-229,107,124,1137,-7925,1745145671075119965
352672,-278,-228,98,79,1120,-7931,1745145671075119965
352864,-256,-224,91,52,1111,-7930,1745145671075119965
353056,-236,-217,85,44,1103,-7943,1745145671075119965
353248,-219,-210,81,43,1124,-7967,1745145671075119965
353440,-203,-202,76,41,1113,-8006,1745145671075119965
353632,-189,-195,69,46,1101,-8029,1745145671075119965
353824,-174,-190,62,41,1115,-8051,1745145671133275528
354016,-162,-186,57,57,1079,-8083,1745145671133275528
354208,-153,-184,50,48,1069,-8078,1745145671133275528
354400,-145,-182,41,30,1059,-8071,1745145671133275528
354592,-140,-180,32,-6,1033,-8086,1745145671133275528
354784,-134,-175,25,-42,1021,-8106,1745145671133275528
354976,-131,-168,18,-79,993,-8094,1745145671133275528
355168,-132,-161,8,-98,995,-8077,1745145671133275528
355360,-134,-150,-2,-116,1005,-8078,1745145671133275528
355552,-135,-139,-10,-140,1009,-8090,1745145671133275528
355744,-135,-127,-17,-139,1034,-8087,1745145671133275528
355936,-134,-114,-24,-135,1070,-8101,1745145671133275528
356128,-132,-102,-31,-135,1110,-8112,1745145671191995408
356320,-128,-90,-38,-131,1139,-8105,1745145671191995408
356512,-121,-79,-46,-120,1158,-8114,1745145671191995408
356704,-112,-72,-54,-105,1186,-8095,1745145671191995408
356896,-101,-63,-63,-107,1221,-8076,1745145671191995408
357088,-91,-54,-71,-100,1218,-8067,1745145671191995408
357280,-81,-46,-79,-107,1222,-8052,1745145671191995408
357472,-67,-38,-88,-113,1216,-8038,1745145671191995408
357664,-54,-29,-95,-103,1206,-8033,1745145671191995408
357856,-44,-20,-100,-109,1190,-8032,1745145671191995408
358048,-36,-12,-107,-99,1193,-8046,1745145671191995408
358240,-32,-3,-115,-102,1178,-8043,1745145671191995408
358432,-30,4,-123,-91,1182,-8062,1745145671249134053
358624,-29,9,-129,-90,1165,-8059,1745145671249134053
358816,-29,16,-134,-64,1166,-8078,1745145671249134053
359008,-44,16,-141,89,896,-8059,1745145671249134053
359200,-79,-3,-150,156,808,-7999,1745145671249134053
359392,-119,-14,-151,261,651,-8150,1745145671249134053
359584,-211,-56,-153,532,319,-8171,1745145671249134053
359776,-285,-99,-150,477,435,-8106,1745145671249134053
359968,-299,-138,-136,299,954,-8038,1745145671249134053
360160,-261,-157,-117,76,1591,-7944,1745145671249134053
360352,-199,-146,-95,-146,2035,-7911,1745145671249134053
360544,-131,-128,-85,-332,2183,-7893,1745145671249134053
360736,-78,-103,-98,-486,2089,-7902,1745145671303966312
360928,-35,-70,-130,-606,1876,-7899,1745145671303966312
361120,2,-30,-165,-695,1672,-7910,1745145671303966312
361312,36,19,-188,-753,1522,-7890,1745145671303966312
361504,68,71,-191,-750,1454,-7918,1745145671303966312
361696,91,120,-185,-640,1428,-7944,1745145671303966312
361888,108,156,-182,-468,1436,-7949,1745145671303966312
362080,117,179,-182,-294,1431,-7960,1745145671303966312
362272,121,183,-174,-170,1363,-7975,1745145671303966312
362464,129,183,-168,-61,1251,-8075,1745145671303966312
362656,132,191,-172,-53,1252,-8038,1745145671303966312
362848,133,194,-170,-35,1227,-8054,1745145671303966312
363040,132,191,-165,-8,1180,-8061,1745145671367686043
363232,122,188,-161,67,1114,-8091,1745145671367686043
363424,101,175,-159,156,991,-8110,1745145671367686043
363616,77,158,-158,180,978,-8106,1745145671367686043
363808,57,142,-153,184,1004,-8098,1745145671367686043
364000,48,131,-146,72,1170,-8044,1745145671367686043
364192,60,133,-133,22,1374,-8073,1745145671367686043
364384,72,126,-122,124,1369,-8113,1745145671367686043
364576,75,120,-120,217,1316,-8126,1745145671367686043
364768,77,102,-123,244,1230,-8133,1745145671367686043
364960,76,82,-127,257,1185,-8131,1745145671367686043
365152,73,64,-129,241,1156,-8101,1745145671367686043
365536,72,34,-114,227,1226,-8065,1745145671430567656
365728,74,22,-103,181,1254,-8043,1745145671430567656
365920,79,12,-92,135,1269,-8005,1745145671430567656
366112,85,3,-84,137,1267,-7980,1745145671430567656
366304,89,-12,-79,155,1223,-7964,1745145671430567656
366496,91,-25,-77,142,1167,-7987,1745145671430567656
366688,87,-35,-77,121,1110,-7999,1745145671430567656
366880,79,-45,-75,125,1073,-8021,1745145671430567656
367072,68,-51,-69,131,1018,-8055,1745145671430567656
367264,52,-59,-59,158,1010,-8072,1745145671430567656
367456,34,-69,-47,161,1013,-8091,1745145671430567656
367648,18,-80,-34,167,1036,-8094,1745145671430567656
367840,3,-90,-23,-85,-1,-1,1745145671489295088
368032,-10,-101,-17,146,1081,-8094,1745145671489295088
368224,-18,-112,-14,112,1118,-8074,1745145671489295088
368416,-19,-121,-12,59,1179,-8034,1745145671489295088
368608,-13,-126,-9,-11,1266,-7969,1745145671489295088
368800,-4,-123,-7,-128,1306,-7955,1745145671489295088
368992,6,-117,-7,-143,1251,-7982,1745145671489295088
369184,7,-118,-10,-93,1105,-8004,1745145671489295088
369376,-5,-119,-11,-81,959,-8049,1745145671489295088
369568,-20,-117,-11,-106,905,-8071,1745145671489295088
369760,-35,-107,-5,-148,902,-8088,1745145671489295088
369952,-52,-94,3,-187,928,-8097,1745145671489295088
370144,-70,-83,9,-193,916,-8124,1745145671547507577
370336,-91,-76,10,-156,935,-8159,1745145671547507577
370528,-112,-71,10,-133,933,-8176,1745145671547507577
370720,-132,-66,8,-127,950,-8172,1745145671547507577
370912,-151,-60,7,-137,995,-8158,1745145671547507577
371104,-168,-56,8,-120,1033,-8133,1745145671547507577
371296,-185,-51,9,-114,1095,-8109,1745145671547507577
371488,-197,-49,11,-128,1179,-8091,1745145671547507577
371680,-202,-50,12,-111,1207,-8106,1745145671547507577
371872,-205,-49,10,-100,1238,-8103,1745145671547507577
372064,-204,-49,7,-104,1263,-8098,1745145671547507577
372256,-200,-46,2,-99,1317,-8084,1745145671547507577
372448,-186,-45,2,-100,1371,-8078,1745145671606192249
372640,-168,-45,7,-89,1419,-8070,1745145671606192249
372832,-149,-46,15,-95,1460,-8057,1745145671606192249
373024,-129,-49,23,-87,1490,-8051,1745145671606192249
373216,-109,-52,27,-97,1481,-8039,1745145671606192249
373408,-90,-48,27,-154,1443,-8024,1745145671606192249
373600,-72,-42,25,-221,1426,-8000,1745145671606192249
373792,-58,-32,21,-269,1384,-7988,1745145671606192249
373984,-48,-20,16,-307,1352,-8001,1745145671606192249
374176,-41,-4,16,-319,1327,-7981,1745145671606192249
374368,-37,11,17,-307,1298,-7953,1745145671606192249
374560,-34,22,18,-248,1288,-7925,1745145671606192249
374752,-35,29,20,-223,1236,-7952,1745145671665561551
374944,-42,36,21,-212,1153,-7956,1745145671665561551
375136,-48,44,22,-242,1190,-7989,1745145671665561551
375328,-52,54,25,-208,1248,-7992,1745145671665561551
375520,-55,63,25,-157,1282,-8028,1745145671665561551
375712,-58,61,23,-78,1295,-8053,1745145671665561551
375904,-60,55,20,-45,1335,-8034,1745145671665561551
376096,-53,48,21,-70,1433,-7969,1745145671665561551
376288,-38,45,26,-80,1495,-7922,1745145671665561551
376480,-21,42,29,-101,1515,-7919,1745145671665561551
376672,-5,39,28,-90,1458,-7926,1745145671665561551
376864,9,36,24,-98,1406,-7935,1745145671665561551
377056,18,34,21,-105,1310,-7956,1745145671724185338
377248,22,35,19,-98,1232,-7976,1745145671724185338
377440,17,37,17,-111,1171,-7989,1745145671724185338
377632,9,41,19,-112,1167,-7992,1745145671724185338
377824,1,43,21,-111,1194,-7981,1745145671724185338
378016,-4,45,25,-129,1269,-7920,1745145671724185338
378208,-1,51,27,-187,1357,-7871,1745145671724185338
378400,4,58,28,-184,1359,-7861,1745145671724185338
378592,2,61,24,-109,1221,-7874,1745145671724185338
378784,-13,56,18,-38,1085,-7902,1745145671724185338
378976,-30,47,17,46,1099,-7920,1745145671724185338
379168,-44,33,23,133,1092,-7945,1745145671724185338
380128,-113,-18,18,-74,1180,-8124,1745145673556530943
449440,-22,46,1,-65,1669,-7996,1745145673556530943
449632,194,-93,24,18,683,-8081,1745145673556530943
449824,-103,59,-10,12,767,-8209,1745145673556530943
450016,-146,45,-13,-63,1075,-8083,1745145673556530943
450208,-179,85,-4,-140,1266,-8041,1745145673556530943
450400,-157,69,-1,-132,1391,-8095,1745145673556530943
450592,-168,79,-8,-48,1342,-8042,1745145673556530943
450784,-164,86,-18,-41,1402,-8012,1745145673556530943
450976,-143,63,-23,-70,1606,-7880,1745145673556530943
451168,-122,78,-16,-101,1756,-7839,1745145673556530943
451360,-83,77,-10,-68,1678,-7891,1745145673556530943
451552,-64,73,-13,-68,1550,-7957,1745145673617431741
451744,-49,80,-16,-71,1558,-8031,1745145673617431741
451936,-21,79,-20,-45,1651,-8123,1745145673617431741
452128,11,77,-21,46,1737,-8308,1745145673617431741
452320,45,72,-24,168,1736,-8471,1745145673617431741
452512,79,61,-33,241,1793,-8607,1745145673617431741
452704,113,51,-45,325,1903,-8710,1745145673617431741
452896,161,35,-54,416,2081,-8746,1745145673617431741
453088,223,7,-62,515,2190,-8726,1745145673617431741
453280,288,-20,-70,545,2147,-8695,1745145673617431741
453472,352,-56,-80,553,2016,-8597,1745145673617431741
453664,406,-88,-85,464,1776,-8152,1745145673617431741
453856,353,-147,-98,479,887,-8891,1745145673673042639
454048,463,-161,-86,244,1998,-7473,1745145673673042639
454240,500,-146,-46,-122,1710,-7659,1745145673673042639
454432,607,-111,-46,-196,1549,-7965,1745145673673042639
454624,634,-105,-60,-163,1302,-7627,1745145673673042639
454816,667,-83,-85,-251,1088,-7608,1745145673673042639
455008,673,-73,-108,-344,950,-7607,1745145673673042639
455200,664,-42,-126,-423,795,-7658,1745145673673042639
455392,605,3,-138,-647,477,-8430,1745145673673042639
455584,200,209,-135,-2774,-3341,-6736,1745145673673042639
455776,63,401,-195,-2731,-1852,-7435,1745145673673042639
455968,-70,520,-109,-2003,-517,-7275,1745145673673042639
456160,-98,644,4,-1236,795,-7132,1745145673734220779
456352,-29,716,67,-334,1810,-6809,1745145673734220779
456544,116,760,24,793,2284,-6217,1745145673734220779
456736,307,733,-75,1676,2676,-6579,1745145673734220779
456928,546,584,-106,3253,2133,-8744,1745145673734220779
457120,635,346,-173,4931,1505,-10350,1745145673734220779
457312,550,4,-218,6160,843,-10626,1745145673734220779
457504,364,-376,-266,6663,523,-10557,1745145673734220779
457696,144,-680,-363,6805,795,-8775,1745145673734220779
457888,-278,-601,-485,5183,1818,-5307,1745145673734220779
458080,-1008,-668,-698,4732,2181,-7801,1745145673734220779
458272,-1370,-764,-976,4019,3920,-6622,1745145673734220779
458464,-1462,-755,-1206,3308,5073,-6049,1745145673792399518
458656,-1299,-798,-1456,2971,5903,-5445,1745145673792399518
458848,-950,-852,-1651,3276,6044,-5178,1745145673792399518
459040,-679,-1021,-1729,4339,4610,-5961,1745145673792399518
459232,-583,-1231,-1768,4794,3347,-6765,1745145673792399518
459424,-693,-1331,-1745,4240,2619,-6954,1745145673792399518
459616,-772,-1266,-1714,2892,2783,-6792,1745145673792399518
459808,-688,-1099,-1706,1572,3563,-6468,1745145673792399518
460000,-446,-907,-1692,941,4176,-6419,1745145673792399518
460192,-158,-771,-1669,1066,4409,-6362,1745145673792399518
460384,117,-691,-1628,1461,4154,-6421,1745145673792399518
460576,369,-650,-1575,1752,3584,-6437,1745145673792399518
460768,600,-588,-1515,1537,2829,-5915,1745145673852616989
460960,833,-485,-1414,1190,1863,-5361,1745145673852616989
461152,1024,-361,-1268,919,598,-4938,1745145673852616989
461344,1126,-222,-1102,559,-859,-4622,1745145673852616989
461536,1090,-73,-893,499,-2657,-4523,1745145673852616989
461728,889,88,-736,334,-4303,-4473,1745145673852616989
461920,539,270,-646,63,-5524,-4268,1745145673852616989
462112,105,493,-621,-279,-6032,-4127,1745145673852616989
462304,-318,742,-524,-658,-6084,-3814,1745145673852616989
462496,-675,972,-357,-618,-5912,-3643,1745145673852616989
462688,-984,1183,-188,-346,-5604,-3473,1745145673852616989
462880,-1239,1370,-15,56,-5212,-3359,1745145673852616989
463072,-1434,1535,157,443,-4799,-3280,1745145673908687466
463264,-1565,1678,339,701,-4433,-3109,1745145673908687466
463456,-1645,1800,528,902,-4207,-2910,1745145673908687466
463648,-1674,1902,714,1076,-4222,-2732,1745145673908687466
463840,-1663,1994,894,1153,-4420,-2703,1745145673908687466
464032,-1624,2095,1062,1107,-4643,-2801,1745145673908687466
464224,-1577,2222,1228,1000,-4739,-2890,1745145673908687466
464416,-1545,2373,1402,1029,-4704,-3109,1745145673908687466
464608,-1532,2520,1584,1217,-4580,-3142,1745145673908687466
464800,-1529,2660,1767,1499,-4424,-3237,1745145673908687466
464992,-1506,2785,1946,1790,-4242,-3380,1745145673908687466
465184,-1442,2897,2125,2157,-4026,-3470,1745145673908687466
465376,-1353,2992,2297,2495,-3857,-3593,1745145673966841362
465568,-1251,3066,2457,2872,-3741,-3799,1745145673966841362
465760,-1147,3122,2604,3181,-3696,-4019,1745145673966841362
465952,-1048,3172,2732,3435,-3635,-4274,1745145673966841362
466144,-962,3228,2844,3661,-3529,-4540,1745145673966841362
466336,-885,3292,2945,3931,-3318,-4790,1745145673966841362
466528,-820,3359,3031,4231,-2987,-5022,1745145673966841362
466720,-764,3428,3099,4527,-2590,-5256,1745145673966841362
466912,-721,3500,3162,4880,-2093,-5679,1745145673966841362
467104,-688,3567,3225,5268,-1586,-5906,1745145673966841362
467296,-656,3641,3294,5612,-1025,-6168,1745145673966841362
467488,-626,3712,3365,5917,-547,-6433,1745145673966841362
467680,-589,3786,3442,6231,-100,-6667,1745145674027196748
467872,-561,3853,3519,6642,211,-6863,1745145674027196748
468064,-544,3902,3584,7136,378,-6995,1745145674027196748
468256,-547,3932,3636,7594,475,-7156,1745145674027196748
468448,-559,3956,3676,8017,622,-7276,1745145674027196748
468640,-583,3959,3698,8621,760,-7212,1745145674027196748
468832,-624,3921,3689,9469,884,-7063,1745145674027196748
469024,-664,3835,3644,10317,1172,-7086,1745145674027196748
469216,-685,3724,3569,10849,1744,-7159,1745145674027196748
469408,-672,3632,3480,11002,2607,-7478,1745145674027196748
469600,-627,3563,3401,11041,3463,-7941,1745145674027196748
469792,-550,3521,3327,11034,4250,-8397,1745145674027196748
469984,-491,3489,3293,11057,4995,-8675,1745145674085699859
470176,-447,3446,3339,11299,5098,-8849,1745145674085699859
470368,-424,3382,3410,11516,4891,-8979,1745145674085699859
470560,-410,3324,3490,11480,4482,-9060,1745145674085699859
470752,-393,3291,3557,11241,4087,-9063,1745145674085699859
470944,-384,3287,3599,11081,3728,-9004,1745145674085699859
471136,-384,3290,3618,11079,3391,-8860,1745145674085699859
471328,-396,3289,3623,11239,3069,-8668,1745145674085699859
471520,-420,3275,3623,11509,2726,-8387,1745145674085699859
471712,-456,3246,3616,11847,2448,-8008,1745145674085699859
471904,-505,3196,3590,12294,2305,-7675,1745145674085699859
472096,-569,3115,3535,12726,2253,-7397,1745145674085699859
472288,-638,3014,3458,12976,2365,-7272,1745145674145975975
472480,-680,2918,3378,12959,2660,-7207,1745145674145975975
472672,-707,2826,3302,12870,3104,-7209,1745145674145975975
472864,-738,2734,3226,12782,3472,-7150,1745145674145975975
473056,-767,2628,3155,12828,3679,-6965,1745145674145975975
473248,-788,2497,3082,12830,3734,-6779,1745145674145975975
473440,-797,2348,3007,12649,3658,-6640,1745145674145975975
473632,-782,2201,2933,12207,3526,-6520,1745145674145975975
473824,-757,2073,2860,11622,3423,-6417,1745145674145975975
474016,-736,1973,2783,11067,3348,-6336,1745145674145975975
474208,-732,1903,2697,10654,3305,-6188,1745145674145975975
474400,-742,1852,2605,10414,3293,-6024,1745145674145975975
474592,-760,1804,2515,10261,3178,-5867,1745145674197409151
474592,-760,1804,2515,10261,3178,-5867,1745145674197409151
474784,-769,1753,2431,10106,2999,-5674,1745145674197409151
474976,-758,1700,2348,9822,2735,-5509,1745145674197409151
475168,-723,1661,2260,9463,2565,-5388,1745145674197409151
475360,-684,1644,2166,9118,2441,-5314,1745145674197409151
475552,-652,1644,2071,8844,2335,-5175,1745145674197409151
475744,-613,1651,1981,8655,2193,-5072,1745145674197409151
475936,-563,1656,1890,8570,2050,-4972,1745145674197409151
476128,-509,1649,1796,8546,1847,-4795,1745145674197409151
476320,-454,1622,1694,8597,1537,-4618,1745145674197409151
476512,-394,1581,1586,8542,1230,-4488,1745145674197409151
476704,-333,1540,1481,8433,946,-4397,1745145674257836568
476896,-288,1510,1386,8261,667,-4422,1745145674257836568
477088,-235,1492,1287,8076,488,-4327,1745145674257836568
477280,-183,1476,1194,7935,352,-4199,1745145674257836568
477472,-131,1449,1112,7850,228,-4139,1745145674257836568
477664,-87,1410,1039,7805,36,-3995,1745145674257836568
477856,-48,1368,981,7785,-188,-3749,1745145674257836568
478048,-18,1322,944,7755,-421,-3471,1745145674257836568
478240,-4,1275,927,7665,-628,-3251,1745145674257836568
478432,0,1240,923,7557,-791,-3143,1745145674257836568
478624,-6,1218,918,7440,-884,-3164,1745145674257836568
478816,-17,1206,916,7334,-913,-3172,1745145674257836568
479008,-16,1204,919,7246,-897,-3119,1745145674316627958
479008,-16,1204,919,7246,-897,-3119,1745145674316627958
479200,-10,1209,932,7214,-878,-3125,1745145674316627958
479392,2,1214,947,7198,-845,-3162,1745145674316627958
479584,24,1214,961,7205,-832,-3065,1745145674316627958
479776,53,1209,972,7305,-914,-2970,1745145674316627958
479968,81,1183,981,7471,-1142,-2818,1745145674316627958
480160,116,1142,987,7560,-1414,-2646,1745145674316627958
480352,161,1101,989,7626,-1709,-2544,1745145674316627958
480544,200,1059,956,7597,-1805,-2533,1745145674316627958
480736,211,1020,907,7555,-1952,-2541,1745145674316627958
480928,211,979,853,7544,-2148,-2393,1745145674316627958
481120,206,929,798,7556,-2388,-2235,1745145674370132417
481312,194,870,745,7590,-2653,-2096,1745145674370132417
481504,176,811,693,7565,-2869,-2015,1745145674370132417
481696,151,763,638,7498,-2953,-2034,1745145674370132417
481888,111,729,584,7385,-2920,-2127,1745145674370132417
482080,57,708,534,7300,-2804,-2152,1745145674370132417
482272,0,688,493,7211,-2679,-2124,1745145674370132417
482464,-41,667,467,7200,-2529,-2103,1745145674370132417
482656,-69,635,452,7244,-2439,-2031,1745145674370132417
482848,-87,595,441,7338,-2404,-2033,1745145674370132417
483040,-96,552,435,7449,-2421,-2041,1745145674370132417
483232,-95,507,428,7563,-2485,-2023,1745145674370132417
483424,-91,467,420,7652,-2545,-2027,1745145674428535894
483616,-95,426,409,7700,-2639,-2033,1745145674428535894
483808,-107,383,396,7728,-2777,-2003,1745145674428535894
484000,-120,340,383,7703,-2944,-1925,1745145674428535894
484192,-126,300,368,7647,-3064,-1867,1745145674428535894
484384,-138,267,352,7562,-3155,-1850,1745145674428535894
484576,-158,239,335,7510,-3239,-1842,1745145674428535894
484768,-184,217,317,7453,-3312,-1845,1745145674428535894
484960,-216,194,300,7420,-3419,-1779,1745145674428535894
485152,-246,174,285,7384,-3518,-1703,1745145674428535894
485344,-267,157,270,7342,-3556,-1653,1745145674428535894
485536,-285,143,255,7341,-3567,-1625,1745145674428535894
485728,-310,128,236,7365,-3582,-1656,1745145674489020029
485920,-331,113,216,7346,-3582,-1646,1745145674489020029
486112,-340,96,198,7341,-3504,-1646,1745145674489020029
486304,-342,99,179,7396,-3426,-1643,1745145674489020029
486496,-348,91,162,7453,-3352,-1613,1745145674489020029
486688,-351,67,143,7534,-3302,-1525,1745145674489020029
486880,-343,43,123,7573,-3312,-1478,1745145674489020029
487072,-324,17,100,7577,-3280,-1447,1745145674489020029
487264,-301,-4,79,7547,-3222,-1454,1745145674489020029
487456,-280,-24,58,7512,-3154,-1407,1745145674489020029
487648,-261,-47,36,7511,-3169,-1320,1745145674489020029
487840,-230,-78,13,7556,-3266,-1201,1745145674489020029
488032,-192,-114,-7,7607,-3436,-1134,1745145674547696160
488224,-161,-155,-30,7641,-3616,-1039,1745145674547696160
488416,-137,-195,-55,7632,-3800,-978,1745145674547696160
488608,-120,-223,-79,7552,-3917,-994,1745145674547696160
488800,-105,-240,-102,7417,-3932,-1058,1745145674547696160
488992,-96,-246,-124,7301,-3888,-1112,1745145674547696160
489184,-99,-250,-143,7250,-3869,-1093,1745145674547696160
489376,-107,-259,-160,7299,-3956,-1080,1745145674547696160
489568,-107,-269,-168,7369,-4073,-1043,1745145674547696160
489760,-100,-275,-169,7396,-4150,-976,1745145674547696160
489952,-102,-279,-170,7425,-4228,-942,1745145674547696160
490144,-111,-282,-168,7384,-4274,-910,1745145674547696160
490336,-117,-280,-162,7256,-4256,-924,1745145674603186591
490528,-119,-270,-151,7127,-4167,-985,1745145674603186591
490720,-116,-250,-133,7005,-4014,-1020,1745145674603186591
490912,-114,-231,-112,6945,-3925,-1025,1745145674603186591
491104,-111,-216,-88,6936,-3925,-1000,1745145674603186591
491296,-98,-202,-62,6929,-3912,-960,1745145674603186591
491488,-82,-182,-34,6937,-3851,-987,1745145674603186591
491680,-69,-157,-9,6936,-3779,-1077,1745145674603186591
491872,-54,-132,12,6934,-3717,-1107,1745145674603186591
492064,-34,-114,29,6963,-3659,-1095,1745145674603186591
492256,-11,-99,43,6994,-3613,-1052,1745145674603186591
492448,8,-89,52,7044,-3635,-1002,1745145674603186591
492640,27,-86,54,7077,-3694,-929,1745145674661105384
492832,48,-86,51,7083,-3779,-870,1745145674661105384
493024,65,-86,44,7039,-3857,-921,1745145674661105384
493216,76,-82,36,7024,-3875,-998,1745145674661105384
493408,77,-73,25,6990,-3867,-1060,1745145674661105384
493600,71,-62,14,7007,-3892,-1054,1745145674661105384
493792,63,-52,6,7027,-3908,-1020,1745145674661105384
493984,60,-42,3,7061,-3877,-1020,1745145674661105384
494176,55,-31,1,7089,-3799,-1031,1745145674661105384
494368,40,-21,-2,7101,-3744,-1057,1745145674661105384
494560,25,-13,1,7115,-3687,-1089,1745145674661105384
494752,18,-6,10,7113,-3617,-1133,1745145674661105384
494944,12,4,22,7107,-3528,-1157,1745145674719135063
495328,0,17,47,7135,-3478,-1178,1745145674719135063
495520,0,16,57,7159,-3497,-1156,1745145674719135063
495712,0,15,64,7172,-3567,-1120,1745145674719135063
495904,-1,15,69,7152,-3620,-1110,1745145674719135063
496096,0,22,70,7100,-3632,-1139,1745145674719135063
496288,-1,31,69,7078,-3639,-1139,1745145674719135063
496480,-5,38,65,7093,-3685,-1120,1745145674719135063
496672,-3,43,63,7117,-3717,-1127,1745145674719135063
496864,7,50,61,7120,-3717,-1147,1745145674719135063
497056,14,57,56,7177,-3691,-1186,1745145674719135063
497248,15,63,49,7197,-3664,-1250,1745145674719135063
497632,27,69,40,7216,-3575,-1319,1745145674791016021
497824,36,71,38,7218,-3505,-1314,1745145674791016021
498016,44,69,35,7230,-3496,-1305,1745145674791016021
498208,50,63,30,7247,-3512,-1286,1745145674791016021
498400,56,57,29,7267,-3522,-1280,1745145674791016021
498592,59,54,29,7261,-3528,-1287,1745145674791016021
498784,54,51,29,7278,-3549,-1285,1745145674791016021
498976,44,49,28,7297,-3595,-1304,1745145674791016021
499168,38,47,27,7279,-3571,-1304,1745145674791016021
499360,33,47,26,7275,-3531,-1328,1745145674791016021
499552,29,50,24,7280,-3501,-1369,1745145674791016021
499744,28,51,19,7299,-3470,-1391,1745145674791016021
499936,29,48,12,7348,-3464,-1387,1745145674842783048
500128,30,42,7,7393,-3488,-1350,1745145674842783048
500320,32,33,3,7405,-3545,-1294,1745145674842783048
500512,32,22,-2,7431,-3600,-1261,1745145674842783048
500704,30,10,-8,7396,-3647,-1252,1745145674842783048
500896,26,3,-13,7348,-3661,-1257,1745145674842783048
501088,16,2,-18,7292,-3673,-1280,1745145674842783048
501280,4,4,-21,7232,-3665,-1308,1745145674842783048
501472,-9,7,-21,7218,-3636,-1362,1745145674842783048
501664,-20,10,-22,7215,-3583,-1402,1745145674842783048
501856,-29,13,-23,7239,-3554,-1398,1745145674842783048
502048,-39,12,-24,7273,-3522,-1351,1745145674842783048
502240,-45,10,-27,7298,-3516,-1260,1745145674903072080
502432,-44,5,-28,7304,-3534,-1237,1745145674903072080
502624,-36,-2,-29,7261,-3530,-1242,1745145674903072080
502816,-27,-6,-32,7231,-3509,-1266,1745145674903072080
503008,-21,-7,-36,7224,-3513,-1315,1745145674903072080
503200,-12,-6,-40,7236,-3503,-1317,1745145674903072080
503392,-1,-4,-41,7227,-3489,-1326,1745145674903072080
503584,12,0,-42,7229,-3441,-1325,1745145674903072080
503776,24,3,-43,7248,-3405,-1336,1745145674903072080
503968,34,2,-47,7313,-3400,-1309,1745145674903072080
504160,41,-4,-52,7348,-3472,-1284,1745145674903072080
504352,54,-11,-55,7347,-3582,-1252,1745145674903072080
504544,70,-15,-56,7300,-3637,-1235,1745145674966306451
504736,76,-17,-59,7260,-3668,-1264,1745145674966306451
504928,72,-15,-64,7215,-3699,-1297,1745145674966306451
505120,68,-12,-69,7171,-3712,-1289,1745145674966306451
505312,64,-7,-72,7148,-3709,-1300,1745145674966306451
505504,60,-2,-72,7163,-3681,-1294,1745145674966306451
505696,57,3,-72,7177,-3656,-1302,1745145674966306451
505888,58,4,-72,7213,-3655,-1302,1745145674966306451
506080,63,3,-72,7241,-3668,-1315,1745145674966306451
506272,67,1,-73,7299,-3674,-1300,1745145674966306451
506464,65,-3,-72,7326,-3708,-1248,1745145674966306451
506656,55,-11,-71,7353,-3785,-1189,1745145674966306451
506848,49,-18,-68,7386,-3879,-1128,1745145675029913109
507232,36,-22,-55,7328,-3909,-1133,1745145675029913109
507424,22,-17,-48,7322,-3891,-1181,1745145675029913109
507616,4,-10,-40,7310,-3856,-1196,1745145675029913109
507808,-12,-4,-32,7309,-3796,-1202,1745145675029913109
508000,-26,3,-23,7312,-3716,-1180,1745145675029913109
508192,-35,8,-14,7321,-3625,-1182,1745145675029913109
508384,-40,12,-8,7349,-3584,-1212,1745145675029913109
508576,-39,12,-2,7372,-3582,-1212,1745145675029913109
508768,-32,11,2,7379,-3579,-1212,1745145675029913109
508960,-20,12,5,7400,-3578,-1192,1745145675029913109
509152,-6,11,6,7401,-3575,-1186,1745145675029913109
509344,7,8,2,7393,-3601,-1199,1745145675088469189
509728,37,4,-10,7386,-3647,-1232,1745145675088469189
509920,47,5,-15,7368,-3660,-1235,1745145675088469189
510112,52,8,-19,7370,-3686,-1208,1745145675088469189
510304,55,7,-24,7405,-3740,-1176,1745145675088469189
510496,61,4,-26,7400,-3805,-1151,1745145675088469189
510688,74,2,-24,7369,-3799,-1188,1745145675088469189
510880,83,5,-22,7336,-3761,-1257,1745145675088469189
511072,81,9,-22,7304,-3707,-1307,1745145675088469189
511264,77,14,-21,7286,-3669,-1296,1745145675088469189
511456,79,18,-16,7296,-3633,-1255,1745145675088469189
511648,84,18,-9,7327,-3628,-1218,1745145675088469189
511840,89,16,-3,7343,-3625,-1214,1745145675152328918
512032,94,13,1,7372,-3614,-1221,1745145675152328918
512224,95,10,1,7416,-3654,-1213,1745145675152328918
512416,92,2,-1,7446,-3696,-1181,1745145675152328918
512608,89,-9,-5,7474,-3770,-1151,1745145675152328918
512800,88,-22,-8,7460,-3837,-1088,1745145675152328918
512992,85,-34,-15,7444,-3899,-1056,1745145675152328918
513184,78,-44,-21,7393,-3944,-1083,1745145675152328918
513376,68,-47,-25,7346,-3978,-1135,1745145675152328918
513568,54,-46,-28,7295,-3961,-1192,1745145675152328918
513760,39,-39,-31,7265,-3905,-1205,1745145675152328918
513952,28,-33,-32,7281,-3871,-1190,1745145675152328918
514144,22,-30,-32,7299,-3824,-1188,1745145675210170889
514528,28,-29,-27,7375,-3787,-1196,1745145675210170889
514720,34,-30,-25,7394,-3741,-1210,1745145675210170889
514912,40,-32,-22,7386,-3742,-1197,1745145675210170889
515104,48,-35,-20,7380,-3754,-1211,1745145675210170889
515296,61,-40,-19,7367,-3772,-1196,1745145675210170889
515488,74,-43,-19,7371,-3839,-1137,1745145675210170889
515680,78,-46,-20,7367,-3887,-1104,1745145675210170889
515872,78,-47,-20,7355,-3964,-1094,1745145675210170889
516064,77,-46,-20,7307,-3997,-1094,1745145675210170889
516256,70,-45,-19,7299,-4031,-1115,1745145675210170889
516448,58,-41,-15,7264,-4052,-1126,1745145675210170889
516640,45,-33,-9,7264,-4007,-1110,1745145675273994681
516832,30,-24,-1,7284,-3953,-1107,1745145675273994681
517024,16,-17,7,7304,-3907,-1125,1745145675273994681
517216,5,-14,14,7349,-3882,-1153,1745145675273994681
517408,0,-14,20,7379,-3838,-1159,1745145675273994681
517600,-3,-14,25,7395,-3797,-1154,1745145675273994681
517792,-3,-13,28,7391,-3759,-1132,1745145675273994681
517984,-3,-15,31,7355,-3723,-1099,1745145675273994681
518176,1,-20,31,7341,-3714,-1120,1745145675273994681
518368,11,-24,30,7332,-3711,-1133,1745145675273994681
518560,20,-27,28,7339,-3724,-1118,1745145675273994681
518752,23,-31,24,7350,-3783,-1121,1745145675273994681
518944,24,-34,20,7339,-3802,-1115,1745145675322314136
519136,28,-36,17,7325,-3797,-1113,1745145675322314136
519328,31,-36,14,7306,-3782,-1118,1745145675322314136
519520,32,-36,10,7294,-3778,-1148,1745145675322314136
519712,34,-35,9,7293,-3778,-1155,1745145675322314136
519904,34,-35,8,7309,-3797,-1154,1745145675322314136
520096,32,-35,9,7331,-3827,-1139,1745145675322314136
520288,29,-37,12,7330,-3838,-1120,1745145675322314136
520480,26,-37,16,7315,-3853,-1119,1745145675322314136
520672,19,-34,19,7299,-3859,-1124,1745145675322314136
520864,11,-32,24,7286,-3873,-1122,1745145675322314136
521056,7,-29,29,7271,-3870,-1149,1745145675322314136
521248,4,-26,32,7257,-3872,-1191,1745145675387555207
521440,-1,-22,34,7257,-3834,-1195,1745145675387555207
521632,-8,-18,35,7283,-3822,-1179,1745145675387555207
521824,-15,-17,36,7286,-3838,-1143,1745145675387555207
522016,-17,-15,39,7286,-3822,-1114,1745145675387555207
522208,-18,-16,40,7279,-3810,-1092,1745145675387555207
522400,-20,-15,40,7250,-3802,-1086,1745145675387555207
522592,-18,-14,40,7241,-3757,-1092,1745145675387555207
522784,-16,-12,43,7234,-3762,-1135,1745145675387555207
522976,-14,-10,46,7246,-3774,-1137,1745145675387555207
523168,-11,-8,48,7269,-3760,-1156,1745145675387555207
523360,-6,-4,51,7268,-3729,-1156,1745145675387555207
523552,-3,0,53,7282,-3688,-1158,1745145675451854932
523744,1,3,54,7278,-3626,-1163,1745145675451854932
523936,3,4,55,7280,-3595,-1148,1745145675451854932
524128,6,1,56,7284,-3618,-1143,1745145675451854932
524320,12,-5,58,7299,-3678,-1106,1745145675451854932
524512,19,-10,60,7310,-3739,-1089,1745145675451854932
524704,17,-14,58,7272,-3758,-1059,1745145675451854932
524896,10,-14,56,7239,-3788,-1050,1745145675451854932
525088,2,-14,55,7191,-3793,-1063,1745145675451854932
525280,-2,-10,56,7156,-3791,-1090,1745145675451854932
525472,-4,-3,57,7173,-3759,-1116,1745145675451854932
525664,-8,4,57,7192,-3761,-1148,1745145675451854932
525856,-11,10,58,7207,-3726,-1159,1745145675502835299
526048,-14,16,58,7223,-3658,-1171,1745145675502835299
526240,-15,20,58,7231,-3595,-1166,1745145675502835299
526432,-17,20,58,7262,-3601,-1132,1745145675502835299
526624,-17,16,59,7274,-3650,-1087,1745145675502835299
526816,-12,10,60,7273,-3728,-1070,1745145675502835299
527008,-10,7,62,7275,-3754,-1060,1745145675502835299
527200,-16,5,61,7246,-3805,-1063,1745145675502835299
527392,-25,7,60,7170,-3823,-1061,1745145675502835299
527584,-32,12,58,7105,-3777,-1057,1745145675502835299
527776,-38,20,59,7077,-3715,-1086,1745145675502835299
527968,-43,29,61,7112,-3685,-1118,1745145675502835299
528160,-41,34,62,7157,-3669,-1134,1745145675565924775
528352,-34,38,62,7208,-3630,-1152,1745145675565924775
528544,-26,40,63,7244,-3578,-1169,1745145675565924775
528736,-19,40,60,7283,-3532,-1168,1745145675565924775
528928,-13,39,56,7276,-3537,-1171,1745145675565924775
529120,-3,36,52,7258,-3532,-1167,1745145675565924775
529312,7,34,47,7241,-3546,-1165,1745145675565924775
529504,12,29,41,7240,-3584,-1123,1745145675565924775
529696,11,21,33,7244,-3667,-1069,1745145675565924775
529888,13,15,28,7239,-3758,-1034,1745145675565924775
530080,17,13,24,7199,-3796,-1069,1745145675565924775
530272,15,16,20,7170,-3776,-1123,1745145675565924775
530464,5,19,14,7153,-3755,-1162,1745145675622315875
530656,-4,22,7,7160,-3751,-1142,1745145675622315875
530848,-11,26,3,7196,-3714,-1139,1745145675622315875
531040,-13,28,1,7218,-3723,-1137,1745145675622315875
531232,-15,29,2,7226,-3683,-1152,1745145675622315875
531424,-16,28,0,7259,-3704,-1141,1745145675622315875
531616,-21,23,0,7275,-3761,-1114,1745145675622315875
531808,-24,17,2,7267,-3789,-1108,1745145675622315875
532000,-24,17,6,7212,-3788,-1123,1745145675622315875
532192,-27,21,8,7171,-3735,-1170,1745145675622315875
532384,-33,25,9,7144,-3688,-1188,1745145675622315875
532576,-39,28,7,7141,-3691,-1153,1745145675622315875
532768,-41,29,6,7175,-3735,-1134,1745145675682778656
532960,-35,29,9,7213,-3759,-1140,1745145675682778656
533152,-30,28,10,7237,-3796,-1150,1745145675682778656
533344,-27,28,10,7247,-3787,-1157,1745145675682778656
533536,-31,28,5,7229,-3801,-1145,1745145675682778656
533728,-34,24,3,7229,-3852,-1143,1745145675682778656
533920,-29,23,4,7193,-3872,-1142,1745145675682778656
534112,-25,25,6,7145,-3861,-1176,1745145675682778656
534304,-24,30,7,7109,-3827,-1212,1745145675682778656
534496,-30,37,8,7096,-3810,-1213,1745145675682778656
534688,-36,42,10,7085,-3798,-1199,1745145675682778656
534880,-38,48,16,7118,-3772,-1170,1745145675682778656
535072,-37,51,22,7145,-3755,-1144,1745145675740734116
535264,-39,52,27,7197,-3775,-1144,1745145675740734116
535456,-41,49,30,7241,-3768,-1159,1745145675740734116
535648,-42,48,30,7250,-3738,-1173,1745145675740734116
535840,-45,48,28,7256,-3735,-1196,1745145675740734116
536032,-48,49,26,7284,-3745,-1203,1745145675740734116
536224,-44,47,23,7278,-3754,-1218,1745145675740734116
536416,-34,46,20,7267,-3705,-1251,1745145675740734116
536608,-27,45,14,7244,-3677,-1259,1745145675740734116
536800,-24,43,5,7230,-3671,-1219,1745145675740734116
536992,-22,39,-2,7230,-3715,-1163,1745145675740734116
537184,-17,34,-6,7221,-3781,-1129,1745145675740734116
537376,-13,31,-5,7214,-3804,-1143,1745145675799575401
537568,-15,31,-5,7210,-3820,-1177,1745145675799575401
537760,-25,31,-4,7195,-3816,-1209,1745145675799575401
537952,-37,30,-5,7201,-3843,-1222,1745145675799575401
538144,-48,29,-4,7214,-3863,-1203,1745145675799575401
538336,-54,30,0,7210,-3844,-1183,1745145675799575401
538528,-60,35,3,7219,-3804,-1193,1745145675799575401
538720,-69,40,6,7212,-3735,-1238,1745145675799575401
538912,-76,44,8,7197,-3694,-1280,1745145675799575401
539104,-76,46,10,7226,-3666,-1288,1745145675799575401
539296,-67,46,14,7246,-3643,-1297,1745145675799575401
539488,-54,45,15,7247,-3625,-1298,1745145675799575401
539680,-40,44,14,7262,-3621,-1307,1745145675853041892
539872,-27,42,9,7258,-3636,-1274,1745145675853041892
540064,-16,36,3,7271,-3677,-1232,1745145675853041892
540256,-6,30,-3,7255,-3725,-1181,1745145675853041892
540448,2,25,-8,7266,-3783,-1152,1745145675853041892
540640,3,19,-11,7240,-3829,-1148,1745145675853041892
540832,0,19,-13,7223,-3877,-1150,1745145675853041892
541024,-7,21,-13,7242,-3885,-1158,1745145675853041892
541216,-18,24,-11,7234,-3907,-1174,1745145675853041892
541408,-30,28,-8,7226,-3895,-1202,1745145675853041892
541600,-39,32,-4,7252,-3848,-1226,1745145675853041892
541792,-44,35,-1,7266,-3830,-1219,1745145675853041892
541984,-50,35,3,7273,-3832,-1213,1745145675916982818
542176,-51,33,8,7271,-3838,-1207,1745145675916982818
542368,-48,33,13,7270,-3815,-1210,1745145675916982818
542560,-47,31,18,7253,-3818,-1208,1745145675916982818
542752,-47,30,20,7241,-3832,-1219,1745145675916982818
542944,-46,31,23,7239,-3837,-1212,1745145675916982818
543136,-43,33,23,7221,-3831,-1220,1745145675916982818
543328,-41,34,23,7215,-3818,-1200,1745145675916982818
543520,-38,33,20,7234,-3830,-1172,1745145675916982818
543712,-35,31,17,7248,-3856,-1177,1745145675916982818
543904,-31,30,17,7267,-3887,-1178,1745145675916982818
544096,-25,29,17,7280,-3906,-1161,1745145675916982818
544288,-23,28,17,7291,-3929,-1178,1745145675975091923
544480,-22,28,17,7275,-3932,-1208,1745145675975091923
544672,-17,28,16,7266,-3914,-1213,1745145675975091923
544864,-12,29,15,7240,-3896,-1224,1745145675975091923
545056,-9,31,15,7250,-3906,-1230,1745145675975091923
545248,-8,32,15,7253,-3904,-1220,1745145675975091923
545440,-5,32,16,7266,-3916,-1206,1745145675975091923
545632,-5,33,19,7266,-3924,-1198,1745145675975091923
545824,-7,34,20,7283,-3908,-1198,1745145675975091923
546016,-10,35,20,7264,-3877,-1200,1745145675975091923
546208,-12,36,18,7256,-3833,-1235,1745145675975091923
546400,-13,35,15,7263,-3797,-1217,1745145675975091923
546592,-15,30,13,7294,-3819,-1163,1745145676033141705
546784,-20,21,9,7332,-3925,-1078,1745145676033141705
546976,-21,11,8,7367,-4022,-1050,1745145676033141705
547168,-18,6,10,7342,-4055,-1053,1745145676033141705
547360,-24,6,12,7296,-4046,-1096,1745145676033141705
547552,-38,9,13,7271,-4018,-1124,1745145676033141705
547744,-48,15,16,7213,-3967,-1150,1745145676033141705
547936,-51,21,23,7211,-3908,-1174,1745145676033141705
548128,-51,28,31,7218,-3873,-1191,1745145676033141705
548320,-49,33,38,7288,-3841,-1197,1745145676033141705
548512,-45,36,44,7327,-3837,-1188,1745145676033141705
548704,-41,37,49,7325,-3822,-1196,1745145676033141705
548896,-36,36,53,7296,-3814,-1207,1745145676091884398
549088,-32,34,55,7298,-3823,-1215,1745145676091884398
549280,-28,32,54,7281,-3861,-1177,1745145676091884398
549472,-24,29,53,7249,-3904,-1150,1745145676091884398
549664,-23,25,51,7249,-3976,-1151,1745145676091884398
549856,-25,27,48,7217,-3997,-1153,1745145676091884398
550048,-29,30,47,7197,-3982,-1197,1745145676091884398
550240,-36,36,46,7177,-3940,-1254,1745145676091884398
550432,-42,42,44,7193,-3868,-1264,1745145676091884398
550624,-43,47,44,7215,-3789,-1282,1745145676091884398
550816,-39,48,42,7241,-3732,-1279,1745145676091884398
551008,-32,45,40,7273,-3696,-1233,1745145676091884398
551200,-27,36,37,7321,-3726,-1188,1745145676150192771
551392,-20,24,36,7335,-3775,-1169,1745145676150192771
551584,-9,14,36,7318,-3800,-1149,1745145676150192771
551776,-4,8,33,7284,-3798,-1171,1745145676150192771
551968,-10,6,27,7244,-3801,-1168,1745145676150192771
552160,-16,4,21,7180,-3814,-1181,1745145676150192771
552352,-16,4,20,7203,-3830,-1177,1745145676150192771
552544,-14,5,21,7228,-3842,-1185,1745145676150192771
552736,-15,5,23,7258,-3847,-1169,1745145676150192771
552928,-20,5,21,7274,-3837,-1163,1745145676150192771
553120,-24,6,18,7274,-3814,-1153,1745145676150192771
553312,-25,4,14,7240,-3789,-1164,1745145676150192771
553504,-23,2,14,7208,-3775,-1142,1745145676208980984
553696,-19,0,15,7183,-3779,-1137,1745145676208980984
553888,-14,0,17,7154,-3774,-1151,1745145676208980984
554080,-11,2,18,7163,-3787,-1156,1745145676208980984
554272,-14,3,19,7165,-3815,-1174,1745145676208980984
554464,-15,3,21,7178,-3845,-1138,1745145676208980984
554656,-14,3,24,7176,-3875,-1116,1745145676208980984
554848,-15,5,28,7171,-3858,-1133,1745145676208980984
555040,-19,9,30,7143,-3848,-1173,1745145676208980984
555232,-24,15,34,7147,-3805,-1202,1745145676208980984
555424,-30,22,35,7176,-3758,-1223,1745145676208980984
555616,-34,26,36,7173,-3747,-1201,1745145676208980984
555808,-34,26,37,7199,-3743,-1182,1745145676269158195
556000,-32,24,37,7204,-3725,-1157,1745145676269158195
556192,-31,20,34,7225,-3751,-1151,1745145676269158195
556384,-30,15,30,7232,-3825,-1181,1745145676269158195
556576,-26,14,27,7186,-3831,-1155,1745145676269158195
556768,-29,16,24,7130,-3792,-1184,1745145676269158195
556960,-35,21,21,7097,-3725,-1216,1745145676269158195
557152,-39,27,18,7074,-3667,-1212,1745145676269158195
557344,-38,31,17,7114,-3621,-1210,1745145676269158195
557536,-32,33,16,7165,-3596,-1217,1745145676269158195
557728,-25,33,15,7234,-3563,-1220,1745145676269158195
557920,-18,31,12,7272,-3528,-1237,1745145676269158195
558112,-10,26,8,7276,-3553,-1249,1745145676323950090
558304,2,20,3,7273,-3567,-1238,1745145676323950090
558496,13,13,-3,7274,-3605,-1214,1745145676323950090
558688,20,5,-10,7240,-3671,-1201,1745145676323950090
558880,25,1,-15,7209,-3725,-1196,1745145676323950090
559072,25,-1,-21,7196,-3786,-1172,1745145676323950090
559264,19,-3,-26,7179,-3839,-1194,1745145676323950090
559456,14,-1,-28,7161,-3838,-1198,1745145676323950090
559648,7,4,-28,7138,-3811,-1239,1745145676323950090
559840,-1,12,-26,7147,-3765,-1285,1745145676323950090
560032,-7,17,-23,7165,-3698,-1302,1745145676323950090
560224,-8,20,-21,7214,-3673,-1286,1745145676323950090
560416,-6,19,-19,7246,-3661,-1292,1745145676384280372
560608,1,17,-16,7277,-3646,-1284,1745145676384280372
560800,10,13,-15,7289,-3663,-1251,1745145676384280372
560992,15,4,-16,7312,-3733,-1209,1745145676384280372
561184,22,-5,-17,7291,-3831,-1194,1745145676384280372
561376,30,-9,-18,7233,-3859,-1210,1745145676384280372
561568,30,-9,-20,7186,-3851,-1232,1745145676384280372
561760,24,-6,-23,7148,-3834,-1268,1745145676384280372
561952,18,-2,-27,7126,-3825,-1274,1745145676384280372
562144,14,0,-29,7148,-3805,-1251,1745145676384280372
562336,9,3,-28,7177,-3800,-1243,1745145676384280372
562528,7,4,-27,7221,-3788,-1234,1745145676384280372
562720,6,4,-25,7231,-3767,-1254,1745145676442206614
562912,6,3,-26,7208,-3702,-1292,1745145676442206614
563104,7,1,-27,7187,-3654,-1287,1745145676442206614
563296,11,-1,-27,7175,-3630,-1268,1745145676442206614
563488,17,-5,-28,7190,-3647,-1238,1745145676442206614
563680,24,-8,-30,7227,-3673,-1231,1745145676442206614
563872,30,-12,-32,7262,-3693,-1231,1745145676442206614
564064,34,-14,-36,7282,-3701,-1249,1745145676442206614
564256,33,-15,-41,7267,-3669,-1267,1745145676442206614
564448,31,-15,-47,7242,-3624,-1271,1745145676442206614
564640,32,-16,-54,7242,-3611,-1250,1745145676442206614
564832,32,-22,-59,7283,-3650,-1234,1745145676442206614
565024,37,-29,-62,7290,-3723,-1209,1745145676501028941
565216,42,-37,-63,7293,-3802,-1181,1745145676501028941
565408,40,-42,-64,7279,-3852,-1172,1745145676501028941
565600,34,-44,-64,7223,-3861,-1175,1745145676501028941
565792,25,-40,-61,7146,-3814,-1199,1745145676501028941
565984,14,-31,-57,7117,-3762,-1237,1745145676501028941
566176,5,-23,-50,7106,-3705,-1257,1745145676501028941
566368,3,-17,-44,7146,-3717,-1271,1745145676501028941
566560,10,-15,-37,7215,-3741,-1273,1745145676501028941
566752,18,-17,-32,7266,-3729,-1267,1745145676501028941
566944,24,-17,-30,7299,-3742,-1269,1745145676501028941
567136,26,-18,-28,7300,-3746,-1273,1745145676501028941
567328,30,-17,-29,7274,-3740,-1266,1745145676559330700
567520,34,-16,-30,7249,-3732,-1231,1745145676559330700
567712,40,-16,-33,7230,-3733,-1245,1745145676559330700
567904,44,-17,-36,7214,-3754,-1231,1745145676559330700
568096,49,-18,-42,7208,-3786,-1201,1745145676559330700
568288,49,-21,-45,7231,-3802,-1175,1745145676559330700
568480,45,-25,-46,7259,-3862,-1188,1745145676559330700
568672,43,-28,-45,7266,-3871,-1207,1745145676559330700
568864,43,-27,-42,7258,-3839,-1238,1745145676559330700
569056,41,-23,-38,7255,-3763,-1270,1745145676559330700
569248,37,-18,-37,7254,-3709,-1279,1745145676559330700
569440,38,-19,-38,7270,-3681,-1271,1745145676559330700
569632,46,-22,-37,7310,-3688,-1252,1745145676615237221
569824,57,-29,-37,7310,-3712,-1235,1745145676615237221
570016,65,-35,-37,7296,-3728,-1213,1745145676615237221
570208,68,-39,-37,7269,-3748,-1195,1745145676615237221
570400,66,-40,-38,7243,-3776,-1206,1745145676615237221
570592,65,-39,-40,7229,-3811,-1242,1745145676615237221
570784,66,-37,-41,7215,-3822,-1240,1745145676615237221
570976,66,-34,-43,7245,-3808,-1263,1745145676615237221
571168,64,-29,-46,7257,-3767,-1272,1745145676615237221
571360,60,-27,-52,7258,-3746,-1271,1745145676615237221
571552,61,-29,-56,7270,-3727,-1253,1745145676615237221
571744,70,-31,-55,7288,-3751,-1244,1745145676615237221
571936,84,-36,-54,7292,-3779,-1284,1745145676673251066
572128,94,-39,-52,7271,-3789,-1306,1745145676673251066
572320,97,-38,-52,7259,-3768,-1312,1745145676673251066
572512,96,-37,-52,7231,-3747,-1293,1745145676673251066
572704,92,-37,-52,7235,-3765,-1254,1745145676673251066
572896,89,-40,-51,7229,-3801,-1212,1745145676673251066
573088,88,-44,-50,7239,-3813,-1211,1745145676673251066
573280,85,-46,-47,7229,-3824,-1221,1745145676673251066
573472,78,-46,-44,7218,-3802,-1258,1745145676673251066
573664,69,-44,-42,7225,-3777,-1282,1745145676673251066
573856,56,-41,-41,7237,-3736,-1303,1745145676673251066
574048,48,-40,-39,7276,-3699,-1280,1745145676673251066
574240,45,-41,-40,7308,-3680,-1262,1745145676732331307
574432,47,-45,-42,7340,-3670,-1262,1745145676732331307
574624,50,-52,-46,7340,-3677,-1240,1745145676732331307
574816,51,-61,-51,7311,-3707,-1214,1745145676732331307
575008,50,-66,-54,7272,-3716,-1215,1745145676732331307
575200,46,-65,-56,7218,-3687,-1203,1745145676732331307
575392,42,-61,-56,7193,-3671,-1208,1745145676732331307
575584,36,-59,-56,7192,-3658,-1232,1745145676732331307
575776,35,-56,-55,7212,-3641,-1242,1745145676732331307
575968,41,-53,-54,7225,-3617,-1214,1745145676732331307
576160,45,-48,-52,7248,-3545,-1230,1745145676732331307
576352,52,-45,-52,7263,-3497,-1253,1745145676732331307
576544,63,-46,-52,7277,-3470,-1258,1745145676797122226
576736,78,-50,-54,7301,-3485,-1240,1745145676797122226
576928,92,-55,-56,7337,-3549,-1236,1745145676797122226
577120,103,-59,-58,7336,-3606,-1248,1745145676797122226
577312,112,-59,-62,7326,-3653,-1245,1745145676797122226
577504,114,-61,-69,7304,-3681,-1219,1745145676797122226
577696,109,-63,-76,7281,-3706,-1195,1745145676797122226
577888,99,-61,-82,7253,-3705,-1192,1745145676797122226
578080,88,-60,-86,7229,-3715,-1171,1745145676797122226
578272,77,-62,-87,7216,-3734,-1143,1745145676797122226
578464,69,-66,-87,7239,-3788,-1120,1745145676797122226
578656,64,-71,-84,7246,-3816,-1134,1745145676797122226
578848,57,-72,-82,7231,-3811,-1171,1745145676853857854
579040,48,-68,-78,7239,-3780,-1224,1745145676853857854
579232,40,-62,-74,7248,-3731,-1256,1745145676853857854
579424,37,-56,-69,7290,-3690,-1266,1745145676853857854
579616,41,-54,-65,7353,-3673,-1278,1745145676853857854
579808,49,-56,-62,7401,-3678,-1263,1745145676853857854
580000,58,-60,-62,7425,-3695,-1223,1745145676853857854
580192,64,-64,-63,7399,-3688,-1195,1745145676853857854
580384,66,-66,-65,7363,-3680,-1193,1745145676853857854
580576,69,-69,-65,7284,-3697,-1194,1745145676853857854
580768,71,-72,-67,7260,-3708,-1182,1745145676853857854
580960,72,-74,-70,7235,-3745,-1193,1745145676853857854
581152,69,-72,-73,7229,-3741,-1174,1745145676912843721
581344,60,-70,-76,7256,-3787,-1176,1745145676912843721
581536,51,-67,-77,7310,-3796,-1195,1745145676912843721
581728,48,-65,-77,7358,-3792,-1190,1745145676912843721
581920,48,-64,-76,7385,-3770,-1194,1745145676912843721
582112,49,-66,-77,7416,-3742,-1182,1745145676912843721
582304,49,-69,-79,7409,-3723,-1180,1745145676912843721
582496,52,-70,-81,7426,-3711,-1176,1745145676912843721
582688,57,-71,-81,7399,-3714,-1168,1745145676912843721
582880,61,-73,-79,7389,-3736,-1161,1745145676912843721
583072,64,-77,-79,7390,-3777,-1155,1745145676912843721
583264,67,-82,-77,7371,-3825,-1134,1745145676912843721
583456,66,-81,-76,7364,-3865,-1135,1745145676970628506
583648,62,-77,-73,7350,-3842,-1140,1745145676970628506
583840,56,-73,-71,7344,-3819,-1158,1745145676970628506
584032,50,-69,-70,7329,-3799,-1151,1745145676970628506
584224,49,-68,-69,7362,-3820,-1120,1745145676970628506
584416,52,-71,-69,7387,-3846,-1116,1745145676970628506
584608,59,-74,-66,7391,-3864,-1115,1745145676970628506
584800,61,-72,-63,7365,-3852,-1145,1745145676970628506
584992,59,-69,-60,7356,-3835,-1146,1745145676970628506
585184,56,-68,-58,7365,-3843,-1115,1745145676970628506
585376,56,-69,-55,7379,-3886,-1074,1745145676970628506
585568,57,-71,-50,7392,-3964,-1061,1745145676970628506
585760,56,-69,-42,7386,-3972,-1064,1745145677029309845
585952,47,-64,-37,7372,-3949,-1101,1745145677029309845
586144,33,-56,-34,7345,-3893,-1104,1745145677029309845
586336,24,-50,-29,7332,-3850,-1095,1745145677029309845
586528,18,-47,-24,7343,-3846,-1089,1745145677029309845
586720,18,-47,-21,7377,-3831,-1061,1745145677029309845
586912,19,-47,-20,7395,-3807,-1067,1745145677029309845
587104,20,-45,-20,7397,-3801,-1072,1745145677029309845
587296,23,-45,-20,7377,-3800,-1083,1745145677029309845
587488,30,-46,-19,7383,-3808,-1067,1745145677029309845
587680,38,-47,-21,7381,-3804,-1075,1745145677029309845
587872,44,-44,-21,7344,-3774,-1088,1745145677029309845
588064,47,-39,-24,7335,-3723,-1113,1745145677087355148
588256,48,-36,-26,7349,-3711,-1098,1745145677087355148
588448,50,-36,-28,7390,-3758,-1032,1745145677087355148
588640,54,-43,-26,7411,-3849,-1025,1745145677087355148
588832,60,-46,-23,7394,-3907,-1023,1745145677087355148
589024,60,-45,-19,7372,-3892,-1059,1745145677087355148
589216,50,-41,-15,7362,-3885,-1085,1745145677087355148
589408,35,-37,-13,7353,-3885,-1071,1745145677087355148
589600,24,-34,-9,7344,-3915,-1059,1745145677087355148
589792,20,-30,-4,7356,-3875,-1052,1745145677087355148
589984,19,-26,1,7363,-3827,-1080,1745145677087355148
590176,14,-23,5,7352,-3793,-1101,1745145677087355148
590368,8,-21,5,7359,-3745,-1108,1745145677145313733
590560,5,-20,8,7330,-3700,-1091,1745145677145313733
590752,7,-20,11,7348,-3681,-1072,1745145677145313733
590944,10,-21,13,7356,-3649,-1044,1745145677145313733
591136,13,-24,12,7354,-3678,-1070,1745145677145313733
591328,19,-25,9,7348,-3691,-1077,1745145677145313733
591520,22,-26,5,7354,-3714,-1077,1745145677145313733
591712,22,-26,0,7320,-3747,-1080,1745145677145313733
591904,22,-23,-2,7285,-3737,-1084,1745145677145313733
592096,19,-17,-2,7278,-3732,-1108,1745145677145313733
592288,15,-10,-2,7282,-3703,-1114,1745145677145313733
592480,12,-4,-1,7310,-3678,-1109,1745145677145313733
592672,12,1,0,7350,-3632,-1132,1745145677203643773
592864,11,3,0,7380,-3628,-1131,1745145677203643773
593056,11,-1,0,7416,-3656,-1093,1745145677203643773
593248,13,-10,0,7402,-3724,-1063,1745145677203643773
593440,18,-17,3,7336,-3765,-1065,1745145677203643773
593632,20,-18,5,7280,-3761,-1073,1745145677203643773
593824,13,-14,8,7232,-3749,-1105,1745145677203643773
594016,4,-7,11,7197,-3735,-1143,1745145677203643773
594208,-3,0,14,7220,-3724,-1139,1745145677203643773
594400,-9,6,17,7290,-3711,-1126,1745145677203643773
594592,-17,7,20,7352,-3695,-1112,1745145677203643773
594784,-22,5,22,7383,-3676,-1119,1745145677203643773
594976,-23,4,22,7384,-3645,-1135,1745145677262025740
595168,-22,2,23,7363,-3624,-1130,1745145677262025740
595360,-21,-1,22,7351,-3623,-1122,1745145677262025740
595552,-19,-2,21,7311,-3643,-1083,1745145677262025740
595744,-16,-3,20,7267,-3666,-1083,1745145677262025740
595936,-17,1,18,7250,-3664,-1097,1745145677262025740
596128,-20,7,17,7220,-3649,-1130,1745145677262025740
596320,-25,14,17,7223,-3617,-1182,1745145677262025740
596512,-28,23,17,7232,-3564,-1187,1745145677262025740
596704,-29,30,18,7271,-3524,-1191,1745145677262025740
596896,-25,31,16,7316,-3522,-1191,1745145677262025740
597088,-17,28,15,7346,-3532,-1184,1745145677262025740
597280,-8,24,12,7354,-3560,-1177,1745145677322577738
597472,0,24,10,7322,-3557,-1204,1745145677322577738
597664,2,25,7,7300,-3532,-1245,1745145677322577738
597856,3,29,6,7293,-3532,-1238,1745145677322577738
598048,5,28,2,7308,-3546,-1237,1745145677322577738
598240,9,25,-1,7308,-3580,-1209,1745145677322577738
598432,12,21,-4,7332,-3596,-1197,1745145677322577738
598624,11,19,-7,7337,-3596,-1203,1745145677322577738
598816,6,15,-9,7338,-3619,-1206,1745145677322577738
599008,0,8,-11,7336,-3669,-1180,1745145677322577738
599200,-6,3,-9,7314,-3713,-1177,1745145677322577738
599392,-15,2,-4,7280,-3723,-1163,1745145677322577738
599584,-29,1,-1,7275,-3751,-1177,1745145677377563174
599776,-42,5,3,7248,-3742,-1218,1745145677377563174
599968,-51,11,7,7230,-3709,-1234,1745145677377563174
600160,-57,19,11,7235,-3681,-1247,1745145677377563174
600352,-64,25,15,7256,-3645,-1266,1745145677377563174
600544,-68,29,18,7278,-3591,-1249,1745145677377563174
600736,-63,33,19,7305,-3540,-1255,1745145677377563174
600928,-51,35,21,7289,-3488,-1277,1745145677377563174
601120,-38,38,20,7283,-3428,-1290,1745145677377563174
601312,-25,40,16,7259,-3372,-1311,1745145677377563174
601504,-11,39,11,7272,-3364,-1307,1745145677377563174
601696,5,38,6,7295,-3395,-1289,1745145677377563174
601888,17,33,-1,7322,-3427,-1283,1745145677439379744
602080,25,26,-7,7332,-3484,-1253,1745145677439379744
602272,31,21,-14,7335,-3543,-1247,1745145677439379744
602464,34,15,-20,7322,-3599,-1222,1745145677439379744
602656,33,8,-25,7332,-3682,-1227,1745145677439379744
602848,27,3,-28,7322,-3747,-1229,1745145677439379744
603040,18,4,-27,7276,-3767,-1235,1745145677439379744
603232,5,7,-23,7264,-3747,-1258,1745145677439379744
603424,-13,12,-18,7244,-3732,-1293,1745145677439379744
603616,-28,16,-11,7255,-3687,-1316,1745145677439379744
