timestamp,gyr_x,gyr_y,gyr_z,acc_x,acc_y,acc_z,pkt_time_ns
79840,242,-217,40,-253,789,-8033,1745148024114673853
80032,236,-171,27,-94,-3,-8607,1745148024114673853
80224,240,-171,25,-233,465,-8140,1745148024114673853
80416,240,-137,39,-255,584,-8174,1745148024114673853
80608,237,-140,42,-170,509,-8244,1745148024114673853
80800,212,-142,39,-113,420,-8210,1745148024114673853
80992,211,-141,33,-96,331,-8257,1745148024114673853
81184,178,-144,26,-178,287,-8199,1745148024114673853
81376,150,-122,17,-232,267,-8283,1745148024114673853
81568,112,-101,5,-213,202,-8417,1745148024114673853
81760,53,-94,-3,-206,202,-8461,1745148024114673853
81952,3,-81,-8,-303,206,-8515,1745148024114673853
82144,-50,-63,-13,-456,151,-8645,1745148024170886568
82528,-138,5,-31,-526,42,-8948,1745148024170886568
82720,-177,38,-34,-447,229,-9010,1745148024170886568
82912,-198,61,-26,-316,570,-9052,1745148024170886568
83104,-203,60,-11,-20,891,-8967,1745148024170886568
83296,-197,39,4,221,1097,-8888,1745148024170886568
83488,-183,15,13,257,1212,-8634,1745148024170886568
83680,-150,11,7,-6,733,-7820,1745148024170886568
83872,-182,35,-25,-286,1042,-9193,1745148024170886568
84064,-38,35,-33,-119,1697,-7564,1745148024170886568
84256,47,28,-22,-326,1329,-7695,1745148024170886568
84448,218,49,-50,-258,1130,-8031,1745148024170886568
84640,233,47,-51,-227,719,-7521,1745148024227366365
84832,64,87,-7,-278,30,-7305,1745148024227366365
85024,-413,105,-71,-1256,-3328,-6504,1745148024227366365
85216,-334,118,-114,-1206,-1790,-7571,1745148024227366365
85408,-431,145,-16,-1017,-885,-7238,1745148024227366365
85600,-445,145,53,-700,420,-7564,1745148024227366365
85792,-441,184,100,-476,1119,-7548,1745148024227366365
85984,-376,188,63,-206,1703,-7684,1745148024227366365
86176,-289,179,0,37,1985,-7825,1745148024227366365
86368,-179,153,-53,243,2058,-7995,1745148024227366365
86560,-76,114,-85,406,1914,-8110,1745148024227366365
86752,7,72,-91,489,1638,-8201,1745148024227366365
86944,58,31,-75,495,1299,-8245,1745148024287625919
87136,81,-2,-49,377,1002,-8278,1745148024287625919
87328,84,-29,-26,190,746,-8277,1745148024287625919
87520,74,-44,-15,-8,541,-8263,1745148024287625919
87712,55,-47,-15,-182,383,-8237,1745148024287625919
87904,34,-38,-20,-302,316,-8195,1745148024287625919
88096,10,-24,-26,-327,281,-8136,1745148024287625919
88288,-14,-11,-28,-306,316,-8091,1745148024287625919
88480,-41,-3,-27,-251,388,-8080,1745148024287625919
88672,-66,-1,-23,-178,484,-8049,1745148024287625919
88864,-82,-6,-21,-131,593,-8016,1745148024287625919
89056,-87,-12,-20,-111,706,-7993,1745148024287625919
89248,-82,-21,-23,-118,807,-7975,1745148024344812636
89440,-70,-30,-29,-125,871,-7958,1745148024344812636
89632,-56,-37,-33,-166,888,-7972,1745148024344812636
89824,-42,-41,-37,-209,841,-7982,1745148024344812636
90016,-31,-43,-37,-235,794,-8007,1745148024344812636
90208,-24,-41,-36,-250,739,-8032,1745148024344812636
90400,-21,-40,-32,-280,705,-8047,1745148024344812636
90592,-21,-36,-29,-278,663,-8061,1745148024344812636
90784,-22,-32,-27,-289,664,-8059,1745148024344812636
90976,-23,-29,-26,-264,657,-8044,1745148024344812636
91168,-25,-26,-25,-263,668,-8028,1745148024344812636
91360,-25,-24,-26,-255,676,-8033,1745148024344812636
91552,-26,-25,-25,-224,692,-8041,1745148024404596777
91744,-28,-25,-27,-214,683,-8073,1745148024404596777
91936,-26,-28,-29,-226,682,-8073,1745148024404596777
92128,-28,-32,-32,-244,699,-8076,1745148024404596777
92320,-32,-34,-36,-251,695,-8074,1745148024404596777
92512,-37,-35,-38,-270,679,-8047,1745148024404596777
92704,-44,-36,-41,-261,671,-8034,1745148024404596777
92896,-50,-35,-43,-252,681,-8034,1745148024404596777
93088,-53,-34,-46,-263,667,-8023,1745148024404596777
93280,-54,-33,-48,-240,682,-8023,1745148024404596777
93472,-53,-32,-49,-239,703,-8034,1745148024404596777
93664,-49,-32,-48,-244,697,-8045,1745148024404596777
93856,-46,-31,-46,-238,738,-8070,1745148024462044273
94048,-45,-30,-46,-232,738,-8076,1745148024462044273
94240,-43,-30,-45,-244,750,-8095,1745148024462044273
94432,-40,-30,-45,-257,757,-8093,1745148024462044273
94624,-40,-28,-44,-244,775,-8086,1745148024462044273
94816,-38,-27,-43,-256,779,-8077,1745148024462044273
95008,-37,-27,-43,-252,781,-8063,1745148024462044273
95200,-36,-27,-45,-242,787,-8052,1745148024462044273
95392,-35,-28,-47,-231,758,-8038,1745148024462044273
95584,-36,-30,-52,-229,769,-8047,1745148024462044273
95776,-35,-29,-53,-236,764,-8062,1745148024462044273
95968,-34,-28,-53,-256,772,-8091,1745148024462044273
96160,-34,-27,-52,-248,767,-8113,1745148024522413149
96352,-33,-28,-54,-255,771,-8130,1745148024522413149
96544,-32,-28,-54,-272,764,-8118,1745148024522413149
96736,-30,-27,-52,-259,773,-8116,1745148024522413149
96928,-29,-27,-51,-254,778,-8111,1745148024522413149
97120,-28,-25,-49,-268,771,-8099,1745148024522413149
97312,-25,-23,-46,-251,786,-8089,1745148024522413149
97504,-20,-22,-42,-275,805,-8092,1745148024522413149
97696,-17,-21,-39,-284,796,-8097,1745148024522413149
97888,-15,-19,-37,-268,801,-8100,1745148024522413149
98080,-13,-19,-37,-272,795,-8104,1745148024522413149
98272,-13,-18,-36,-273,781,-8092,1745148024522413149
98464,-13,-17,-36,-268,755,-8092,1745148024574995169
98656,-14,-17,-36,-270,757,-8080,1745148024574995169
98848,-17,-15,-35,-275,759,-8080,1745148024574995169
99040,-17,-15,-32,-286,765,-8091,1745148024574995169
99232,-17,-14,-28,-286,779,-8113,1745148024574995169
99424,-16,-14,-25,-279,794,-8107,1745148024574995169
99616,-14,-14,-23,-283,785,-8096,1745148024574995169
99808,-14,-14,-20,-290,793,-8086,1745148024574995169
100000,-13,-12,-15,-302,809,-8116,1745148024574995169
100192,-12,-9,-10,-291,835,-8141,1745148024574995169
100384,-13,-6,-7,-290,833,-8161,1745148024574995169
100576,-12,-7,-6,-287,836,-8169,1745148024574995169
100768,-10,-5,-4,-271,833,-8163,1745148024638360267
100960,-7,-3,0,-272,830,-8139,1745148024638360267
101152,-5,-1,5,-262,825,-8135,1745148024638360267
101344,-4,0,8,-237,800,-8127,1745148024638360267
101536,-2,-1,11,-241,789,-8126,1745148024638360267
101728,-2,0,13,-262,772,-8124,1745148024638360267
101920,-2,1,16,-251,783,-8111,1745148024638360267
102112,-2,3,19,-271,773,-8108,1745148024638360267
102304,-3,6,21,-274,758,-8094,1745148024638360267
102496,-4,7,25,-290,760,-8130,1745148024638360267
102688,-6,10,29,-293,771,-8147,1745148024638360267
102880,-7,15,33,-289,802,-8170,1745148024638360267
103264,-7,24,43,-276,844,-8204,1745148024698582581
103456,-7,26,48,-254,855,-8189,1745148024698582581
103648,-7,28,52,-240,864,-8196,1745148024698582581
103840,-9,32,58,-231,892,-8226,1745148024698582581
104032,-10,32,61,-225,898,-8230,1745148024698582581
104224,-10,32,63,-229,886,-8210,1745148024698582581
104416,-8,33,62,-226,855,-8188,1745148024698582581
104608,-4,33,62,-227,801,-8155,1745148024698582581
104800,-1,32,63,-238,763,-8123,1745148024698582581
104992,-1,34,65,-239,722,-8095,1745148024698582581
105184,-4,35,67,-254,715,-8111,1745148024698582581
105376,-8,38,67,-256,685,-8114,1745148024698582581
105568,-12,41,68,-276,689,-8120,1745148024760594775
105760,-16,45,68,-262,695,-8126,1745148024760594775
105952,-20,47,69,-263,716,-8130,1745148024760594775
106144,-24,50,70,-270,741,-8129,1745148024760594775
106336,-25,53,74,-266,764,-8111,1745148024760594775
106528,-26,55,77,-257,792,-8112,1745148024760594775
106720,-25,58,79,-255,828,-8105,1745148024760594775
106912,-22,59,81,-244,830,-8097,1745148024760594775
107104,-18,61,80,-239,845,-8082,1745148024760594775
107296,-11,60,79,-247,836,-8056,1745148024760594775
107488,-5,61,78,-248,841,-8066,1745148024760594775
107680,1,64,77,-240,825,-8087,1745148024760594775
107872,5,68,78,-241,817,-8118,1745148024817341861
108064,7,70,79,-231,799,-8147,1745148024817341861
108256,8,73,80,-220,786,-8170,1745148024817341861
108448,6,74,80,-202,764,-8187,1745148024817341861
108640,5,76,80,-204,749,-8192,1745148024817341861
108832,1,79,79,-201,748,-8195,1745148024817341861
109024,-4,83,80,-206,749,-8198,1745148024817341861
109216,-9,86,81,-198,752,-8206,1745148024817341861
109408,-13,90,82,-192,761,-8218,1745148024817341861
109600,-16,95,83,-164,783,-8225,1745148024817341861
109792,-18,99,82,-153,784,-8218,1745148024817341861
109984,-21,103,81,-128,788,-8212,1745148024817341861
110176,-25,106,78,-113,780,-8242,1745148024877075117
110368,-27,109,76,-110,768,-8245,1745148024877075117
110560,-27,110,75,-116,784,-8235,1745148024877075117
110752,-26,113,73,-112,763,-8222,1745148024877075117
110944,-24,117,69,-122,747,-8256,1745148024877075117
111136,-24,124,64,-122,718,-8295,1745148024877075117
111328,-24,131,57,-110,678,-8321,1745148024877075117
111520,-26,140,51,-96,665,-8380,1745148024877075117
111712,-27,152,46,-77,663,-8484,1745148024877075117
111904,-28,168,43,-39,663,-8565,1745148024877075117
112096,-32,186,40,27,676,-8706,1745148024877075117
112288,-36,204,35,99,735,-8856,1745148024877075117
112480,-39,221,32,211,771,-8902,1745148024934285532
112672,-47,232,34,384,786,-8812,1745148024934285532
112864,-63,234,40,613,715,-8625,1745148024934285532
113056,-86,214,46,907,515,-8419,1745148024934285532
113248,-124,183,56,1139,247,-8189,1745148024934285532
113440,-169,123,60,1481,-111,-7313,1745148024934285532
113632,-205,5,47,2221,-767,-6156,1745148024934285532
113824,-193,-97,29,3525,-1421,-6886,1745148024934285532
114016,-243,-232,37,5038,-1719,-8421,1745148024934285532
114208,-488,-412,112,6408,-1063,-7779,1745148024934285532
114400,-1073,-328,113,5746,412,-5453,1745148024934285532
114592,-1826,-525,-143,6241,1340,-7967,1745148024934285532
114784,-1972,-724,-517,6296,3141,-8778,1745148024993939883
114976,-1819,-783,-932,6446,4555,-8412,1745148024993939883
115168,-1715,-956,-1357,6898,5191,-8749,1745148024993939883
115360,-1659,-1174,-1690,6801,5457,-8839,1745148024993939883
115552,-1534,-1271,-1907,6250,5671,-8540,1745148024993939883
115744,-1307,-1304,-1995,5568,6022,-7933,1745148024993939883
115936,-1020,-1329,-1972,4899,6511,-7253,1745148024993939883
116128,-716,-1333,-1853,4461,6405,-6781,1745148024993939883
116320,-425,-1348,-1765,4153,6075,-6520,1745148024993939883
116512,-169,-1383,-1705,3875,5562,-6320,1745148024993939883
116704,79,-1428,-1641,3557,4806,-5910,1745148024993939883
116896,313,-1464,-1563,3362,3849,-5493,1745148024993939883
117088,526,-1508,-1455,3113,2733,-5104,1745148025052895490
117280,684,-1539,-1310,2736,1429,-4427,1745148025052895490
117472,790,-1529,-1122,2314,-213,-3984,1745148025052895490
117664,835,-1442,-850,1900,-1873,-3427,1745148025052895490
117856,785,-1286,-507,1190,-3551,-2946,1745148025052895490
118048,622,-1035,-121,622,-5366,-2413,1745148025052895490
118240,337,-711,194,413,-7288,-2462,1745148025052895490
118432,-131,-332,437,-36,-8324,-2056,1745148025052895490
118624,-634,71,798,11,-9627,-1666,1745148025052895490
118816,-1133,432,1166,400,-10732,-1489,1745148025052895490
119008,-1594,744,1519,964,-11534,-1176,1745148025052895490
119200,-2006,1007,1845,1545,-12052,-880,1745148025052895490
119392,-2351,1229,2149,2024,-12233,-782,1745148025109079040
119584,-2630,1434,2435,2294,-11966,-893,1745148025109079040
119776,-2846,1646,2716,2345,-11061,-1333,1745148025109079040
119968,-3004,1877,3005,2441,-9664,-2331,1745148025109079040
120160,-3163,2054,3272,2936,-8632,-1538,1745148025109079040
120352,-3232,2145,3450,3968,-8022,-1813,1745148025109079040
120544,-3085,2257,3639,4291,-6348,-2514,1745148025109079040
120736,-2970,2463,3875,4492,-4359,-2748,1745148025109079040
120928,-2849,2570,4131,4662,-2682,-3032,1745148025109079040
121120,-2619,2670,4389,4898,-1380,-3430,1745148025109079040
121312,-2348,2761,4637,5092,-578,-3729,1745148025109079040
121504,-2063,2847,4878,5308,-198,-4160,1745148025109079040
121696,-1803,2928,5118,5364,-95,-4455,1745148025169474478
121888,-1599,3023,5344,5348,-203,-4832,1745148025169474478
122080,-1456,3122,5549,5241,-300,-5154,1745148025169474478
122272,-1364,3246,5740,5186,-290,-5467,1745148025169474478
122464,-1308,3387,5913,5311,-120,-5730,1745148025169474478
122656,-1268,3539,6063,5536,155,-5861,1745148025169474478
122848,-1229,3700,6176,5941,552,-5955,1745148025169474478
123040,-1179,3848,6242,6542,829,-5813,1745148025169474478
123232,-1112,3948,6241,7481,1247,-5483,1745148025169474478
123424,-1007,3975,6217,8593,1252,-5003,1745148025169474478
123616,-857,3892,6132,9875,1242,-4613,1745148025169474478
123808,-661,3742,5992,11262,1400,-4426,1745148025169474478
124000,-426,3585,5784,12470,1741,-4512,1745148025227277647
124192,-163,3506,5526,13520,3281,-5905,1745148025227277647
124384,21,3600,5304,13762,4263,-5625,1745148025227277647
124576,249,3578,5036,14160,5866,-6384,1745148025227277647
124768,446,3539,4821,14535,7299,-7212,1745148025227277647
124960,584,3534,4658,14539,8623,-7955,1745148025227277647
125152,685,3537,4601,14035,9580,-8159,1745148025227277647
125344,815,3496,4676,13595,9909,-8505,1745148025227277647
125536,921,3467,4819,13181,9482,-8699,1745148025227277647
125728,983,3464,4975,12665,8346,-8700,1745148025227277647
125920,973,3485,5112,12066,6815,-8670,1745148025227277647
126112,871,3544,5222,11639,5216,-8665,1745148025227277647
126304,660,3639,5297,11397,3796,-8378,1745148025291027794
126496,366,3754,5329,11524,2673,-7957,1745148025291027794
126688,16,3851,5318,12013,1902,-7508,1745148025291027794
126880,-345,3951,5282,12670,1479,-7027,1745148025291027794
127072,-677,4057,5207,13292,1531,-6111,1745148025291027794
127264,-1000,4034,5082,14144,1661,-5052,1745148025291027794
127456,-1202,3866,4854,15332,2474,-5061,1745148025291027794
127648,-1342,3697,4607,16210,3302,-4788,1745148025291027794
127840,-1409,3488,4349,16726,4264,-4538,1745148025291027794
128032,-1387,3217,4108,17003,5231,-4518,1745148025291027794
128224,-1293,2932,3924,16970,6028,-4627,1745148025291027794
128416,-1167,2649,3795,16553,6662,-4864,1745148025291027794
128608,-1055,2390,3704,15766,7027,-5104,1745148025343613824
128800,-972,2156,3628,14799,7023,-5354,1745148025343613824
128992,-921,1942,3551,13772,6616,-5488,1745148025343613824
129184,-902,1767,3467,12844,5970,-5547,1745148025343613824
129376,-932,1639,3370,12053,5197,-5557,1745148025343613824
129568,-1022,1555,3261,11402,4423,-5546,1745148025343613824
129760,-1152,1511,3154,10808,3816,-5478,1745148025343613824
129952,-1284,1500,3059,10270,3431,-5421,1745148025343613824
130144,-1390,1498,2964,9812,3308,-5360,1745148025343613824
130336,-1458,1517,2850,9457,3282,-5275,1745148025343613824
130528,-1481,1532,2728,9195,3376,-5158,1745148025343613824
130720,-1455,1522,2597,9001,3488,-5038,1745148025343613824
130912,-1384,1514,2468,8877,3562,-4907,1745148025405641851
131104,-1261,1507,2344,8834,3609,-4755,1745148025405641851
131296,-1105,1486,2209,8842,3571,-4627,1745148025405641851
131488,-926,1439,2056,8865,3388,-4489,1745148025405641851
131680,-720,1370,1891,8881,3098,-4287,1745148025405641851
131872,-496,1275,1721,8899,2592,-4067,1745148025405641851
132064,-274,1165,1547,8805,1995,-3888,1745148025405641851
132256,-64,1071,1373,8593,1417,-3726,1745148025405641851
132448,107,999,1211,8288,922,-3779,1745148025405641851
132640,206,945,1072,7981,454,-3954,1745148025405641851
132832,244,905,974,7745,3,-4009,1745148025405641851
133024,245,874,924,7544,-446,-4046,1745148025405641851
133216,232,867,922,7353,-703,-4181,1745148025466305308
133408,196,884,957,7271,-837,-4360,1745148025466305308
133600,125,906,1022,7297,-925,-4527,1745148025466305308
133792,36,924,1100,7349,-955,-4554,1745148025466305308
133984,-50,933,1179,7446,-980,-4463,1745148025466305308
134176,-123,919,1248,7520,-1024,-4442,1745148025466305308
134368,-176,896,1297,7528,-1027,-4392,1745148025466305308
134560,-202,862,1314,7507,-951,-4252,1745148025466305308
134752,-214,826,1315,7431,-912,-4114,1745148025466305308
134944,-212,780,1300,7346,-1028,-4009,1745148025466305308
135136,-192,724,1259,7323,-988,-3931,1745148025466305308
135328,-175,668,1224,7227,-1004,-3916,1745148025466305308
135520,-154,618,1183,7358,-1428,-3840,1745148025522769167
135712,-115,560,1017,7453,-1846,-3831,1745148025522769167
135904,-95,510,794,7255,-1576,-3969,1745148025522769167
136096,-87,484,679,7131,-1599,-3931,1745148025522769167
136288,-88,444,589,7094,-1682,-3900,1745148025522769167
136480,-87,406,498,7096,-1764,-3933,1745148025522769167
136672,-84,370,423,7044,-1833,-3927,1745148025522769167
136864,-74,343,377,7022,-1889,-3899,1745148025522769167
137056,-65,314,351,7038,-1955,-3858,1745148025522769167
137248,-62,285,337,7061,-2046,-3823,1745148025522769167
137440,-69,256,331,7063,-2112,-3827,1745148025522769167
137632,-81,232,332,7060,-2193,-3815,1745148025522769167
137824,-90,210,340,7038,-2288,-3776,1745148025583224344
138016,-83,190,318,7108,-2489,-3732,1745148025583224344
138208,-80,165,268,7048,-2397,-3542,1745148025583224344
138400,-80,133,242,7061,-2519,-3304,1745148025583224344
138592,-82,90,215,7090,-2719,-3092,1745148025583224344
138784,-74,48,189,7123,-2934,-2991,1745148025583224344
138976,-60,16,159,7123,-3102,-2987,1745148025583224344
139168,-53,-5,130,7111,-3198,-2993,1745148025583224344
139360,-58,-24,102,7084,-3262,-2937,1745148025583224344
139552,-68,-41,77,7053,-3331,-2876,1745148025583224344
139744,-68,-53,61,6989,-3381,-2806,1745148025583224344
139936,-63,-63,53,6943,-3390,-2736,1745148025583224344
140128,-63,-72,49,6937,-3447,-2731,1745148025639662526
140320,-67,-79,49,6933,-3464,-2729,1745148025639662526
140512,-74,-80,48,6902,-3506,-2700,1745148025639662526
140704,-82,-79,50,6892,-3511,-2664,1745148025639662526
140896,-89,-79,55,6797,-3473,-2609,1745148025639662526
141088,-91,-62,70,6562,-3365,-2641,1745148025639662526
141280,-101,-52,93,6643,-3400,-2707,1745148025639662526
141472,-111,-24,61,6843,-3573,-2717,1745148025639662526
141664,-130,-9,-19,6898,-3660,-2498,1745148025639662526
141856,-133,-10,-71,6876,-3721,-2379,1745148025639662526
142048,-128,-11,-80,6842,-3703,-2280,1745148025639662526
142240,-131,-17,-67,6852,-3703,-2233,1745148025639662526
142432,-127,-22,-50,6907,-3715,-2180,1745148025700118224
142624,-113,-35,-39,6999,-3723,-2110,1745148025700118224
142816,-94,-48,-38,7094,-3706,-2085,1745148025700118224
143008,-73,-62,-50,7192,-3719,-2074,1745148025700118224
143200,-58,-77,-69,7219,-3716,-2079,1745148025700118224
143392,-41,-95,-85,7203,-3756,-2065,1745148025700118224
143584,-21,-112,-90,7167,-3789,-2129,1745148025700118224
143776,-3,-126,-88,7084,-3815,-2212,1745148025700118224
143968,11,-134,-87,7010,-3844,-2180,1745148025700118224
144160,16,-135,-93,6941,-3912,-2137,1745148025700118224
144352,16,-136,-101,6884,-3964,-2142,1745148025700118224
144544,16,-135,-102,6825,-3988,-2172,1745148025700118224
144736,16,-130,-97,6795,-3998,-2146,1745148025757818218
144928,14,-124,-89,6762,-3992,-2106,1745148025757818218
145120,14,-115,-81,6768,-3998,-2130,1745148025757818218
145312,15,-105,-78,6773,-3959,-2155,1745148025757818218
145504,17,-96,-82,6788,-3912,-2139,1745148025757818218
145696,18,-92,-88,6836,-3908,-2057,1745148025757818218
145888,20,-92,-95,6841,-3941,-1984,1745148025757818218
146080,28,-92,-97,6884,-4003,-1956,1745148025757818218
146272,39,-90,-97,6913,-4028,-1938,1745148025757818218
146464,48,-85,-98,6900,-4015,-1902,1745148025757818218
146656,50,-83,-99,6897,-4035,-1867,1745148025757818218
146848,48,-84,-98,6924,-4082,-1840,1745148025757818218
147040,55,-84,-92,6921,-4122,-1803,1745148025817080333
147232,64,-83,-83,6940,-4154,-1777,1745148025817080333
147424,67,-80,-78,6953,-4199,-1825,1745148025817080333
147616,66,-77,-77,6947,-4198,-1877,1745148025817080333
147808,64,-71,-78,6911,-4189,-1873,1745148025817080333
148000,58,-61,-77,6861,-4162,-1906,1745148025817080333
148192,49,-50,-73,6849,-4138,-1924,1745148025817080333
148384,42,-40,-67,6847,-4130,-1933,1745148025817080333
148576,39,-33,-59,6873,-4143,-1935,1745148025817080333
148768,41,-27,-54,6897,-4143,-1923,1745148025817080333
148960,45,-20,-50,6889,-4114,-1925,1745148025817080333
149152,47,-11,-50,6877,-4043,-1975,1745148025817080333
149344,47,-3,-51,6869,-3959,-2036,1745148025874810274
149536,47,3,-55,6857,-3918,-2034,1745148025874810274
149728,51,6,-54,6875,-3951,-1992,1745148025874810274
149920,61,5,-53,6912,-4009,-1948,1745148025874810274
150112,69,0,-52,6954,-4084,-1935,1745148025874810274
150304,70,-6,-50,6981,-4102,-1955,1745148025874810274
150496,68,-12,-50,6990,-4158,-1961,1745148025874810274
150688,66,-16,-53,6991,-4197,-1947,1745148025874810274
150880,62,-14,-58,6953,-4242,-2028,1745148025874810274
151072,59,-9,-54,6915,-4231,-2085,1745148025874810274
151264,57,-9,-49,6934,-4257,-2091,1745148025874810274
151456,61,-11,-56,6961,-4273,-2118,1745148025874810274
151648,66,-15,-66,6972,-4280,-2103,1745148025929350297
151840,70,-15,-69,7003,-4272,-2096,1745148025929350297
152032,67,-15,-70,7050,-4277,-2128,1745148025929350297
152224,62,-16,-74,7039,-4235,-2128,1745148025929350297
152416,60,-20,-75,7009,-4186,-2114,1745148025929350297
152608,60,-22,-68,6940,-4154,-2086,1745148025929350297
152800,61,-25,-57,6894,-4136,-2080,1745148025929350297
152992,62,-30,-43,6905,-4180,-2094,1745148025929350297
153184,65,-35,-29,6928,-4259,-2063,1745148025929350297
153376,65,-37,-21,6967,-4356,-2074,1745148025929350297
153568,61,-36,-18,6958,-4369,-2118,1745148025929350297
153760,56,-32,-15,6923,-4351,-2172,1745148025929350297
153952,50,-25,-9,6856,-4287,-2209,1745148025992350971
154144,43,-17,-2,6826,-4199,-2191,1745148025992350971
154336,38,-8,5,6792,-4158,-2175,1745148025992350971
154528,41,-3,11,6825,-4124,-2149,1745148025992350971
154720,50,0,15,6875,-4099,-2161,1745148025992350971
154912,60,-1,17,6907,-4077,-2180,1745148025992350971
155104,70,-4,15,6960,-4086,-2154,1745148025992350971
155296,76,-11,11,7007,-4077,-2090,1745148025992350971
155488,82,-19,8,7039,-4115,-2088,1745148025992350971
155680,88,-25,8,7048,-4131,-2090,1745148025992350971
155872,88,-30,8,7024,-4107,-2076,1745148025992350971
156064,79,-35,5,7015,-4144,-2059,1745148025992350971
156256,69,-42,4,7000,-4193,-2066,1745148026043749824
156256,69,-42,4,7000,-4193,-2066,1745148026043749824
156448,65,-50,6,6960,-4221,-2018,1745148026043749824
156640,59,-54,8,6951,-4249,-2017,1745148026043749824
156832,51,-54,10,6897,-4228,-2057,1745148026043749824
157024,46,-51,13,6851,-4166,-2076,1745148026043749824
157216,38,-46,19,6831,-4117,-2090,1745148026043749824
157408,35,-41,22,6863,-4076,-2090,1745148026043749824
157600,37,-39,23,6891,-4071,-2073,1745148026043749824
157792,42,-38,22,6898,-4045,-2084,1745148026043749824
157984,48,-34,20,6899,-3980,-2101,1745148026043749824
158176,50,-30,19,6881,-3920,-2139,1745148026043749824
158368,52,-26,20,6865,-3860,-2136,1745148026103979066
158560,58,-22,19,6843,-3791,-2099,1745148026103979066
158752,65,-24,16,6869,-3791,-2030,1745148026103979066
158944,69,-27,11,6901,-3825,-1995,1745148026103979066
159136,71,-34,5,6943,-3865,-1936,1745148026103979066
159328,70,-40,-2,6958,-3954,-1922,1745148026103979066
159520,62,-45,-7,6977,-4010,-1944,1745148026103979066
159712,54,-50,-11,6967,-4067,-1960,1745148026103979066
159904,46,-48,-13,6911,-4073,-2010,1745148026103979066
160096,36,-40,-12,6874,-4024,-2068,1745148026103979066
160288,22,-29,-10,6851,-3942,-2079,1745148026103979066
160480,7,-19,-6,6870,-3915,-2085,1745148026103979066
160672,-2,-12,1,6904,-3927,-2072,1745148026161535051
160864,-6,-10,7,6927,-3937,-2067,1745148026161535051
161056,-9,-10,9,6936,-3945,-2086,1745148026161535051
161248,-12,-11,8,6931,-3942,-2104,1745148026161535051
161440,-16,-14,5,6881,-3932,-2072,1745148026161535051
161632,-18,-15,1,6845,-3919,-2040,1745148026161535051
161824,-17,-13,-2,6806,-3928,-2038,1745148026161535051
162016,-11,-9,-3,6796,-3892,-2047,1745148026161535051
162208,-3,-6,-7,6790,-3858,-2067,1745148026161535051
162400,8,-4,-12,6837,-3841,-2066,1745148026161535051
162592,18,-4,-15,6858,-3836,-2054,1745148026161535051
162784,30,-8,-17,6912,-3831,-2022,1745148026161535051
162976,42,-13,-19,6949,-3846,-2033,1745148026221118985
163168,53,-21,-27,6940,-3884,-2021,1745148026221118985
163360,59,-31,-37,6911,-3924,-1983,1745148026221118985
163552,62,-39,-42,6868,-3959,-1962,1745148026221118985
163744,62,-42,-40,6829,-4005,-1985,1745148026221118985
163936,58,-41,-36,6801,-4045,-2004,1745148026221118985
164128,48,-39,-37,6798,-4072,-2001,1745148026221118985
164320,41,-35,-37,6812,-4106,-1957,1745148026221118985
164512,37,-33,-36,6802,-4113,-1895,1745148026221118985
164704,34,-32,-32,6822,-4147,-1900,1745148026221118985
164896,35,-29,-26,6851,-4164,-1913,1745148026221118985
165088,37,-26,-21,6874,-4185,-1949,1745148026221118985
165280,42,-20,-18,6862,-4183,-1985,1745148026278572783
165472,46,-10,-15,6836,-4142,-2032,1745148026278572783
165664,48,-1,-11,6809,-4102,-2036,1745148026278572783
165856,52,7,-5,6801,-4096,-2017,1745148026278572783
166048,59,16,2,6803,-4069,-2006,1745148026278572783
166240,64,25,7,6804,-4034,-2045,1745148026278572783
166432,65,32,10,6814,-4029,-2055,1745148026278572783
166624,65,36,14,6836,-4026,-2012,1745148026278572783
166816,68,34,15,6879,-4076,-1972,1745148026278572783
167008,70,29,13,6887,-4118,-1942,1745148026278572783
167200,72,25,9,6892,-4126,-1950,1745148026278572783
167392,70,25,5,6892,-4119,-1991,1745148026278572783
167584,62,27,1,6865,-4094,-1988,1745148026338293853
167776,52,28,0,6843,-4103,-1997,1745148026338293853
167968,46,29,2,6849,-4120,-2029,1745148026338293853
168160,45,30,5,6874,-4113,-2027,1745148026338293853
168352,44,26,5,6903,-4127,-1994,1745148026338293853
168544,41,20,4,6929,-4163,-2000,1745148026338293853
168736,37,18,6,6921,-4168,-2025,1745148026338293853
168928,33,16,12,6896,-4151,-2048,1745148026338293853
169120,28,16,13,6906,-4145,-2036,1745148026338293853
169312,22,16,11,6897,-4170,-2038,1745148026338293853
169504,21,15,9,6901,-4131,-2019,1745148026338293853
169696,20,15,8,6919,-4117,-2016,1745148026338293853
169888,14,13,9,6927,-4120,-1977,1745148026395805254
170080,8,6,10,6951,-4163,-1889,1745148026395805254
170272,7,-2,14,6928,-4196,-1883,1745148026395805254
170464,7,-5,19,6894,-4204,-1954,1745148026395805254
170656,2,-3,20,6893,-4169,-2019,1745148026395805254
170848,-10,1,15,6868,-4159,-2033,1745148026395805254
171040,-21,5,12,6829,-4133,-2035,1745148026395805254
171232,-25,14,17,6807,-4113,-2037,1745148026395805254
171424,-26,24,24,6817,-4063,-2050,1745148026395805254
171616,-25,33,29,6808,-4019,-2081,1745148026395805254
171808,-22,42,28,6799,-3955,-2135,1745148026395805254
172000,-15,48,25,6820,-3906,-2130,1745148026395805254
172192,-7,52,21,6839,-3889,-2077,1745148026455103410
172384,6,52,18,6871,-3886,-2032,1745148026455103410
172576,20,46,16,6885,-3923,-2018,1745148026455103410
172768,34,40,12,6901,-3939,-2030,1745148026455103410
172960,41,35,8,6905,-3974,-2034,1745148026455103410
173152,42,30,5,6889,-3992,-2020,1745148026455103410
173344,40,24,1,6865,-4007,-1989,1745148026455103410
173536,36,20,-1,6856,-4042,-1988,1745148026455103410
173728,28,17,-2,6863,-4043,-2029,1745148026455103410
173920,20,14,-3,6848,-4047,-2046,1745148026455103410
174112,10,13,-4,6845,-4022,-2068,1745148026455103410
174304,0,12,-5,6840,-4015,-2046,1745148026455103410
174496,-8,10,-5,6855,-4020,-2027,1745148026512215389
174688,-13,8,-6,6850,-4011,-2028,1745148026512215389
174880,-14,7,-7,6875,-3971,-2054,1745148026512215389
175072,-14,6,-10,6887,-3917,-2065,1745148026512215389
175264,-17,5,-14,6893,-3895,-2048,1745148026512215389
175456,-18,2,-20,6892,-3910,-1980,1745148026512215389
175648,-14,-7,-22,6916,-3963,-1922,1745148026512215389
175840,-3,-15,-23,6934,-4005,-1920,1745148026512215389
176032,7,-18,-26,6908,-4028,-1951,1745148026512215389
176224,9,-20,-30,6871,-4032,-1972,1745148026512215389
176416,7,-18,-32,6844,-4021,-1977,1745148026512215389
176608,6,-15,-31,6834,-4024,-1986,1745148026512215389
176800,10,-9,-28,6807,-4019,-1984,1745148026572100519
176992,14,-2,-26,6789,-4007,-1984,1745148026572100519
177184,14,6,-25,6810,-4018,-1991,1745148026572100519
177376,10,13,-25,6825,-4035,-2006,1745148026572100519
177568,4,20,-25,6836,-4051,-2000,1745148026572100519
177760,4,26,-23,6839,-4072,-1965,1745148026572100519
177952,5,30,-23,6863,-4068,-1955,1745148026572100519
178144,7,34,-21,6859,-4057,-1979,1745148026572100519
178336,9,39,-17,6862,-4032,-1979,1745148026572100519
178528,11,42,-11,6867,-4042,-1969,1745148026572100519
178720,15,42,-7,6875,-4046,-1965,1745148026572100519
178912,19,43,-6,6907,-4048,-1981,1745148026572100519
179104,22,44,-5,6901,-4038,-2015,1745148026629334944
179296,23,44,-5,6907,-4025,-2008,1745148026629334944
179488,24,42,-4,6910,-4056,-1986,1745148026629334944
179680,26,37,-3,6910,-4088,-1938,1745148026629334944
179872,29,32,-2,6906,-4133,-1939,1745148026629334944
180064,30,31,-3,6899,-4156,-1991,1745148026629334944
180256,25,33,-3,6877,-4140,-2039,1745148026629334944
180448,16,34,-2,6876,-4117,-2044,1745148026629334944
180640,11,36,0,6884,-4100,-2046,1745148026629334944
180832,9,38,2,6891,-4089,-2056,1745148026629334944
181024,6,38,3,6913,-4058,-2044,1745148026629334944
181216,4,38,4,6921,-4061,-2038,1745148026629334944
181408,3,38,5,6949,-4078,-2046,1745148026689038669
181600,1,37,5,6936,-4087,-2053,1745148026689038669
181792,1,35,5,6921,-4086,-2074,1745148026689038669
181984,1,35,4,6898,-4060,-2089,1745148026689038669
182176,2,36,3,6914,-4046,-2060,1745148026689038669
182368,4,35,1,6899,-4070,-2065,1745148026689038669
182560,6,35,3,6910,-4094,-2068,1745148026689038669
182752,12,36,5,6927,-4096,-2075,1745148026689038669
182944,16,37,6,6918,-4088,-2091,1745148026689038669
183136,18,38,9,6904,-4048,-2117,1745148026689038669
183328,19,39,12,6903,-4030,-2108,1745148026689038669
183520,19,37,15,6923,-4051,-2070,1745148026689038669
183712,19,31,17,6943,-4070,-2037,1745148026746281896
183904,21,27,22,6929,-4102,-2030,1745148026746281896
184096,23,23,26,6952,-4137,-2036,1745148026746281896
184288,17,20,22,6970,-4144,-2047,1745148026746281896
184480,9,16,17,7006,-4171,-2022,1745148026746281896
184672,0,9,10,7017,-4195,-1986,1745148026746281896
184864,-5,2,6,6987,-4214,-1963,1745148026746281896
185056,-10,-4,2,6944,-4220,-1997,1745148026746281896
185248,-12,-5,0,6928,-4212,-1999,1745148026746281896
185440,-15,-4,-1,6904,-4205,-2022,1745148026746281896
185632,-20,0,1,6894,-4178,-2058,1745148026746281896
185824,-24,5,4,6898,-4149,-2093,1745148026746281896
186016,-25,8,9,6900,-4141,-2088,1745148026805730676
186208,-23,11,16,6888,-4114,-2091,1745148026805730676
186400,-17,13,19,6905,-4082,-2095,1745148026805730676
186592,-15,16,19,6884,-4068,-2091,1745148026805730676
186784,-15,17,20,6887,-4068,-2071,1745148026805730676
186976,-12,17,20,6896,-4069,-2045,1745148026805730676
187168,-7,15,18,6910,-4106,-2001,1745148026805730676
187360,-3,10,18,6954,-4147,-1966,1745148026805730676
187552,-1,9,15,6954,-4148,-2002,1745148026805730676
187744,-4,10,15,6938,-4108,-2051,1745148026805730676
187936,-10,12,13,6898,-4032,-2083,1745148026805730676
188128,-15,13,12,6903,-3991,-2071,1745148026805730676
188320,-14,12,11,6925,-3998,-2052,1745148026862934685
188512,-8,6,9,6986,-4012,-2021,1745148026862934685
188704,3,-1,7,6993,-4043,-2024,1745148026862934685
188896,12,-8,5,7007,-4050,-2045,1745148026862934685
189088,14,-13,1,6986,-4030,-2051,1745148026862934685
189280,8,-18,-3,6952,-4038,-2052,1745148026862934685
189472,7,-22,-4,6943,-4047,-2022,1745148026862934685
189664,10,-25,-4,6917,-4095,-2020,1745148026862934685
189856,12,-25,-4,6923,-4086,-2028,1745148026862934685
190048,8,-25,-4,6895,-4081,-2030,1745148026862934685
190240,-4,-22,-3,6907,-4120,-2021,1745148026862934685
190432,-15,-20,0,6909,-4143,-2001,1745148026862934685
190624,-24,-19,2,6900,-4138,-1976,1745148026922630650
190816,-31,-18,3,6866,-4112,-1979,1745148026922630650
191008,-39,-16,2,6845,-4082,-1994,1745148026922630650
191200,-46,-13,2,6823,-4029,-1992,1745148026922630650
191392,-51,-9,2,6815,-3982,-1970,1745148026922630650
191584,-49,-6,2,6833,-3950,-1953,1745148026922630650
191776,-42,-6,0,6887,-3974,-1955,1745148026922630650
191968,-32,-7,-4,6923,-3965,-1975,1745148026922630650
192160,-23,-8,-9,6951,-3944,-1983,1745148026922630650
192352,-16,-10,-13,6948,-3947,-1945,1745148026922630650
192544,-8,-14,-16,6934,-3970,-1930,1745148026922630650
192736,2,-15,-14,6901,-3998,-1930,1745148026922630650
192928,11,-13,-10,6892,-4010,-1968,1745148026980107312
193120,16,-11,-6,6874,-4004,-2010,1745148026980107312
193312,17,-7,-4,6864,-4004,-2018,1745148026980107312
193504,14,-3,-2,6859,-3995,-1975,1745148026980107312
193696,10,-3,-2,6879,-4031,-1927,1745148026980107312
193888,5,-4,-1,6875,-4072,-1917,1745148026980107312
194080,1,-6,0,6883,-4100,-1894,1745148026980107312
194272,-7,-9,-1,6876,-4135,-1882,1745148026980107312
194464,-15,-9,-2,6868,-4149,-1905,1745148026980107312
194656,-22,-8,-3,6850,-4106,-1919,1745148026980107312
194848,-31,-4,-4,6838,-4062,-1948,1745148026980107312
195040,-37,2,-4,6835,-3999,-1975,1745148026980107312
195232,-38,7,-3,6842,-3958,-1996,1745148027039838069
195424,-35,13,0,6856,-3915,-2010,1745148027039838069
195616,-28,17,0,6851,-3894,-2006,1745148027039838069
195808,-17,20,1,6857,-3867,-2003,1745148027039838069
196000,-7,20,-1,6875,-3875,-1988,1745148027039838069
196192,3,18,-3,6902,-3881,-1958,1745148027039838069
196384,15,14,-8,6908,-3871,-1943,1745148027039838069
196576,25,12,-11,6906,-3886,-1954,1745148027039838069
196768,31,9,-16,6890,-3879,-1938,1745148027039838069
196960,35,8,-19,6889,-3915,-1922,1745148027039838069
197152,37,6,-23,6905,-3963,-1937,1745148027039838069
197344,38,5,-24,6915,-3990,-1925,1745148027039838069
197536,35,3,-25,6910,-4008,-1943,1745148027097091296
197728,28,2,-25,6905,-4049,-1944,1745148027097091296
197920,20,4,-22,6895,-4061,-1951,1745148027097091296
198112,12,7,-21,6872,-4064,-1978,1745148027097091296
198304,0,10,-18,6879,-4037,-2004,1745148027097091296
198496,-8,15,-15,6886,-4033,-2009,1745148027097091296
198688,-8,18,-13,6902,-4000,-2013,1745148027097091296
198880,-7,18,-15,6899,-3964,-2037,1745148027097091296
199072,-4,17,-19,6911,-3944,-2044,1745148027097091296
199264,3,15,-24,6897,-3929,-2006,1745148027097091296
199456,11,14,-28,6911,-3911,-1988,1745148027097091296
199648,18,11,-31,6926,-3932,-1969,1745148027097091296
199840,26,7,-33,6943,-3953,-1961,1745148027156752418
200032,33,5,-34,6930,-3998,-1980,1745148027156752418
200224,36,4,-35,6929,-4010,-1997,1745148027156752418
200416,38,2,-36,6924,-4037,-1977,1745148027156752418
200608,36,0,-38,6920,-4099,-1941,1745148027156752418
200800,31,-3,-38,6922,-4157,-1949,1745148027156752418
200992,26,-2,-38,6937,-4196,-1972,1745148027156752418
201184,21,-1,-34,6920,-4193,-1994,1745148027156752418
201376,11,2,-32,6923,-4187,-1990,1745148027156752418
201568,0,3,-30,6901,-4192,-1968,1745148027156752418
201760,-5,4,-25,6882,-4176,-1975,1745148027156752418
201952,-6,9,-19,6874,-4129,-1999,1745148027156752418
202144,-9,15,-15,6882,-4086,-2030,1745148027214028665
202336,-14,19,-14,6874,-4034,-2033,1745148027214028665
202528,-18,21,-13,6888,-3986,-2007,1745148027214028665
202720,-18,21,-11,6912,-3991,-1993,1745148027214028665
202912,-14,18,-11,6932,-3988,-2001,1745148027214028665
203104,-9,16,-12,6955,-3994,-1999,1745148027214028665
203296,-8,10,-17,6968,-3998,-1950,1745148027214028665
203488,-8,5,-22,6949,-4024,-1963,1745148027214028665
203680,-4,1,-25,6946,-4048,-1991,1745148027214028665
203872,0,1,-27,6925,-4006,-2032,1745148027214028665
204064,1,3,-30,6905,-4001,-2065,1745148027214028665
204256,4,4,-30,6899,-3993,-2069,1745148027214028665
204448,9,4,-28,6930,-4032,-2023,1745148027273819161
204640,12,3,-25,6942,-4077,-1983,1745148027273819161
204832,14,-1,-21,6955,-4145,-1969,1745148027273819161
205024,12,-3,-17,6945,-4175,-1968,1745148027273819161
205216,7,-4,-16,6897,-4179,-2000,1745148027273819161
205408,-1,-2,-15,6869,-4146,-2023,1745148027273819161
205600,-9,2,-11,6861,-4111,-2016,1745148027273819161
205792,-16,9,-7,6875,-4096,-2015,1745148027273819161
205984,-17,13,-4,6894,-4064,-2031,1745148027273819161
206176,-20,17,-3,6925,-4033,-2023,1745148027273819161
206368,-22,18,-5,6967,-4011,-1997,1745148027273819161
206560,-24,14,-10,7000,-4010,-1976,1745148027273819161
206752,-21,10,-13,7013,-3992,-1966,1745148027330949680
206944,-15,3,-17,7001,-3988,-1962,1745148027330949680
207136,-13,-2,-20,6978,-3972,-1930,1745148027330949680
207328,-12,-7,-21,6956,-4001,-1906,1745148027330949680
207520,-10,-12,-20,6941,-4038,-1876,1745148027330949680
207712,-7,-14,-18,6945,-4090,-1883,1745148027330949680
207904,-8,-13,-16,6953,-4097,-1910,1745148027330949680
208096,-11,-10,-13,6927,-4103,-1946,1745148027330949680
208288,-17,-5,-10,6945,-4095,-1916,1745148027330949680
208480,-21,-1,-3,6923,-4076,-1888,1745148027330949680
208672,-24,1,5,6933,-4087,-1848,1745148027330949680
208864,-23,3,13,6910,-4107,-1867,1745148027330949680
209056,-21,9,20,6904,-4097,-1918,1745148027390686322
209248,-23,18,25,6886,-4082,-1974,1745148027390686322
209440,-26,27,30,6884,-4048,-2001,1745148027390686322
209632,-26,37,34,6871,-4001,-2001,1745148027390686322
209824,-23,46,36,6862,-3951,-2025,1745148027390686322
210016,-16,53,35,6883,-3906,-2061,1745148027390686322
210208,-7,58,33,6899,-3878,-2097,1745148027390686322
210400,3,62,27,6907,-3853,-2115,1745148027390686322
210592,13,59,20,6949,-3843,-2093,1745148027390686322
210784,25,53,12,6969,-3869,-2084,1745148027390686322
210976,40,43,5,6995,-3912,-2052,1745148027390686322
211168,55,36,-1,6993,-3937,-2054,1745148027390686322
211360,64,29,-8,6991,-3951,-2082,1745148027447710385
211552,64,21,-14,6994,-4001,-2089,1745148027447710385
211744,62,12,-18,6996,-4068,-2068,1745148027447710385
211936,63,3,-18,7010,-4132,-2041,1745148027447710385
212128,62,-5,-18,7008,-4173,-2031,1745148027447710385
212320,52,-11,-18,6976,-4194,-2049,1745148027447710385
212512,36,-16,-14,6957,-4207,-2059,1745148027447710385
212704,22,-16,-8,6937,-4198,-2047,1745148027447710385
212896,7,-15,-1,6939,-4183,-2036,1745148027447710385
213088,-8,-17,1,6951,-4168,-2016,1745148027447710385
213280,-15,-19,3,6958,-4159,-2006,1745148027447710385
213472,-16,-20,7,6953,-4123,-2045,1745148027447710385
213664,-13,-19,9,6949,-4084,-2034,1745148027507657389
213856,-14,-17,8,6947,-4030,-2033,1745148027507657389
214048,-12,-14,6,6922,-4003,-2050,1745148027507657389
214240,-4,-12,5,6929,-3993,-2048,1745148027507657389
214432,5,-11,3,6934,-3982,-2033,1745148027507657389
214624,11,-10,2,6939,-3965,-2026,1745148027507657389
214816,15,-8,1,6946,-3986,-2023,1745148027507657389
215008,15,-10,1,6962,-4027,-1957,1745148027507657389
215200,13,-13,1,6991,-4119,-1917,1745148027507657389
215392,15,-17,4,6993,-4185,-1927,1745148027507657389
215584,13,-17,4,6980,-4195,-1963,1745148027507657389
215776,1,-14,4,6939,-4165,-1984,1745148027507657389
215968,-13,-10,7,6915,-4132,-1993,1745148027564715982
216160,-19,-5,13,6905,-4097,-2013,1745148027564715982
216352,-21,0,18,6897,-4038,-2010,1745148027564715982
216544,-21,2,22,6922,-4002,-1996,1745148027564715982
216736,-19,2,23,6951,-3982,-1999,1745148027564715982
216928,-15,0,23,6972,-3962,-1990,1745148027564715982
217120,-9,-2,23,6987,-3962,-1999,1745148027564715982
217312,-2,-6,21,7011,-3972,-2005,1745148027564715982
217504,7,-9,17,6987,-3985,-2003,1745148027564715982
217696,15,-11,13,6963,-3961,-1990,1745148027564715982
217888,19,-14,8,6922,-3955,-1993,1745148027564715982
218080,20,-15,3,6920,-3967,-1981,1745148027564715982
218272,21,-17,-1,6923,-4001,-1957,1745148027624611060
218464,21,-19,-3,6939,-4079,-1919,1745148027624611060
218656,18,-23,-5,6958,-4107,-1914,1745148027624611060
218848,15,-27,-5,6961,-4158,-1906,1745148027624611060
219040,7,-31,-4,6964,-4188,-1911,1745148027624611060
219232,0,-32,1,6930,-4172,-1916,1745148027624611060
219424,-8,-30,4,6914,-4173,-1934,1745148027624611060
219616,-18,-27,8,6885,-4140,-1949,1745148027624611060
219808,-27,-22,14,6874,-4116,-1967,1745148027624611060
220000,-30,-17,21,6880,-4102,-1970,1745148027624611060
220192,-29,-13,25,6893,-4093,-1979,1745148027624611060
220384,-25,-8,27,6888,-4071,-1989,1745148027624611060
220576,-23,-5,27,6880,-4048,-1979,1745148027681512780
220768,-21,-1,25,6874,-3995,-1949,1745148027681512780
220960,-17,2,23,6864,-3967,-1933,1745148027681512780
221152,-12,4,22,6867,-3961,-1917,1745148027681512780
221344,-5,3,20,6909,-3975,-1878,1745148027681512780
221536,4,2,18,6922,-4004,-1874,1745148027681512780
221728,11,-1,16,6960,-4041,-1900,1745148027681512780
221920,16,-1,13,6957,-4023,-1934,1745148027681512780
222112,15,2,10,6948,-3994,-1932,1745148027681512780
222304,12,4,10,6945,-3975,-1948,1745148027681512780
222496,13,2,12,6964,-4000,-1928,1745148027681512780
222688,20,-1,14,6967,-4028,-1919,1745148027681512780
222880,27,-2,13,6965,-4042,-1949,1745148027741440306
223072,26,-5,11,6944,-4061,-1934,1745148027741440306
223264,20,-7,10,6923,-4093,-1898,1745148027741440306
223456,15,-9,11,6902,-4130,-1898,1745148027741440306
223648,11,-9,11,6877,-4117,-1933,1745148027741440306
223840,5,-7,11,6867,-4122,-1959,1745148027741440306
224032,-3,-6,11,6873,-4121,-1955,1745148027741440306
224224,-6,-3,13,6863,-4146,-1939,1745148027741440306
224416,-7,0,17,6878,-4141,-1949,1745148027741440306
224608,-8,4,20,6874,-4132,-1976,1745148027741440306
224800,-10,8,23,6892,-4078,-1987,1745148027741440306
224992,-11,11,26,6895,-4053,-1995,1745148027741440306
225184,-7,11,27,6896,-4026,-2011,1745148027798807229
225376,0,13,27,6902,-3985,-2033,1745148027798807229
225568,4,13,26,6898,-3952,-2028,1745148027798807229
225760,9,12,23,6904,-3961,-2007,1745148027798807229
225952,17,9,18,6916,-4000,-1958,1745148027798807229
226144,25,3,14,6927,-4066,-1915,1745148027798807229
226336,27,-3,9,6936,-4126,-1928,1745148027798807229
226528,26,-6,6,6940,-4152,-1947,1745148027798807229
226720,23,-5,6,6922,-4157,-1957,1745148027798807229
226912,16,-3,7,6901,-4134,-1962,1745148027798807229
227104,6,-1,10,6888,-4144,-1985,1745148027798807229
227296,5,1,15,6892,-4134,-1984,1745148027798807229
227488,5,2,18,6908,-4142,-2006,1745148027858633454
227680,3,4,19,6915,-4151,-2005,1745148027858633454
227872,0,4,20,6922,-4150,-2011,1745148027858633454
228064,-3,4,20,6902,-4126,-2016,1745148027858633454
228256,-6,4,22,6901,-4104,-1992,1745148027858633454
228448,-8,3,22,6883,-4094,-1966,1745148027858633454
228640,-7,2,21,6881,-4084,-1945,1745148027858633454
228832,-4,2,22,6882,-4105,-1937,1745148027858633454
229024,2,1,21,6898,-4111,-1945,1745148027858633454
229216,7,3,19,6905,-4103,-1981,1745148027858633454
229408,7,5,17,6913,-4067,-1998,1745148027858633454
229600,7,6,16,6917,-4054,-1975,1745148027858633454
229792,13,5,18,6940,-4063,-1947,1745148027915661891
229984,23,1,20,6924,-4091,-1943,1745148027915661891
230176,30,-5,20,6925,-4105,-1968,1745148027915661891
230368,30,-8,17,6900,-4120,-1988,1745148027915661891
230560,27,-10,15,6884,-4163,-1976,1745148027915661891
230752,23,-11,15,6862,-4202,-1957,1745148027915661891
230944,18,-11,16,6872,-4221,-1941,1745148027915661891
231136,12,-7,18,6859,-4217,-1948,1745148027915661891
231328,4,-2,19,6860,-4204,-1971,1745148027915661891
231520,-4,5,20,6872,-4169,-1979,1745148027915661891
231712,-8,10,22,6889,-4116,-2007,1745148027915661891
231904,-7,13,23,6891,-4079,-1975,1745148027915661891
232096,-1,14,23,6924,-4056,-1963,1745148027975596396
232288,7,11,23,6943,-4061,-1962,1745148027975596396
232480,18,7,21,6947,-4055,-1965,1745148027975596396
232672,25,3,20,6925,-4069,-1982,1745148027975596396
232864,30,1,20,6922,-4073,-1976,1745148027975596396
233056,35,-4,20,6909,-4116,-1939,1745148027975596396
233248,36,-8,19,6919,-4181,-1925,1745148027975596396
233440,38,-10,19,6885,-4212,-1948,1745148027975596396
233632,35,-8,18,6870,-4222,-1967,1745148027975596396
233824,28,-6,19,6871,-4230,-1967,1745148027975596396
234016,20,-4,21,6850,-4216,-1955,1745148027975596396
234208,14,-1,24,6825,-4190,-1956,1745148027975596396
234400,13,2,27,6831,-4164,-1976,1745148028032625666
234592,12,5,29,6838,-4130,-2000,1745148028032625666
234784,10,6,27,6850,-4120,-1987,1745148028032625666
234976,8,3,27,6890,-4137,-1933,1745148028032625666
235168,11,-4,27,6929,-4184,-1905,1745148028032625666
235360,16,-7,27,6923,-4204,-1919,1745148028032625666
235552,15,-9,24,6893,-4168,-1949,1745148028032625666
235744,6,-9,23,6863,-4155,-1958,1745148028032625666
235936,-1,-7,23,6850,-4150,-1966,1745148028032625666
236128,-3,-6,25,6829,-4138,-1932,1745148028032625666
236320,-4,-2,27,6820,-4144,-1936,1745148028032625666
236512,-3,0,27,6834,-4130,-1940,1745148028032625666
236704,-4,1,26,6852,-4137,-1922,1745148028092407829
236896,-8,1,24,6868,-4158,-1896,1745148028092407829
237088,-10,-2,23,6881,-4186,-1877,1745148028092407829
237280,-8,-4,25,6873,-4169,-1904,1745148028092407829
237472,-7,-3,27,6841,-4137,-1925,1745148028092407829
237664,-8,2,28,6821,-4081,-1941,1745148028092407829
237856,-10,6,30,6797,-4045,-1927,1745148028092407829
238048,-9,7,31,6815,-4054,-1858,1745148028092407829
238240,-6,5,32,6836,-4096,-1832,1745148028092407829
238432,-2,3,32,6875,-4142,-1865,1745148028092407829
238624,0,4,30,6871,-4155,-1878,1745148028092407829
238816,-4,6,29,6844,-4164,-1911,1745148028092407829
239008,-8,10,30,6825,-4122,-1929,1745148028149488557
239200,-9,14,33,6810,-4097,-1904,1745148028149488557
239392,-8,17,35,6813,-4076,-1897,1745148028149488557
239584,-4,20,37,6801,-4078,-1939,1745148028149488557
239776,2,23,36,6837,-4050,-1969,1745148028149488557
239968,2,25,34,6865,-4064,-1965,1745148028149488557
240160,0,24,30,6882,-4072,-1926,1745148028149488557
240352,3,21,30,6896,-4104,-1915,1745148028149488557
240544,6,18,32,6866,-4107,-1936,1745148028149488557
240736,6,18,30,6853,-4084,-1986,1745148028149488557
240928,3,18,29,6814,-4078,-1958,1745148028149488557
241120,0,15,26,6820,-4126,-1902,1745148028149488557
241312,2,10,25,6832,-4183,-1907,1745148028209551915
241504,5,8,25,6839,-4196,-1948,1745148028209551915
241696,2,11,24,6820,-4163,-2002,1745148028209551915
241888,-5,16,24,6796,-4101,-2039,1745148028209551915
242080,-11,21,25,6810,-4043,-2045,1745148028209551915
242272,-11,25,28,6830,-4022,-2040,1745148028209551915
242464,-5,24,28,6868,-4019,-2025,1745148028209551915
242656,1,21,27,6887,-4052,-1994,1745148028209551915
242848,5,16,26,6922,-4066,-1987,1745148028209551915
243040,6,11,22,6899,-4093,-2010,1745148028209551915
243232,3,8,16,6895,-4117,-2006,1745148028209551915
243424,-4,5,13,6860,-4143,-2010,1745148028209551915
243616,-8,4,14,6831,-4157,-2023,1745148028266463426
243808,-9,6,15,6824,-4138,-2027,1745148028266463426
244000,-13,8,14,6810,-4129,-2068,1745148028266463426
244192,-16,10,14,6812,-4119,-2091,1745148028266463426
244384,-15,13,15,6835,-4089,-2085,1745148028266463426
244576,-16,15,14,6864,-4038,-2101,1745148028266463426
244768,-19,11,13,6913,-4028,-2107,1745148028266463426
244960,-17,2,11,6939,-4041,-2089,1745148028266463426
245152,-10,-6,8,6954,-4053,-2080,1745148028266463426
245344,-6,-16,2,6986,-4107,-2071,1745148028266463426
245536,-7,-28,-4,6987,-4170,-2020,1745148028266463426
245728,-10,-38,-9,6937,-4225,-2022,1745148028266463426
245920,-13,-45,-11,6892,-4240,-2062,1745148028326536836
246112,-21,-44,-13,6853,-4210,-2089,1745148028326536836
246304,-31,-37,-14,6811,-4182,-2124,1745148028326536836
246496,-37,-30,-12,6780,-4129,-2128,1745148028326536836
246688,-32,-26,-8,6794,-4088,-2128,1745148028326536836
246880,-19,-23,-4,6822,-4041,-2131,1745148028326536836
247072,-3,-25,-5,6858,-4022,-2129,1745148028326536836
247264,14,-27,-8,6894,-4004,-2096,1745148028326536836
247456,32,-33,-11,6906,-4045,-2043,1745148028326536836
247648,50,-43,-14,6918,-4130,-1949,1745148028326536836
247840,67,-55,-14,6946,-4207,-1936,1745148028326536836
248032,79,-62,-13,6904,-4279,-1958,1745148028326536836
248224,80,-61,-10,6849,-4309,-1978,1745148028383682407
248416,76,-55,-7,6814,-4319,-2013,1745148028383682407
248608,69,-48,-2,6811,-4342,-2012,1745148028383682407
248800,63,-42,2,6801,-4348,-2010,1745148028383682407
248992,57,-35,7,6806,-4310,-2021,1745148028383682407
249184,49,-28,12,6806,-4260,-2041,1745148028383682407
249376,40,-20,16,6814,-4234,-2059,1745148028383682407
249568,36,-15,18,6821,-4185,-2064,1745148028383682407
249760,36,-14,17,6819,-4133,-2028,1745148028383682407
249952,36,-16,12,6811,-4100,-1993,1745148028383682407
250144,39,-18,5,6816,-4119,-1990,1745148028383682407
250336,45,-21,-1,6828,-4124,-1992,1745148028383682407
250528,51,-25,-6,6849,-4158,-2004,1745148028443487694
250720,61,-27,-9,6856,-4153,-2015,1745148028443487694
250912,72,-28,-11,6855,-4135,-2027,1745148028443487694
251104,77,-29,-14,6836,-4081,-2057,1745148028443487694
251296,76,-30,-18,6810,-4042,-2071,1745148028443487694
251488,75,-33,-20,6818,-4023,-2070,1745148028443487694
251680,76,-39,-21,6839,-4040,-2086,1745148028443487694
251872,76,-45,-22,6863,-4084,-2074,1745148028443487694
252064,76,-51,-22,6851,-4134,-2091,1745148028443487694
252256,71,-54,-22,6849,-4131,-2117,1745148028443487694
252448,63,-58,-24,6851,-4110,-2101,1745148028443487694
252640,50,-64,-26,6851,-4128,-2037,1745148028443487694
252832,44,-70,-27,6833,-4171,-2018,1745148028500559465
253024,49,-71,-25,6791,-4179,-2072,1745148028500559465
253216,54,-65,-24,6769,-4125,-2169,1745148028500559465
253408,52,-56,-26,6757,-4064,-2241,1745148028500559465
253600,47,-46,-29,6745,-4002,-2280,1745148028500559465
253792,49,-38,-29,6754,-3961,-2327,1745148028500559465
253984,59,-31,-27,6766,-3919,-2369,1745148028500559465
254176,70,-25,-26,6786,-3893,-2420,1745148028500559465
254368,82,-24,-30,6826,-3884,-2484,1745148028500559465
254560,89,-27,-36,6854,-3901,-2532,1745148028500559465
254752,91,-33,-45,6860,-3921,-2601,1745148028500559465
254944,89,-40,-52,6875,-3937,-2698,1745148028500559465
255136,80,-46,-62,6843,-3954,-2811,1745148028560406731
255328,64,-52,-74,6836,-3930,-2999,1745148028560406731
255520,41,-59,-89,6835,-3948,-3151,1745148028560406731
255712,10,-70,-107,6836,-3981,-3341,1745148028560406731
255904,-26,-84,-126,6844,-4011,-3518,1745148028560406731
256096,-69,-96,-146,6831,-4020,-3706,1745148028560406731
256288,-121,-106,-167,6840,-3994,-3897,1745148028560406731
256480,-184,-111,-188,6839,-3934,-4101,1745148028560406731
256672,-248,-118,-208,6882,-3852,-4283,1745148028560406731
256864,-311,-130,-227,6958,-3719,-4472,1745148028560406731
257056,-365,-146,-254,7049,-3543,-4619,1745148028560406731
257248,-408,-168,-288,7111,-3316,-4704,1745148028560406731
257440,-435,-192,-324,7160,-3010,-4789,1745148028614519153
257632,-441,-224,-362,7223,-2668,-4951,1745148028614519153
257824,-427,-268,-401,7370,-2339,-5172,1745148028614519153
258016,-396,-327,-448,7604,-2052,-5465,1745148028614519153
258208,-356,-401,-505,7874,-1815,-5702,1745148028614519153
258400,-310,-486,-567,8118,-1624,-5925,1745148028614519153
258592,-264,-580,-636,8305,-1462,-6133,1745148028614519153
258784,-225,-680,-706,8378,-1300,-6332,1745148028614519153
258976,-193,-785,-776,8378,-1137,-6512,1745148028614519153
259168,-172,-885,-844,8392,-1075,-6650,1745148028614519153
259360,-168,-980,-915,8413,-1030,-6737,1745148028614519153
259552,-183,-1070,-990,8460,-1042,-6802,1745148028614519153
259744,-220,-1159,-1063,8566,-1146,-6800,1745148028677380922
259936,-275,-1253,-1137,8688,-1270,-6777,1745148028677380922
260128,-336,-1345,-1214,8810,-1326,-6747,1745148028677380922
260320,-400,-1435,-1299,8902,-1298,-6792,1745148028677380922
260512,-466,-1516,-1389,8987,-1191,-6892,1745148028677380922
260704,-529,-1591,-1482,9056,-993,-6942,1745148028677380922
260896,-585,-1666,-1576,9192,-772,-6958,1745148028677380922
261088,-631,-1746,-1668,9389,-587,-6944,1745148028677380922
261280,-663,-1841,-1758,9641,-428,-6896,1745148028677380922
261472,-681,-1948,-1848,9883,-264,-6896,1745148028677380922
261664,-684,-2060,-1936,10122,-98,-6938,1745148028677380922
261856,-679,-2176,-2022,10331,65,-7037,1745148028677380922
262048,-660,-2302,-2106,10346,256,-6826,1745148028734525921
262240,-630,-2483,-2172,10277,519,-6329,1745148028734525921
262432,-588,-2711,-2228,10607,486,-6844,1745148028734525921
262624,-563,-2750,-2328,11109,911,-7981,1745148028734525921
262816,-597,-2646,-2376,10918,999,-7347,1745148028734525921
263008,-598,-2636,-2421,10815,1157,-6670,1745148028734525921
263200,-587,-2754,-2483,10926,1274,-6318,1745148028734525921
263392,-546,-2976,-2562,11141,1578,-5942,1745148028734525921
263584,-489,-3219,-2624,11522,1762,-6099,1745148028734525921
263776,-407,-3390,-2706,11890,2020,-6499,1745148028734525921
263968,-364,-3444,-2771,12003,2392,-6663,1745148028734525921
264160,-339,-3464,-2770,11962,2163,-6127,1745148028734525921
264352,-294,-3558,-2822,11959,2181,-6033,1745148028794244490
264544,-242,-3656,-2886,11916,2161,-5943,1745148028794244490
264736,-212,-3754,-2956,11788,2208,-5960,1745148028794244490
264928,-197,-3854,-3027,11679,2278,-5948,1745148028794244490
265120,-200,-3929,-3093,11575,2335,-6006,1745148028794244490
265312,-212,-3987,-3152,11439,2358,-6026,1745148028794244490
265504,-232,-4025,-3207,11244,2417,-6043,1745148028794244490
265696,-268,-4040,-3261,11087,2445,-6076,1745148028794244490
265888,-321,-4034,-3319,10944,2465,-6091,1745148028794244490
266080,-384,-4004,-3383,10814,2522,-5927,1745148028794244490
266272,-452,-3959,-3439,10625,2556,-5680,1745148028794244490
266464,-509,-3929,-3488,10400,2589,-5394,1745148028794244490
266656,-555,-3936,-3541,9898,2635,-4768,1745148028851428083
266848,-555,-4039,-3583,9895,2725,-5020,1745148028851428083
267040,-552,-4078,-3629,9782,2669,-5190,1745148028851428083
267232,-542,-4072,-3694,9566,2653,-5134,1745148028851428083
267424,-512,-4068,-3767,9270,2715,-5152,1745148028851428083
267616,-495,-4040,-3843,8912,2736,-5141,1745148028851428083
267808,-484,-3995,-3909,8553,2733,-5201,1745148028851428083
268000,-463,-3934,-3955,8079,2714,-5240,1745148028851428083
268192,-424,-3851,-3982,7624,2691,-5278,1745148028851428083
268384,-375,-3752,-3998,7218,2661,-5313,1745148028851428083
268576,-317,-3644,-3998,6806,2646,-5275,1745148028851428083
268768,-254,-3530,-3962,6472,2529,-5226,1745148028851428083
268960,-183,-3422,-3908,6288,2233,-5075,1745148028909322189
269152,-109,-3321,-3866,6136,1906,-4954,1745148028909322189
269344,-32,-3230,-3828,5942,1604,-4835,1745148028909322189
269536,38,-3144,-3797,5740,1290,-4630,1745148028909322189
269728,87,-3065,-3776,5584,992,-4372,1745148028909322189
269920,117,-2995,-3766,5351,729,-4123,1745148028909322189
270112,146,-2920,-3761,4989,521,-4008,1745148028909322189
270304,180,-2834,-3753,4572,463,-4034,1745148028909322189
270496,208,-2754,-3741,4200,472,-3997,1745148028909322189
270688,225,-2654,-3726,3874,494,-4105,1745148028909322189
270880,237,-2541,-3702,3677,543,-4197,1745148028909322189
271072,247,-2436,-3663,3522,604,-4183,1745148028909322189
271264,258,-2325,-3606,3446,582,-4181,1745148028969924240
271456,278,-2213,-3538,3289,537,-4131,1745148028969924240
271648,300,-2086,-3461,3089,404,-4162,1745148028969924240
271840,325,-1963,-3378,2927,229,-4225,1745148028969924240
272032,355,-1840,-3299,2704,43,-4256,1745148028969924240
272224,383,-1711,-3226,2446,-168,-4266,1745148028969924240
272416,411,-1584,-3158,2304,-361,-4280,1745148028969924240
272608,433,-1466,-3090,2212,-558,-4251,1745148028969924240
272800,454,-1359,-3025,2080,-743,-4257,1745148028969924240
272992,478,-1258,-2964,1948,-903,-4243,1745148028969924240
273184,508,-1160,-2912,1774,-1010,-4282,1745148028969924240
273376,531,-1062,-2862,1660,-1067,-4384,1745148028969924240
273568,538,-962,-2814,1546,-1103,-4515,1745148029027171894
273760,529,-855,-2762,1455,-1136,-4731,1745148029027171894
273952,517,-743,-2701,1339,-1166,-4969,1745148029027171894
274144,515,-621,-2624,1200,-1136,-5137,1745148029027171894
274336,520,-489,-2534,1127,-1110,-5277,1745148029027171894
274528,526,-349,-2440,1076,-1084,-5416,1745148029027171894
274720,534,-209,-2345,1105,-1085,-5528,1745148029027171894
274912,537,-77,-2246,1100,-1134,-5543,1745148029027171894
275104,538,47,-2145,1118,-1245,-5645,1745148029027171894
275296,535,151,-2041,1120,-1415,-5595,1745148029027171894
275488,525,244,-1941,1094,-1621,-5524,1745148029027171894
275680,512,311,-1844,1044,-1831,-5453,1745148029027171894
275872,502,387,-1746,914,-1977,-5387,1745148029086819422
276064,493,458,-1636,845,-2108,-5317,1745148029086819422
276256,479,507,-1522,821,-2316,-5165,1745148029086819422
276448,464,552,-1428,841,-2500,-5124,1745148029086819422
276640,448,585,-1344,955,-2639,-5135,1745148029086819422
276832,435,616,-1268,1076,-2707,-5216,1745148029086819422
277024,426,649,-1202,1205,-2694,-5371,1745148029086819422
277216,404,673,-1143,1404,-2687,-5568,1745148029086819422
277408,380,674,-1092,1643,-2686,-5844,1745148029086819422
277600,350,662,-1047,1852,-2652,-6146,1745148029086819422
277792,307,641,-1006,2000,-2574,-6405,1745148029086819422
277984,263,623,-974,2063,-2441,-6704,1745148029086819422
278176,225,608,-951,2058,-2243,-6977,1745148029143613382
278368,199,585,-937,1924,-2088,-7124,1745148029143613382
278560,179,540,-921,1804,-1942,-7186,1745148029143613382
278752,164,486,-902,1676,-1847,-7350,1745148029143613382
278944,147,447,-874,1500,-1818,-7508,1745148029143613382
279136,125,432,-832,1344,-1845,-7610,1745148029143613382
279328,94,439,-780,1153,-1843,-7691,1745148029143613382
279520,62,456,-721,991,-1842,-7725,1745148029143613382
279712,36,479,-658,906,-1875,-7761,1745148029143613382
279904,14,505,-600,928,-1898,-7912,1745148029143613382
280096,4,567,-539,1005,-1809,-8296,1745148029143613382
280288,-37,643,-492,984,-1783,-7976,1745148029143613382
280480,-43,666,-448,1101,-1722,-8070,1745148029203972258
280672,-45,677,-410,1207,-1614,-8131,1745148029203972258
280864,-37,678,-376,1284,-1483,-8078,1745148029203972258
281056,-17,679,-347,1358,-1331,-8098,1745148029203972258
281248,12,670,-328,1466,-1164,-8117,1745148029203972258
281440,45,649,-312,1552,-1003,-8127,1745148029203972258
281632,75,616,-307,1640,-841,-8161,1745148029203972258
281824,97,583,-309,1642,-692,-8241,1745148029203972258
282016,114,549,-310,1573,-581,-8259,1745148029203972258
282208,124,516,-305,1493,-452,-8300,1745148029203972258
282400,124,486,-294,1375,-363,-8318,1745148029203972258
282592,118,460,-277,1238,-328,-8350,1745148029203972258
282784,110,439,-255,1111,-302,-8402,1745148029262250215
282976,102,423,-229,993,-334,-8474,1745148029262250215
283168,96,415,-197,926,-381,-8487,1745148029262250215
283360,82,416,-161,883,-383,-8529,1745148029262250215
283552,57,426,-125,829,-345,-8575,1745148029262250215
283744,30,441,-94,809,-277,-8596,1745148029262250215
283936,7,461,-67,848,-194,-8577,1745148029262250215
284128,-8,480,-44,886,-133,-8525,1745148029262250215
284320,-16,494,-22,939,-76,-8449,1745148029262250215
284512,-19,504,1,994,-16,-8363,1745148029262250215
284704,-13,497,20,1040,6,-8246,1745148029262250215
284896,-3,492,33,1107,16,-8140,1745148029262250215
285088,4,492,38,1119,23,-8069,1745148029320302966
285280,10,475,40,1109,31,-8010,1745148029320302966
285472,12,461,44,1057,35,-7925,1745148029320302966
285664,9,449,50,1026,48,-7874,1745148029320302966
285856,-1,438,55,982,50,-7817,1745148029320302966
286048,-13,426,61,931,30,-7762,1745148029320302966
286240,-23,417,71,873,56,-7775,1745148029320302966
286432,-35,409,83,876,95,-7731,1745148029320302966
286624,-43,389,88,825,165,-7825,1745148029320302966
286816,-17,367,93,835,322,-8010,1745148029320302966
287008,57,336,108,890,539,-8127,1745148029320302966
287200,166,287,122,1009,803,-8319,1745148029320302966
287392,263,228,116,1158,1024,-8512,1745148029378439310
287584,323,168,86,1217,1142,-8597,1745148029378439310
287776,360,104,46,1210,1137,-8483,1745148029378439310
287968,373,25,11,1148,962,-8525,1745148029378439310
288160,324,-57,-12,1074,693,-8865,1745148029378439310
288352,197,-122,-14,952,324,-9243,1745148029378439310
288544,36,-184,9,872,53,-9391,1745148029378439310
288736,-105,-281,40,839,3,-9443,1745148029378439310
288928,-205,-369,63,554,261,-9484,1745148029378439310
289120,-278,-406,75,60,481,-9292,1745148029378439310
289312,-314,-393,78,-383,507,-9159,1745148029378439310
289504,-312,-355,80,-661,449,-8861,1745148029378439310
289696,-268,-316,84,-732,407,-8494,1745148029438036526
289888,-212,-275,85,-723,396,-8239,1745148029438036526
290080,-184,-232,78,-606,396,-8075,1745148029438036526
290272,-193,-195,68,-406,382,-7895,1745148029438036526
290464,-221,-173,66,-201,343,-7724,1745148029438036526
290656,-243,-171,76,17,356,-7590,1745148029438036526
290848,-259,-181,90,215,410,-7495,1745148029438036526
291040,-272,-196,99,341,438,-7492,1745148029438036526
291232,-287,-209,98,393,496,-7512,1745148029438036526
291424,-297,-219,89,366,561,-7532,1745148029438036526
291616,-294,-226,77,356,623,-7570,1745148029438036526
291808,-276,-229,69,284,694,-7633,1745148029438036526
292000,-251,-227,63,239,740,-7689,1745148029496116672
292192,-222,-227,57,251,765,-7783,1745148029496116672
292384,-195,-226,50,238,779,-7908,1745148029496116672
292576,-171,-221,42,247,784,-8018,1745148029496116672
292768,-151,-219,37,309,750,-8119,1745148029496116672
292960,-136,-219,35,337,693,-8248,1745148029496116672
293152,-125,-219,33,373,673,-8340,1745148029496116672
293344,-117,-221,29,364,660,-8432,1745148029496116672
293536,-114,-219,25,358,667,-8498,1745148029496116672
293728,-113,-214,20,311,679,-8580,1745148029496116672
293920,-114,-205,13,269,697,-8648,1745148029496116672
294112,-118,-193,8,239,716,-8712,1745148029496116672
294304,-122,-182,7,232,732,-8764,1745148029554851501
294496,-125,-171,7,223,774,-8773,1745148029554851501
294688,-125,-159,2,217,813,-8761,1745148029554851501
294880,-118,-147,-4,228,835,-8752,1745148029554851501
295072,-109,-131,-10,221,861,-8735,1745148029554851501
295264,-99,-112,-14,195,882,-8668,1745148029554851501
295456,-87,-100,-20,168,869,-8550,1745148029554851501
295648,-75,-96,-26,133,852,-8457,1745148029554851501
295840,-62,-95,-30,88,797,-8402,1745148029554851501
296032,-52,-93,-34,36,761,-8368,1745148029554851501
296224,-47,-88,-33,4,717,-8336,1745148029554851501
296416,-44,-81,-28,-47,697,-8312,1745148029554851501
296608,-44,-75,-23,-62,699,-8308,1745148029613006438
296800,-45,-71,-19,-82,709,-8288,1745148029613006438
296992,-46,-65,-16,-88,742,-8282,1745148029613006438
297184,-44,-56,-17,-74,790,-8284,1745148029613006438
297376,-41,-47,-17,-38,832,-8276,1745148029613006438
297568,-37,-40,-18,0,883,-8273,1745148029613006438
297760,-34,-33,-17,18,894,-8261,1745148029613006438
297952,-30,-30,-15,31,908,-8241,1745148029613006438
298144,-26,-28,-14,60,883,-8233,1745148029613006438
298336,-18,-32,-12,48,878,-8216,1745148029613006438
298528,-12,-37,-13,40,858,-8232,1745148029613006438
298720,-7,-38,-14,20,819,-8221,1745148029613006438
298912,1,-45,-16,-2,776,-8110,1745148029670645234
299104,3,-59,-19,7,719,-8190,1745148029670645234
299296,4,-55,-20,-33,725,-8189,1745148029670645234
299488,3,-53,-18,-53,723,-8155,1745148029670645234
299680,5,-46,-15,-38,751,-8139,1745148029670645234
299872,9,-39,-12,-60,766,-8144,1745148029670645234
300064,12,-34,-10,-39,773,-8135,1745148029670645234
300256,13,-29,-11,-28,783,-8139,1745148029670645234
300448,14,-27,-11,-12,804,-8146,1745148029670645234
300640,16,-26,-12,9,790,-8136,1745148029670645234
300832,16,-26,-13,-1,786,-8156,1745148029670645234
301024,15,-27,-12,4,781,-8170,1745148029670645234
301216,14,-27,-11,-8,770,-8178,1745148029729901829
301408,14,-25,-9,-35,769,-8195,1745148029729901829
301600,16,-21,-5,-36,786,-8209,1745148029729901829
301792,17,-20,-5,-31,781,-8208,1745148029729901829
301984,15,-19,-6,-23,762,-8217,1745148029729901829
302176,13,-19,-6,11,748,-8204,1745148029729901829
302368,9,-20,-6,5,741,-8198,1745148029729901829
302560,6,-22,-6,-7,727,-8175,1745148029729901829
302752,4,-26,-6,-10,704,-8136,1745148029729901829
302944,1,-27,-5,-38,687,-8114,1745148029729901829
303136,-1,-26,-4,-51,693,-8106,1745148029729901829
303328,-3,-25,0,-54,700,-8090,1745148029729901829
303520,-5,-23,2,-63,713,-8089,1745148029788746499
303712,-5,-22,4,-67,729,-8099,1745148029788746499
303904,-4,-19,4,-75,754,-8104,1745148029788746499
304096,-2,-18,5,-55,767,-8087,1745148029788746499
304288,0,-17,6,-42,792,-8082,1745148029788746499
304480,5,-20,6,-40,807,-8081,1745148029788746499
304672,10,-22,7,-44,807,-8082,1745148029788746499
304864,16,-24,7,-65,806,-8075,1745148029788746499
305056,22,-27,8,-71,776,-8075,1745148029788746499
305248,26,-27,8,-67,751,-8098,1745148029788746499
305440,27,-28,8,-62,721,-8107,1745148029788746499
305632,26,-27,9,-66,711,-8117,1745148029788746499
305824,24,-25,11,-84,687,-8127,1745148029847488202
306016,21,-24,14,-87,676,-8129,1745148029847488202
306208,17,-21,16,-95,676,-8138,1745148029847488202
306400,13,-17,17,-78,687,-8162,1745148029847488202
306592,10,-14,19,-91,714,-8165,1745148029847488202
306784,8,-14,23,-67,718,-8186,1745148029847488202
306976,5,-11,28,-50,756,-8217,1745148029847488202
307168,1,-6,30,-22,778,-8243,1745148029847488202
307360,0,-3,31,-24,807,-8229,1745148029847488202
307552,3,0,31,5,787,-8203,1745148029847488202
307744,6,0,29,23,777,-8192,1745148029847488202
307936,7,-1,27,21,759,-8163,1745148029847488202
308128,7,-1,24,-4,722,-8140,1745148029905158613
308320,6,1,25,-23,696,-8109,1745148029905158613
308512,5,2,28,-33,669,-8097,1745148029905158613
308704,4,3,30,-50,663,-8085,1745148029905158613
308896,3,4,29,-48,687,-8097,1745148029905158613
309088,1,6,27,-52,691,-8094,1745148029905158613
309280,0,9,25,-60,697,-8111,1745148029905158613
309472,-2,11,25,-65,708,-8111,1745148029905158613
309664,-3,14,25,-46,709,-8082,1745148029905158613
309856,-4,19,27,-57,721,-8081,1745148029905158613
310048,-3,23,29,-52,738,-8103,1745148029905158613
310240,3,23,31,-53,761,-8082,1745148029905158613
310432,10,24,28,-55,758,-8079,1745148029964121147
310624,17,24,25,-56,752,-8091,1745148029964121147
310816,25,22,22,-47,718,-8118,1745148029964121147
311008,29,24,21,-73,685,-8108,1745148029964121147
311200,30,28,24,-83,658,-8126,1745148029964121147
311392,28,32,29,-117,660,-8098,1745148029964121147
311584,25,37,32,-109,646,-8087,1745148029964121147
311776,22,42,33,-119,653,-8062,1745148029964121147
311968,17,45,34,-112,655,-8047,1745148029964121147
312160,14,47,35,-111,680,-8035,1745148029964121147
312352,14,45,36,-123,679,-8028,1745148029964121147
312544,16,40,36,-121,689,-8027,1745148029964121147
312736,15,42,37,-107,707,-8057,1745148030022121138
312928,16,44,38,-96,713,-8034,1745148030022121138
313120,17,34,37,-88,708,-8063,1745148030022121138
313312,21,28,34,-101,715,-8048,1745148030022121138
313504,26,26,32,-89,690,-8060,1745148030022121138
313696,28,23,32,-53,659,-8079,1745148030022121138
313888,28,22,35,-46,644,-8073,1745148030022121138
314080,29,22,37,-45,646,-8067,1745148030022121138
314272,27,22,39,-37,636,-8070,1745148030022121138
314464,23,23,40,-28,638,-8069,1745148030022121138
314656,17,25,40,-37,674,-8071,1745148030022121138
314848,12,25,40,-19,704,-8085,1745148030022121138
315040,10,26,40,-2,740,-8097,1745148030080836019
315232,11,28,42,24,760,-8104,1745148030080836019
315424,13,31,46,35,746,-8113,1745148030080836019
315616,13,30,46,54,745,-8131,1745148030080836019
315808,17,23,44,47,719,-8119,1745148030080836019
316000,21,18,39,26,701,-8139,1745148030080836019
316192,25,15,35,9,670,-8137,1745148030080836019
316384,26,13,33,9,641,-8133,1745148030080836019
316576,24,11,33,-8,609,-8130,1745148030080836019
316768,20,12,34,-11,575,-8138,1745148030080836019
316960,16,14,34,-8,569,-8143,1745148030080836019
317152,13,17,33,-28,591,-8123,1745148030080836019
317344,9,19,32,-25,601,-8123,1745148030139167569
317536,6,21,31,-4,625,-8123,1745148030139167569
317728,4,23,32,9,642,-8121,1745148030139167569
317920,2,25,32,-5,676,-8127,1745148030139167569
318112,1,26,32,19,685,-8136,1745148030139167569
318304,1,28,31,22,702,-8129,1745148030139167569
318496,2,28,31,24,698,-8139,1745148030139167569
318688,4,27,29,13,709,-8131,1745148030139167569
318880,6,29,27,19,708,-8120,1745148030139167569
319072,8,35,31,26,682,-8114,1745148030139167569
319264,12,31,30,15,668,-8089,1745148030139167569
319456,17,24,26,-35,668,-8076,1745148030139167569
319648,19,21,19,-67,630,-8071,1745148030198019115
319840,20,22,13,-59,595,-8065,1745148030198019115
320032,19,24,11,-37,547,-8044,1745148030198019115
320224,16,25,12,-18,550,-8051,1745148030198019115
320416,10,27,12,1,545,-8069,1745148030198019115
320608,4,28,11,18,571,-8086,1745148030198019115
320800,-1,28,10,20,613,-8098,1745148030198019115
320992,-1,29,7,22,646,-8111,1745148030198019115
321184,1,30,6,31,685,-8132,1745148030198019115
321376,3,29,3,50,690,-8154,1745148030198019115
321568,7,27,0,39,686,-8136,1745148030198019115
321760,11,25,-3,29,675,-8127,1745148030198019115
321952,15,23,-4,41,666,-8092,1745148030254600369
322144,18,21,-6,26,634,-8081,1745148030254600369
322336,18,20,-7,13,620,-8067,1745148030254600369
322528,17,19,-8,8,587,-8055,1745148030254600369
322720,17,20,-8,-23,586,-8044,1745148030254600369
322912,14,19,-9,-17,586,-8041,1745148030254600369
323104,12,19,-10,-7,606,-8047,1745148030254600369
323296,12,20,-11,-2,617,-8037,1745148030254600369
323488,14,21,-12,-3,638,-8042,1745148030254600369
323680,15,21,-13,23,637,-8048,1745148030254600369
323872,19,20,-14,28,664,-8048,1745148030254600369
324064,20,18,-16,41,663,-8067,1745148030254600369
324256,22,14,-17,39,654,-8074,1745148030314857110
324448,23,10,-19,43,654,-8076,1745148030314857110
324640,23,8,-20,27,632,-8070,1745148030314857110
324832,21,5,-21,36,605,-8084,1745148030314857110
325024,18,4,-20,1,603,-8109,1745148030314857110
325216,15,5,-20,-19,578,-8099,1745148030314857110
325408,13,5,-21,19,590,-8096,1745148030314857110
325600,11,5,-21,12,578,-8114,1745148030314857110
325792,9,5,-21,16,603,-8107,1745148030314857110
325984,-5,4,-21,12,444,-8001,1745148030314857110
326176,-88,-18,-40,-247,-200,-7758,1745148030314857110
326368,-112,-74,-68,-346,-158,-7910,1745148030314857110
326560,-164,-80,-71,-188,-377,-8617,1745148030373236577
326752,-249,71,-129,12,-280,-8453,1745148030373236577
326944,-319,166,-125,-396,548,-8007,1745148030373236577
327136,-343,168,-32,-28,685,-8054,1745148030373236577
327328,-331,152,-22,100,1051,-8056,1745148030373236577
327520,-294,135,-19,243,1242,-8047,1745148030373236577
327712,-246,98,-27,341,1265,-8031,1745148030373236577
327904,-206,67,-39,357,1181,-8002,1745148030373236577
328096,-177,43,-45,303,1061,-8015,1745148030373236577
328288,-155,25,-44,227,991,-7999,1745148030373236577
328480,-136,13,-41,146,954,-7974,1745148030373236577
328672,-118,4,-38,88,978,-7992,1745148030373236577
328864,-97,-7,-36,83,1005,-7994,1745148030431379275
329056,-68,-19,-34,100,1047,-7987,1745148030431379275
329248,-37,-33,-32,149,1089,-8012,1745148030431379275
329440,-6,-46,-32,148,1077,-8010,1745148030431379275
329632,20,-57,-33,140,1039,-8014,1745148030431379275
329824,40,-66,-37,94,956,-8006,1745148030431379275
330016,58,-72,-40,59,911,-7978,1745148030431379275
330208,78,-79,-38,-11,837,-7971,1745148030431379275
330400,89,-80,-33,-89,767,-8046,1745148030431379275
330592,84,-67,-30,-142,700,-8102,1745148030431379275
330784,74,-54,-27,-122,592,-8139,1745148030431379275
330976,53,-41,-26,-112,520,-8179,1745148030431379275
331168,29,-27,-24,-127,471,-8209,1745148030490377121
331360,3,-10,-19,-130,462,-8207,1745148030490377121
331552,-21,2,-14,-118,492,-8193,1745148030490377121
331744,-39,9,-11,-68,587,-8153,1745148030490377121
331936,-49,12,-9,-14,679,-8126,1745148030490377121
332128,-55,16,-8,-3,733,-8122,1745148030490377121
332320,-57,18,-9,28,788,-8075,1745148030490377121
332512,-55,21,-12,-6,807,-8034,1745148030490377121
332704,-55,26,-12,-10,796,-8047,1745148030490377121
332896,-57,28,-13,-5,757,-8058,1745148030490377121
333088,-59,31,-14,30,755,-8068,1745148030490377121
333280,-61,35,-15,20,757,-8087,1745148030490377121
333472,-63,37,-19,28,756,-8115,1745148030553371494
333664,-73,39,-23,69,703,-8132,1745148030553371494
333856,-80,37,-21,89,744,-8128,1745148030553371494
334048,-83,34,-15,137,797,-8151,1745148030553371494
334240,-84,28,-12,151,812,-8143,1745148030553371494
334432,-80,20,-12,133,855,-8129,1745148030553371494
334624,-72,15,-14,133,879,-8133,1745148030553371494
334816,-63,11,-15,106,884,-8143,1745148030553371494
335008,-54,7,-16,91,876,-8134,1745148030553371494
335200,-46,5,-16,73,874,-8131,1745148030553371494
335392,-39,6,-15,53,852,-8141,1745148030553371494
335584,-38,6,-14,21,797,-8152,1745148030553371494
335776,-39,8,-16,24,762,-8165,1745148030605226176
335968,-40,9,-17,57,784,-8153,1745148030605226176
336160,-33,2,-13,132,844,-8115,1745148030605226176
336352,-16,-15,-6,236,934,-8013,1745148030605226176
336544,25,-42,8,210,1161,-7919,1745148030605226176
336736,44,-79,55,65,1289,-7779,1745148030605226176
336928,77,-131,104,117,1009,-8030,1745148030605226176
337120,103,-144,89,35,1119,-8007,1745148030605226176
337312,113,-150,96,224,802,-8302,1745148030605226176
337504,89,-90,26,-29,899,-8100,1745148030605226176
337696,97,-61,-6,-81,869,-8044,1745148030605226176
337888,104,-59,-17,-94,805,-8081,1745148030605226176
338080,100,-52,-21,-71,675,-8116,1745148030666965404
338272,85,-50,-17,-80,540,-8125,1745148030666965404
338464,64,-42,-9,-77,501,-8117,1745148030666965404
338656,47,-35,1,-97,557,-8110,1745148030666965404
338848,36,-26,7,-80,620,-8109,1745148030666965404
339040,31,-22,6,-63,698,-8087,1745148030666965404
339232,33,-18,1,-48,789,-8084,1745148030666965404
339424,38,-17,-3,-47,814,-8058,1745148030666965404
339616,42,-18,-4,-24,798,-8055,1745148030666965404
339808,44,-19,-4,-31,779,-8058,1745148030666965404
340000,45,-18,-3,-61,741,-8048,1745148030666965404
340192,44,-16,-3,-65,677,-8042,1745148030666965404
340384,35,-14,-3,-94,600,-8044,1745148030728620518
340576,24,-8,-3,-72,591,-8048,1745148030728620518
340768,15,-15,1,63,613,-8040,1745148030728620518
340960,7,-23,4,74,639,-8007,1745148030728620518
341152,-2,-25,4,-31,650,-7959,1745148030728620518
341344,-3,-23,0,-140,692,-7952,1745148030728620518
341536,2,-17,-2,-228,719,-7939,1745148030728620518
341728,2,-9,-2,-218,643,-7951,1745148030728620518
341920,-10,-3,1,-139,503,-7966,1745148030728620518
342112,-29,-2,3,-91,467,-7943,1745148030728620518
342304,-47,4,7,-89,546,-7936,1745148030728620518
342496,-61,2,10,-21,572,-7946,1745148030728620518
342880,-105,-6,2,-36,389,-8007,1745148033455485868
448096,215,-88,19,90,1704,-7514,1745148033455485868
448288,235,-144,21,-35,380,-8191,1745148033455485868
448480,210,-169,20,-228,737,-7887,1745148033455485868
448672,185,-136,28,-436,606,-7991,1745148033455485868
448864,189,-142,27,-451,657,-8259,1745148033455485868
449056,158,-128,21,-392,622,-8312,1745148033455485868
449248,120,-103,12,-341,443,-8438,1745148033455485868
449440,73,-99,2,-319,259,-8495,1745148033455485868
449632,26,-65,-2,-371,346,-8610,1745148033455485868
449824,-9,-33,3,-306,405,-8809,1745148033455485868
450016,-50,-11,0,-243,529,-9014,1745148033455485868
450208,-74,33,-6,-269,822,-9235,1745148033513602316
450400,-83,72,-15,-314,961,-9398,1745148033513602316
450592,-92,114,-27,-302,985,-9351,1745148033513602316
450784,-91,148,-31,-131,1241,-9206,1745148033513602316
450976,-63,148,-13,217,1625,-8967,1745148033513602316
451168,-48,113,11,356,978,-8230,1745148033513602316
451360,27,95,29,948,2773,-8763,1745148033513602316
451552,134,-23,53,893,2437,-7601,1745148033513602316
451744,247,-14,27,343,1945,-7966,1745148033513602316
451936,334,-58,-41,-111,1033,-7590,1745148033513602316
452128,352,-7,-74,69,813,-8021,1745148033513602316
452320,114,271,-63,-2284,-506,-6461,1745148033513602316
452512,50,461,-38,-2331,-912,-6331,1745148033572240583
452704,7,246,-16,-1059,-1067,-6876,1745148033572240583
452896,-63,176,7,-487,-582,-7296,1745148033572240583
453088,-152,160,38,-164,38,-7394,1745148033572240583
453280,-164,111,38,24,745,-7628,1745148033572240583
453472,-137,59,9,99,1326,-8034,1745148033572240583
453664,-86,30,-31,120,1644,-8237,1745148033572240583
453856,-32,30,-62,128,1660,-8338,1745148033572240583
454048,17,32,-69,110,1487,-8338,1745148033572240583
454240,52,28,-55,76,1227,-8295,1745148033572240583
454432,67,26,-37,-8,989,-8210,1745148033572240583
454624,63,25,-26,-95,811,-8160,1745148033572240583
454816,51,28,-25,-151,687,-8134,1745148033631808372
455008,31,41,-26,-168,597,-8133,1745148033631808372
455200,10,57,-27,-149,567,-8095,1745148033631808372
455392,-7,61,-27,-119,575,-8045,1745148033631808372
455584,-21,51,-29,-51,651,-8040,1745148033631808372
455776,-32,37,-31,6,749,-8072,1745148033631808372
455968,-40,30,-33,41,874,-8108,1745148033631808372
456160,-43,27,-36,59,929,-8088,1745148033631808372
456352,-43,18,-40,58,957,-8082,1745148033631808372
456544,-41,8,-45,34,976,-8103,1745148033631808372
456736,-42,0,-49,16,945,-8113,1745148033631808372
456928,-44,-8,-49,-26,925,-8107,1745148033631808372
457120,-49,-12,-47,-43,910,-8087,1745148033689724562
457312,-54,-15,-46,-49,904,-8061,1745148033689724562
457504,-61,-16,-47,-38,874,-7982,1745148033689724562
457696,-57,-11,-48,-43,856,-7933,1745148033689724562
457888,-53,-12,-51,-47,821,-7959,1745148033689724562
458080,-55,-25,-56,-78,782,-8040,1745148033689724562
458272,-58,-39,-65,-113,776,-8177,1745148033689724562
458464,-58,-46,-77,-126,798,-8282,1745148033689724562
458656,-66,-39,-84,-104,782,-8343,1745148033689724562
458848,-81,-29,-86,-59,768,-8382,1745148033689724562
459040,-98,-21,-86,-45,730,-8411,1745148033689724562
459232,-110,-15,-84,-29,696,-8406,1745148033689724562
459424,-118,-15,-84,-9,713,-8420,1745148033748603503
459616,-130,-16,-87,108,729,-8579,1745148033748603503
459808,-154,19,-83,107,725,-8509,1745148033748603503
460000,-177,33,-84,124,721,-8436,1745148033748603503
460192,-185,31,-88,151,758,-8519,1745148033748603503
460384,-193,36,-94,189,822,-8589,1745148033748603503
460576,-201,35,-101,234,883,-8502,1745148033748603503
460768,-212,38,-107,288,999,-8455,1745148033748603503
460960,-220,35,-106,354,1090,-8364,1745148033748603503
461152,-225,20,-101,426,1182,-8069,1745148033748603503
461344,-222,0,-94,571,1189,-7713,1745148033748603503
461536,-212,-31,-84,854,1038,-7602,1745148033748603503
461728,-233,-54,-71,1360,683,-7214,1745148033807171666
461920,-390,34,-38,2081,301,-6549,1745148033807171666
462112,-648,144,-8,2726,-530,-6176,1745148033807171666
462304,-665,-86,-18,2893,-1750,-3449,1745148033807171666
462496,-654,-476,-129,4345,-1297,-5708,1745148033807171666
462688,-800,-640,-235,5074,-1095,-6879,1745148033807171666
462880,-1008,-840,-405,5396,-460,-7627,1745148033807171666
463072,-1123,-996,-645,5055,782,-7833,1745148033807171666
463264,-1147,-1077,-886,4684,1894,-8185,1745148033807171666
463456,-1169,-1177,-1133,4351,2574,-8375,1745148033807171666
463648,-1206,-1234,-1339,4050,2841,-8350,1745148033807171666
463840,-1231,-1263,-1462,3744,2882,-8242,1745148033807171666
464032,-1200,-1285,-1493,3443,2979,-7958,1745148033865718839
464224,-1119,-1276,-1472,3111,3182,-7613,1745148033865718839
464416,-1006,-1234,-1418,2863,3435,-7315,1745148033865718839
464608,-874,-1213,-1362,2566,3753,-7077,1745148033865718839
464800,-697,-1138,-1330,2355,4020,-6986,1745148033865718839
464992,-495,-1048,-1282,2226,4143,-6870,1745148033865718839
465184,-290,-987,-1211,2256,4000,-7037,1745148033865718839
465376,-91,-953,-1107,2154,3594,-7085,1745148033865718839
465568,85,-900,-997,1836,2991,-7167,1745148033865718839
465760,238,-813,-883,1442,2272,-7253,1745148033865718839
465952,346,-694,-745,1200,1391,-7296,1745148033865718839
466144,394,-560,-583,1037,437,-7104,1745148033865718839
466336,383,-421,-402,982,-530,-6819,1745148033923807580
466528,304,-269,-197,908,-1446,-6331,1745148033923807580
466720,152,-108,32,929,-2371,-5709,1745148033923807580
466912,-58,41,267,1040,-3337,-5094,1745148033923807580
467104,-304,176,483,1154,-4170,-4513,1745148033923807580
467296,-574,302,688,1131,-4864,-4102,1745148033923807580
467488,-852,437,891,1057,-5268,-3848,1745148033923807580
467680,-1129,577,1104,1165,-5703,-3634,1745148033923807580
467872,-1415,713,1265,1196,-5690,-3489,1745148033923807580
468064,-1681,847,1453,1264,-5673,-3350,1745148033923807580
468256,-1916,985,1657,1404,-5598,-3266,1745148033923807580
468448,-2110,1116,1866,1633,-5480,-3219,1745148033923807580
468640,-2256,1238,2074,1803,-5318,-3363,1745148033981456063
468832,-2345,1366,2288,1904,-5077,-3500,1745148033981456063
469024,-2374,1500,2506,1987,-4655,-3642,1745148033981456063
469216,-2353,1643,2722,2091,-4117,-3905,1745148033981456063
469408,-2300,1781,2931,2296,-3433,-4029,1745148033981456063
469600,-2219,1900,3130,2558,-2778,-4051,1745148033981456063
469792,-2108,1999,3322,2854,-2242,-4087,1745148033981456063
469984,-1970,2074,3513,3097,-1823,-4068,1745148033981456063
470176,-1800,2148,3699,3241,-1523,-4146,1745148033981456063
470368,-1614,2234,3876,3311,-1257,-4348,1745148033981456063
470560,-1434,2326,4041,3339,-983,-4604,1745148033981456063
470752,-1278,2430,4195,3339,-767,-4883,1745148033981456063
470944,-1165,2538,4346,3423,-638,-5096,1745148034041408901
471136,-1103,2646,4502,3641,-604,-5197,1745148034041408901
471328,-1086,2746,4663,3881,-593,-5213,1745148034041408901
471520,-1103,2849,4827,4209,-588,-5252,1745148034041408901
471712,-1148,2939,4982,4598,-546,-5200,1745148034041408901
471904,-1221,3022,5110,4976,-410,-5180,1745148034041408901
472096,-1309,3103,5219,5307,-167,-5229,1745148034041408901
472288,-1392,3190,5307,5637,265,-5290,1745148034041408901
472480,-1459,3281,5368,6109,851,-5389,1745148034041408901
472672,-1506,3366,5399,6739,1569,-5306,1745148034041408901
472864,-1523,3421,5410,7593,2173,-5333,1745148034041408901
473056,-1485,3436,5398,8442,2812,-5407,1745148034041408901
473248,-1381,3434,5346,9221,3515,-5600,1745148034100226854
473440,-1211,3410,5272,9628,4358,-5606,1745148034100226854
473632,-1000,3353,5233,9847,5457,-5935,1745148034100226854
473824,-751,3317,5255,10121,5412,-5938,1745148034100226854
474016,-432,3282,5191,10346,6589,-7056,1745148034100226854
474208,-200,3398,5265,10256,6338,-6458,1745148034100226854
474400,72,3410,5272,10415,6146,-6435,1745148034100226854
474592,328,3380,5265,10503,5776,-6510,1745148034100226854
474784,545,3379,5246,10423,5329,-6461,1745148034100226854
474976,709,3414,5221,10289,4852,-6433,1745148034100226854
475168,811,3463,5200,10187,4386,-6367,1745148034100226854
475360,838,3531,5185,10143,3885,-6214,1745148034100226854
475552,806,3615,5183,10238,3404,-5949,1745148034160596198
475744,718,3703,5188,10490,2938,-5744,1745148034160596198
475936,567,3787,5183,10846,2552,-5593,1745148034160596198
476128,358,3862,5149,11150,2175,-5465,1745148034160596198
476320,103,3927,5110,11462,1734,-5126,1745148034160596198
476512,-162,3975,5107,11865,1271,-4873,1745148034160596198
476704,-427,4025,5146,12332,1009,-4819,1745148034160596198
476896,-720,4124,5226,12564,597,-4088,1745148034160596198
477088,-966,4068,5246,13220,222,-3733,1745148034160596198
477280,-1192,3960,5220,13713,205,-3720,1745148034160596198
477472,-1415,3886,5182,14064,159,-3339,1745148034160596198
477664,-1619,3806,5104,14368,182,-2999,1745148034160596198
477856,-1807,3714,4981,14732,326,-2745,1745148034218946029
478048,-1992,3621,4805,15148,575,-2600,1745148034218946029
478240,-2176,3514,4655,15523,812,-2345,1745148034218946029
478432,-2322,3389,4565,15965,948,-2129,1745148034218946029
478624,-2435,3266,4510,16401,1169,-1964,1745148034218946029
478816,-2527,3148,4483,16729,1519,-1884,1745148034218946029
479008,-2591,3030,4466,16892,2037,-1893,1745148034218946029
479200,-2606,2900,4429,16812,2631,-1963,1745148034218946029
479392,-2571,2745,4364,16529,3204,-2050,1745148034218946029
479584,-2482,2591,4292,16054,3702,-2112,1745148034218946029
479776,-2360,2425,4188,15433,4142,-2323,1745148034218946029
479968,-2206,2264,4047,14648,4523,-2481,1745148034218946029
480160,-2023,2123,3888,13875,4820,-2629,1745148034277599400
480352,-1839,1978,3704,13114,5001,-2775,1745148034277599400
480544,-1665,1825,3485,12346,5053,-2928,1745148034277599400
480736,-1492,1674,3235,11598,4913,-3033,1745148034277599400
480928,-1308,1528,2970,10895,4691,-3208,1745148034277599400
481120,-1100,1415,2696,10248,4519,-3492,1745148034277599400
481312,-896,1316,2417,9691,4330,-3696,1745148034277599400
481504,-705,1228,2129,9302,4087,-3781,1745148034277599400
481696,-534,1124,1832,9042,3711,-3910,1745148034277599400
481888,-377,1004,1537,8846,3337,-3891,1745148034277599400
482080,-244,878,1262,8703,2828,-3831,1745148034277599400
482272,-130,792,1026,8642,2246,-3884,1745148034277599400
482464,-55,681,821,8566,1668,-3904,1745148034336200479
482656,-10,572,628,8455,1186,-3871,1745148034336200479
482848,-1,466,445,8320,730,-3838,1745148034336200479
483040,-10,362,267,8140,371,-3754,1745148034336200479
483232,-34,275,107,7974,38,-3772,1745148034336200479
483424,-82,197,-29,7851,-244,-3823,1745148034336200479
483616,-150,115,-136,7725,-454,-3902,1745148034336200479
483808,-209,61,-194,7645,-639,-3907,1745148034336200479
484000,-260,1,-218,7730,-768,-3782,1745148034336200479
484192,-307,-73,-231,7748,-845,-3704,1745148034336200479
484384,-342,-142,-234,7789,-963,-3577,1745148034336200479
484576,-353,-218,-232,7797,-1068,-3459,1745148034336200479
484768,-338,-286,-215,7799,-1275,-3444,1745148034392769025
484960,-314,-352,-217,7826,-1415,-3423,1745148034392769025
485152,-292,-413,-223,7771,-1573,-3407,1745148034392769025
485344,-271,-468,-221,7670,-1710,-3348,1745148034392769025
485536,-248,-506,-206,7536,-1902,-3293,1745148034392769025
485728,-230,-523,-175,7399,-2121,-3232,1745148034392769025
485920,-218,-528,-137,7282,-2356,-3169,1745148034392769025
486112,-210,-524,-92,7121,-2521,-3133,1745148034392769025
486304,-203,-512,-45,6918,-2615,-3131,1745148034392769025
486496,-199,-482,-2,6712,-2663,-3070,1745148034392769025
486688,-195,-436,26,6517,-2758,-3056,1745148034392769025
486880,-191,-386,34,6387,-2734,-2995,1745148034392769025
487072,-191,-331,52,6304,-2769,-3010,1745148034453145348
487264,-187,-278,80,6289,-2777,-2995,1745148034453145348
487456,-179,-221,102,6317,-2850,-2981,1745148034453145348
487648,-167,-165,106,6346,-2836,-2976,1745148034453145348
487840,-148,-115,103,6449,-2925,-2935,1745148034453145348
488032,-122,-76,57,6591,-2970,-2910,1745148034453145348
488224,-89,-39,4,6611,-2882,-2839,1745148034453145348
488416,-66,-24,-22,6736,-2937,-2787,1745148034453145348
488608,-32,-9,-47,6863,-2974,-2767,1745148034453145348
488800,-8,-9,-67,6979,-2998,-2738,1745148034453145348
488992,19,-4,-81,7040,-3026,-2767,1745148034453145348
489184,38,-10,-93,7129,-3040,-2731,1745148034453145348
489376,59,-20,-102,7189,-3088,-2732,1745148034511088048
489568,77,-40,-111,7228,-3083,-2704,1745148034511088048
489760,95,-56,-116,7230,-3038,-2722,1745148034511088048
489952,101,-71,-122,7238,-3032,-2696,1745148034511088048
490144,96,-88,-124,7240,-3085,-2674,1745148034511088048
490336,94,-109,-120,7272,-3157,-2639,1745148034511088048
490528,96,-137,-115,7320,-3277,-2584,1745148034511088048
490720,101,-166,-114,7357,-3391,-2526,1745148034511088048
490912,104,-200,-121,7387,-3525,-2481,1745148034511088048
491104,107,-235,-132,7360,-3649,-2420,1745148034511088048
491296,111,-266,-145,7304,-3779,-2411,1745148034511088048
491488,112,-286,-156,7228,-3837,-2435,1745148034511088048
491680,105,-294,-161,7099,-3852,-2455,1745148034569692877
491872,95,-293,-162,6974,-3837,-2485,1745148034569692877
492064,82,-283,-159,6865,-3797,-2520,1745148034569692877
492256,73,-269,-153,6837,-3757,-2490,1745148034569692877
492448,67,-261,-144,6835,-3716,-2395,1745148034569692877
492640,63,-233,-130,6508,-3696,-2440,1745148034569692877
492832,56,-219,-92,6661,-3588,-2514,1745148034569692877
493024,48,-189,-79,7035,-3794,-2666,1745148034569692877
493216,21,-156,-138,7241,-3844,-2454,1745148034569692877
493408,5,-154,-183,7247,-3861,-2436,1745148034569692877
493600,5,-143,-188,7165,-3829,-2360,1745148034569692877
493792,-2,-153,-168,7096,-3776,-2277,1745148034569692877
493984,-3,-150,-146,7034,-3779,-2197,1745148034628067188
494176,0,-154,-129,7015,-3825,-2173,1745148034628067188
494368,4,-155,-119,7053,-3904,-2241,1745148034628067188
494560,8,-153,-122,7110,-3915,-2298,1745148034628067188
494752,0,-143,-134,7107,-3866,-2343,1745148034628067188
494944,-13,-132,-148,7079,-3812,-2329,1745148034628067188
495136,-27,-127,-151,7048,-3765,-2320,1745148034628067188
495328,-24,-123,-139,7008,-3712,-2358,1745148034628067188
495520,-8,-119,-124,7014,-3634,-2413,1745148034628067188
495712,9,-114,-114,7030,-3562,-2489,1745148034628067188
495904,25,-112,-110,7072,-3541,-2505,1745148034628067188
496096,43,-115,-104,7124,-3568,-2448,1745148034628067188
496288,60,-123,-98,7155,-3649,-2395,1745148034686705611
496480,77,-133,-93,7154,-3696,-2371,1745148034686705611
496672,88,-142,-92,7128,-3740,-2342,1745148034686705611
496864,90,-146,-94,7054,-3787,-2341,1745148034686705611
497056,88,-147,-96,6987,-3853,-2335,1745148034686705611
497248,83,-145,-99,6921,-3892,-2365,1745148034686705611
497440,78,-138,-102,6895,-3925,-2402,1745148034686705611
497632,71,-130,-105,6899,-3935,-2412,1745148034686705611
497824,60,-122,-105,6932,-3952,-2452,1745148034686705611
498016,50,-112,-103,6948,-3918,-2495,1745148034686705611
498208,43,-101,-96,6954,-3850,-2508,1745148034686705611
498400,36,-92,-91,6964,-3786,-2503,1745148034686705611
498592,35,-84,-83,6967,-3708,-2486,1745148034743940192
498784,42,-79,-72,6951,-3636,-2504,1745148034743940192
498976,52,-76,-57,6975,-3596,-2528,1745148034743940192
499168,61,-74,-41,6979,-3571,-2552,1745148034743940192
499360,69,-70,-25,6994,-3577,-2576,1745148034743940192
499552,77,-66,-10,6998,-3598,-2582,1745148034743940192
499744,85,-63,1,7005,-3637,-2566,1745148034743940192
499936,87,-60,6,7028,-3690,-2531,1745148034743940192
500128,89,-58,8,7038,-3738,-2542,1745148034743940192
500320,92,-52,7,7053,-3767,-2517,1745148034743940192
500512,88,-49,2,7077,-3812,-2484,1745148034743940192
500704,75,-51,-5,7075,-3853,-2474,1745148034743940192
500896,63,-52,-11,7027,-3891,-2459,1745148034803571262
501088,51,-48,-13,6964,-3855,-2453,1745148034803571262
501280,35,-45,-15,6934,-3844,-2490,1745148034803571262
501472,24,-39,-22,6932,-3771,-2580,1745148034803571262
501664,15,-31,-33,6928,-3705,-2630,1745148034803571262
501856,8,-25,-40,6910,-3660,-2621,1745148034803571262
502048,6,-23,-34,6919,-3638,-2575,1745148034803571262
502240,7,-24,-23,6998,-3636,-2543,1745148034803571262
502432,8,-30,-15,7066,-3627,-2546,1745148034803571262
502624,10,-37,-14,7126,-3617,-2607,1745148034803571262
502816,17,-42,-17,7103,-3573,-2636,1745148034803571262
503008,23,-44,-20,7072,-3519,-2658,1745148034803571262
503200,26,-48,-23,7049,-3498,-2633,1745148034863210665
503392,29,-53,-21,7012,-3503,-2612,1745148034863210665
503584,39,-59,-17,6987,-3514,-2563,1745148034863210665
503776,48,-66,-18,6980,-3518,-2525,1745148034863210665
503968,48,-73,-23,6987,-3568,-2494,1745148034863210665
504160,48,-80,-27,6961,-3600,-2485,1745148034863210665
504352,52,-85,-26,6943,-3635,-2456,1745148034863210665
504544,56,-90,-22,6960,-3656,-2470,1745148034863210665
504736,59,-94,-19,6973,-3689,-2500,1745148034863210665
504928,64,-93,-21,6975,-3658,-2545,1745148034863210665
505120,71,-89,-24,6946,-3614,-2585,1745148034863210665
505312,77,-85,-25,6948,-3575,-2607,1745148034863210665
505504,84,-79,-22,6954,-3535,-2585,1745148034918993228
505696,92,-75,-15,6968,-3513,-2537,1745148034918993228
505888,98,-77,-10,6993,-3532,-2462,1745148034918993228
506080,103,-81,-4,7021,-3605,-2441,1745148034918993228
506272,105,-83,1,7021,-3630,-2475,1745148034918993228
506464,107,-82,5,6960,-3648,-2498,1745148034918993228
506656,101,-75,5,6905,-3630,-2518,1745148034918993228
506848,90,-68,4,6880,-3607,-2486,1745148034918993228
507040,79,-61,7,6884,-3609,-2457,1745148034918993228
507232,71,-55,12,6911,-3638,-2453,1745148034918993228
507424,67,-49,17,6952,-3616,-2476,1745148034918993228
507616,59,-43,14,6965,-3559,-2487,1745148034918993228
507808,52,-40,8,6957,-3509,-2463,1745148034979237522
508000,43,-44,3,6962,-3506,-2388,1745148034979237522
508192,40,-52,-1,6977,-3530,-2377,1745148034979237522
508384,44,-58,-2,6981,-3564,-2385,1745148034979237522
508576,45,-62,-7,6943,-3585,-2418,1745148034979237522
508768,41,-63,-14,6924,-3568,-2452,1745148034979237522
508960,37,-59,-21,6886,-3527,-2485,1745148034979237522
509152,31,-55,-26,6878,-3483,-2457,1745148034979237522
509344,20,-56,-29,6926,-3503,-2417,1745148034979237522
509536,15,-61,-28,6955,-3546,-2398,1745148034979237522
509728,17,-63,-26,6978,-3566,-2422,1745148034979237522
509920,17,-61,-26,6956,-3553,-2474,1745148034979237522
510112,11,-59,-29,6928,-3537,-2502,1745148035037439073
510304,9,-57,-32,6893,-3548,-2502,1745148035037439073
510496,9,-54,-30,6893,-3555,-2476,1745148035037439073
510688,11,-47,-28,6857,-3566,-2493,1745148035037439073
510880,12,-39,-28,6849,-3513,-2507,1745148035037439073
511072,11,-30,-29,6825,-3446,-2504,1745148035037439073
511264,8,-22,-30,6845,-3386,-2511,1745148035037439073
511456,8,-15,-30,6867,-3317,-2512,1745148035037439073
511648,10,-12,-31,6908,-3255,-2517,1745148035037439073
511840,17,-12,-35,6963,-3211,-2520,1745148035037439073
512032,27,-18,-42,7027,-3228,-2540,1745148035037439073
512224,42,-27,-52,7083,-3258,-2536,1745148035037439073
512416,54,-38,-65,7078,-3285,-2503,1745148035096030101
512608,59,-49,-78,7065,-3345,-2508,1745148035096030101
512800,56,-59,-90,7020,-3402,-2539,1745148035096030101
512992,52,-67,-100,6981,-3459,-2533,1745148035096030101
513184,46,-72,-109,6965,-3521,-2526,1745148035096030101
513376,34,-73,-113,6932,-3556,-2538,1745148035096030101
513568,22,-69,-112,6935,-3597,-2565,1745148035096030101
513760,12,-65,-108,6939,-3589,-2561,1745148035096030101
513952,6,-58,-102,6952,-3560,-2573,1745148035096030101
514144,-4,-53,-97,6975,-3532,-2590,1745148035096030101
514336,-16,-51,-91,6983,-3457,-2573,1745148035096030101
514528,-26,-51,-85,6998,-3449,-2552,1745148035096030101
514720,-31,-53,-78,7005,-3457,-2584,1745148035154207955
514912,-29,-53,-74,6990,-3481,-2593,1745148035154207955
515104,-24,-50,-75,6974,-3472,-2598,1745148035154207955
515296,-17,-47,-80,6941,-3425,-2606,1745148035154207955
515488,-8,-41,-85,6922,-3351,-2560,1745148035154207955
515680,0,-40,-90,6916,-3346,-2541,1745148035154207955
515872,16,-43,-93,6941,-3369,-2530,1745148035154207955
516064,37,-46,-95,6974,-3372,-2538,1745148035154207955
516256,55,-49,-98,7008,-3394,-2571,1745148035154207955
516448,68,-52,-101,7021,-3417,-2609,1745148035154207955
516640,82,-55,-101,7027,-3438,-2587,1745148035154207955
516832,94,-59,-101,7018,-3445,-2579,1745148035154207955
517024,105,-65,-99,7037,-3494,-2576,1745148035212957887
517216,113,-69,-99,7027,-3542,-2593,1745148035212957887
517408,116,-72,-101,7021,-3568,-2607,1745148035212957887
517600,112,-74,-103,7012,-3614,-2574,1745148035212957887
517792,103,-79,-105,7005,-3682,-2542,1745148035212957887
517984,93,-84,-104,6995,-3746,-2526,1745148035212957887
518176,81,-86,-102,6979,-3783,-2545,1745148035212957887
518368,69,-84,-101,6967,-3826,-2545,1745148035212957887
518560,55,-83,-100,6959,-3849,-2525,1745148035212957887
518752,38,-80,-97,6942,-3859,-2540,1745148035212957887
518944,28,-72,-90,6932,-3816,-2555,1745148035212957887
519136,19,-60,-81,6930,-3760,-2585,1745148035212957887
519328,9,-50,-72,6956,-3689,-2589,1745148035272774736
519520,3,-43,-62,6973,-3657,-2543,1745148035272774736
519712,6,-39,-49,6984,-3623,-2554,1745148035272774736
519904,15,-37,-37,7019,-3618,-2545,1745148035272774736
520096,26,-36,-30,7027,-3617,-2558,1745148035272774736
520288,39,-36,-25,7004,-3637,-2546,1745148035272774736
520480,49,-37,-23,6973,-3631,-2530,1745148035272774736
520672,53,-35,-21,6958,-3643,-2523,1745148035272774736
520864,57,-31,-17,6918,-3645,-2532,1745148035272774736
521056,58,-26,-14,6898,-3643,-2581,1745148035272774736
521248,55,-18,-14,6913,-3625,-2603,1745148035272774736
521440,48,-13,-14,6910,-3635,-2583,1745148035272774736
521632,40,-9,-12,6959,-3639,-2581,1745148035327899232
521824,35,-7,-11,6985,-3638,-2564,1745148035327899232
522016,30,-7,-13,7002,-3635,-2566,1745148035327899232
522208,23,-8,-17,7021,-3627,-2579,1745148035327899232
522400,17,-10,-23,7004,-3588,-2624,1745148035327899232
522592,15,-9,-25,6996,-3535,-2639,1745148035327899232
522784,12,-10,-27,6981,-3488,-2633,1745148035327899232
522976,8,-14,-27,7010,-3482,-2625,1745148035327899232
523168,10,-18,-26,7006,-3479,-2632,1745148035327899232
523360,13,-19,-26,6980,-3444,-2654,1745148035327899232
523552,11,-19,-28,6959,-3397,-2685,1745148035327899232
523744,6,-18,-33,6942,-3344,-2709,1745148035327899232
523936,5,-17,-35,6927,-3337,-2702,1745148035388352066
524128,7,-19,-38,6958,-3339,-2680,1745148035388352066
524320,10,-23,-43,7010,-3360,-2652,1745148035388352066
524512,12,-26,-51,7019,-3349,-2667,1745148035388352066
524704,9,-28,-63,7040,-3351,-2709,1745148035388352066
524896,5,-27,-73,7023,-3328,-2741,1745148035388352066
525088,3,-28,-84,7027,-3296,-2714,1745148035388352066
525280,0,-35,-96,7061,-3333,-2660,1745148035388352066
525472,-4,-47,-105,7089,-3419,-2621,1745148035388352066
525664,-6,-57,-111,7091,-3473,-2606,1745148035388352066
525856,-13,-62,-118,7091,-3502,-2608,1745148035388352066
526048,-27,-67,-124,7060,-3564,-2609,1745148035388352066
526240,-40,-70,-126,7025,-3546,-2619,1745148035446343619
526432,-48,-68,-124,6983,-3530,-2611,1745148035446343619
526624,-49,-63,-120,6970,-3488,-2656,1745148035446343619
526816,-47,-56,-112,6953,-3439,-2684,1745148035446343619
527008,-46,-48,-103,6969,-3384,-2718,1745148035446343619
527200,-47,-39,-92,6984,-3347,-2714,1745148035446343619
527392,-44,-36,-78,7009,-3348,-2653,1745148035446343619
527584,-37,-35,-62,7041,-3374,-2652,1745148035446343619
527776,-24,-32,-50,7027,-3371,-2690,1745148035446343619
527968,-10,-26,-40,7003,-3366,-2725,1745148035446343619
528160,-2,-19,-33,6995,-3342,-2704,1745148035446343619
528352,3,-12,-27,6995,-3358,-2696,1745148035446343619
528544,9,-5,-21,6994,-3346,-2705,1745148035505251935
528736,14,3,-17,7000,-3347,-2720,1745148035505251935
528928,17,9,-17,7016,-3330,-2706,1745148035505251935
529120,19,12,-20,7026,-3319,-2694,1745148035505251935
529312,20,12,-24,7029,-3334,-2679,1745148035505251935
529504,20,11,-30,7020,-3306,-2676,1745148035505251935
529696,19,8,-34,7023,-3304,-2666,1745148035505251935
529888,16,5,-39,7013,-3316,-2656,1745148035505251935
530080,13,-2,-44,7035,-3336,-2667,1745148035505251935
530272,13,-6,-48,7025,-3369,-2661,1745148035505251935
530464,14,-11,-51,7014,-3363,-2683,1745148035505251935
530656,13,-13,-55,7010,-3351,-2702,1745148035505251935
530848,10,-13,-58,6998,-3349,-2697,1745148035562451100
531040,6,-13,-58,7019,-3348,-2700,1745148035562451100
531232,4,-12,-54,7026,-3362,-2717,1745148035562451100
531424,6,-12,-49,7013,-3354,-2741,1745148035562451100
531616,7,-10,-47,7016,-3312,-2759,1745148035562451100
531808,9,-8,-46,7019,-3271,-2747,1745148035562451100
532000,13,-9,-45,6996,-3266,-2731,1745148035562451100
532192,19,-11,-44,7006,-3289,-2710,1745148035562451100
532384,29,-14,-44,7011,-3303,-2677,1745148035562451100
532576,36,-17,-45,7013,-3301,-2665,1745148035562451100
532768,41,-20,-47,6999,-3294,-2644,1745148035562451100
532960,44,-23,-50,6988,-3290,-2612,1745148035562451100
533152,41,-28,-51,6995,-3354,-2614,1745148035622004983
533344,40,-30,-50,6995,-3379,-2638,1745148035622004983
533536,42,-29,-49,6991,-3376,-2658,1745148035622004983
533728,37,-26,-49,6989,-3351,-2665,1745148035622004983
533920,28,-24,-49,7003,-3356,-2681,1745148035622004983
534112,23,-21,-46,6994,-3344,-2686,1745148035622004983
534304,17,-16,-45,7001,-3316,-2706,1745148035622004983
534496,12,-11,-46,7008,-3289,-2710,1745148035622004983
534688,7,-9,-49,7019,-3276,-2715,1745148035622004983
534880,6,-8,-54,7054,-3244,-2722,1745148035622004983
535072,5,-6,-61,7047,-3213,-2735,1745148035622004983
535264,4,-5,-69,7060,-3158,-2764,1745148035622004983
535456,5,-5,-79,7059,-3104,-2768,1745148035677983534
535648,8,-6,-90,7067,-3062,-2772,1745148035677983534
535840,12,-12,-101,7091,-3062,-2733,1745148035677983534
536032,17,-22,-111,7120,-3094,-2692,1745148035677983534
536224,28,-33,-122,7095,-3157,-2660,1745148035677983534
536416,43,-42,-130,7084,-3167,-2655,1745148035677983534
536608,50,-50,-139,7068,-3224,-2626,1745148035677983534
536800,51,-60,-143,7082,-3309,-2598,1745148035677983534
536992,54,-70,-143,7113,-3464,-2563,1745148035677983534
537184,55,-79,-140,7103,-3562,-2562,1745148035677983534
537376,55,-80,-134,7059,-3613,-2607,1745148035677983534
537568,50,-75,-129,7006,-3630,-2687,1745148035677983534
537760,39,-66,-123,6934,-3550,-2723,1745148035739110789
537952,25,-53,-113,6896,-3496,-2749,1745148035739110789
538144,13,-40,-102,6898,-3425,-2721,1745148035739110789
538336,3,-30,-91,6919,-3350,-2707,1745148035739110789
538528,-3,-20,-78,6965,-3304,-2685,1745148035739110789
538720,-6,-14,-68,7007,-3291,-2643,1745148035739110789
538912,-8,-12,-60,7049,-3273,-2668,1745148035739110789
539104,-7,-11,-56,7079,-3250,-2691,1745148035739110789
539296,-7,-9,-57,7058,-3210,-2698,1745148035739110789
539488,-6,-7,-62,7022,-3171,-2709,1745148035739110789
539680,-3,-6,-67,7012,-3136,-2693,1745148035739110789
539872,3,-8,-72,7023,-3139,-2691,1745148035739110789
540064,15,-12,-77,7059,-3156,-2696,1745148035797587702
540256,31,-14,-82,7068,-3184,-2677,1745148035797587702
540448,42,-17,-88,7109,-3192,-2670,1745148035797587702
540640,48,-23,-92,7134,-3232,-2664,1745148035797587702
540832,52,-30,-92,7135,-3265,-2659,1745148035797587702
541024,57,-37,-92,7108,-3269,-2687,1745148035797587702
541216,60,-38,-93,7082,-3203,-2715,1745148035797587702
541408,61,-37,-92,7048,-3136,-2745,1745148035797587702
541600,60,-37,-90,7030,-3110,-2759,1745148035797587702
541792,58,-40,-87,7071,-3117,-2728,1745148035797587702
541984,57,-47,-83,7089,-3159,-2712,1745148035797587702
542176,60,-54,-78,7114,-3186,-2723,1745148035797587702
542368,62,-59,-78,7105,-3220,-2728,1745148035855726442
542560,58,-60,-83,7087,-3221,-2718,1745148035855726442
542752,51,-62,-88,7063,-3234,-2687,1745148035855726442
542944,43,-65,-90,7084,-3308,-2641,1745148035855726442
543136,41,-69,-91,7082,-3381,-2639,1745148035855726442
543328,46,-68,-92,7080,-3381,-2673,1745148035855726442
543520,48,-61,-94,7047,-3307,-2745,1745148035855726442
543712,43,-53,-95,7010,-3265,-2787,1745148035855726442
543904,39,-43,-91,6999,-3191,-2815,1745148035855726442
544096,37,-33,-84,7009,-3110,-2829,1745148035855726442
544288,39,-26,-78,7037,-3063,-2807,1745148035855726442
544480,40,-24,-71,7082,-3071,-2760,1745148035855726442
544672,43,-26,-67,7131,-3105,-2730,1745148035914375698
544864,48,-31,-63,7145,-3183,-2685,1745148035914375698
545056,51,-37,-60,7149,-3251,-2660,1745148035914375698
545248,50,-41,-59,7111,-3299,-2671,1745148035914375698
545440,44,-42,-58,7095,-3306,-2688,1745148035914375698
545632,36,-40,-58,7063,-3306,-2701,1745148035914375698
545824,27,-35,-57,7037,-3316,-2732,1745148035914375698
546016,21,-30,-54,7063,-3309,-2752,1745148035914375698
546208,19,-23,-51,7069,-3270,-2770,1745148035914375698
546400,17,-15,-50,7075,-3185,-2798,1745148035914375698
546592,11,-9,-49,7084,-3145,-2815,1745148035914375698
546784,6,-8,-49,7108,-3107,-2762,1745148035914375698
546976,5,-13,-45,7138,-3153,-2713,1745148035972362720
547168,10,-18,-41,7154,-3225,-2712,1745148035972362720
547360,19,-24,-37,7143,-3224,-2733,1745148035972362720
547552,23,-26,-38,7113,-3228,-2760,1745148035972362720
547744,24,-26,-39,7108,-3229,-2747,1745148035972362720
547936,25,-25,-36,7077,-3242,-2741,1745148035972362720
548128,29,-22,-31,7083,-3249,-2729,1745148035972362720
548320,33,-20,-27,7092,-3248,-2767,1745148035972362720
548512,35,-15,-27,7113,-3229,-2790,1745148035972362720
548704,37,-12,-26,7108,-3219,-2811,1745148035972362720
548896,35,-9,-26,7133,-3217,-2817,1745148035972362720
549088,33,-8,-24,7136,-3210,-2798,1745148035972362720
549280,30,-9,-20,7134,-3206,-2813,1745148036030207921
549472,28,-10,-14,7110,-3213,-2820,1745148036030207921
549664,27,-9,-13,7101,-3191,-2832,1745148036030207921
549856,25,-9,-14,7082,-3177,-2805,1745148036030207921
550048,20,-10,-16,7098,-3177,-2788,1745148036030207921
550240,15,-12,-18,7101,-3197,-2741,1745148036030207921
550432,13,-13,-18,7116,-3203,-2753,1745148036030207921
550624,12,-14,-19,7108,-3194,-2795,1745148036030207921
550816,10,-12,-20,7100,-3143,-2832,1745148036030207921
551008,9,-9,-23,7099,-3112,-2849,1745148036030207921
551200,7,-6,-25,7116,-3078,-2843,1745148036030207921
551392,6,-8,-26,7129,-3104,-2799,1745148036030207921
551584,11,-13,-27,7177,-3167,-2763,1745148036086228555
551776,17,-20,-29,7181,-3241,-2753,1745148036086228555
551968,23,-27,-33,7186,-3276,-2769,1745148036086228555
552160,23,-30,-37,7160,-3314,-2770,1745148036086228555
552352,18,-30,-37,7127,-3329,-2737,1745148036086228555
552544,15,-30,-33,7103,-3335,-2743,1745148036086228555
552736,12,-28,-26,7067,-3317,-2736,1745148036086228555
552928,11,-25,-17,7060,-3303,-2743,1745148036086228555
553120,11,-22,-9,7072,-3298,-2744,1745148036086228555
553312,9,-17,-3,7085,-3294,-2759,1745148036086228555
553504,3,-13,4,7096,-3247,-2767,1745148036086228555
553696,-3,-8,9,7068,-3205,-2781,1745148036086228555
553888,-7,-4,14,7087,-3173,-2793,1745148036148155385
554080,-8,-3,15,7074,-3130,-2777,1745148036148155385
554272,-5,-1,13,7061,-3138,-2759,1745148036148155385
554464,0,-2,10,7074,-3130,-2746,1745148036148155385
554656,5,-3,5,7076,-3132,-2715,1745148036148155385
554848,6,-4,0,7091,-3158,-2715,1745148036148155385
555040,10,-7,-3,7115,-3173,-2712,1745148036148155385
555232,14,-6,-4,7088,-3146,-2725,1745148036148155385
555424,16,-5,-7,7083,-3122,-2774,1745148036148155385
555616,14,-1,-9,7074,-3105,-2774,1745148036148155385
555808,16,1,-9,7084,-3147,-2756,1745148036148155385
556000,23,0,-5,7102,-3166,-2731,1745148036148155385
556192,28,-2,-3,7125,-3192,-2706,1745148036206570841
556384,29,-7,-1,7133,-3214,-2701,1745148036206570841
556576,27,-11,-1,7125,-3242,-2714,1745148036206570841
556768,22,-13,0,7103,-3238,-2715,1745148036206570841
556960,16,-14,1,7095,-3256,-2718,1745148036206570841
557152,13,-12,2,7060,-3237,-2741,1745148036206570841
557344,12,-10,2,7053,-3208,-2737,1745148036206570841
557536,10,-8,2,7082,-3202,-2718,1745148036206570841
557728,9,-9,1,7104,-3215,-2690,1745148036206570841
557920,7,-10,0,7120,-3221,-2651,1745148036206570841
558112,8,-12,-1,7107,-3204,-2660,1745148036206570841
558304,6,-11,-5,7072,-3156,-2695,1745148036206570841
558496,2,-9,-7,7050,-3111,-2711,1745148036263656049
558688,-1,-8,-9,7027,-3107,-2701,1745148036263656049
558880,-2,-6,-8,7031,-3110,-2686,1745148036263656049
559072,-1,-6,-5,7046,-3155,-2694,1745148036263656049
559264,2,-6,-4,7048,-3165,-2692,1745148036263656049
559456,2,-5,-5,7028,-3161,-2706,1745148036263656049
559648,-1,-1,-8,7006,-3124,-2735,1745148036263656049
559840,-5,3,-10,7020,-3087,-2714,1745148036263656049
560032,-11,3,-11,7026,-3090,-2675,1745148036263656049
560224,-10,3,-10,7032,-3111,-2686,1745148036263656049
560416,-5,4,-10,7041,-3114,-2688,1745148036263656049
560608,-1,8,-13,7043,-3099,-2707,1745148036263656049
560800,-3,11,-16,7071,-3088,-2728,1745148036323439930
560992,-3,15,-18,7088,-3074,-2738,1745148036323439930
561184,-3,15,-19,7105,-3081,-2736,1745148036323439930
561376,-2,15,-19,7099,-3095,-2724,1745148036323439930
561568,2,15,-20,7082,-3087,-2717,1745148036323439930
561760,4,12,-22,7091,-3088,-2708,1745148036323439930
561952,5,5,-25,7092,-3163,-2667,1745148036323439930
562144,8,-4,-26,7089,-3228,-2636,1745148036323439930
562336,7,-10,-27,7067,-3291,-2660,1745148036323439930
562528,7,-11,-25,7020,-3311,-2684,1745148036323439930
562720,4,-5,-22,6994,-3275,-2735,1745148036323439930
562912,-4,3,-18,6979,-3225,-2756,1745148036323439930
563104,-10,10,-8,6987,-3228,-2756,1745148036381473202
563296,-6,17,3,7025,-3231,-2751,1745148036381473202
563488,2,23,11,7060,-3222,-2764,1745148036381473202
563680,4,28,15,7092,-3195,-2781,1745148036381473202
563872,2,29,15,7095,-3186,-2760,1745148036381473202
564064,0,28,14,7099,-3166,-2739,1745148036381473202
564256,1,26,14,7079,-3175,-2748,1745148036381473202
564448,3,24,13,7055,-3160,-2717,1745148036381473202
564640,4,22,12,7057,-3165,-2702,1745148036381473202
564832,5,21,9,7056,-3168,-2712,1745148036381473202
565024,6,21,7,7060,-3128,-2707,1745148036381473202
565216,4,19,5,7081,-3152,-2719,1745148036381473202
565408,1,17,2,7096,-3161,-2721,1745148036438425286
565600,0,17,0,7093,-3141,-2743,1745148036438425286
565792,0,17,-3,7097,-3149,-2766,1745148036438425286
565984,-2,17,-6,7104,-3141,-2761,1745148036438425286
566176,-5,17,-10,7115,-3142,-2779,1745148036438425286
566368,-6,14,-12,7132,-3135,-2767,1745148036438425286
566560,-3,10,-15,7118,-3129,-2784,1745148036438425286
566752,-3,6,-19,7113,-3112,-2791,1745148036438425286
566944,-3,6,-24,7069,-3066,-2815,1745148036438425286
567136,-2,7,-27,7053,-3042,-2816,1745148036438425286
567328,3,4,-28,7067,-3044,-2813,1745148036438425286
567520,8,1,-29,7113,-3059,-2765,1745148036438425286
567712,10,-5,-32,7160,-3118,-2714,1745148036498714891
567904,10,-12,-33,7168,-3194,-2685,1745148036498714891
568096,9,-19,-34,7160,-3256,-2682,1745148036498714891
568288,9,-24,-35,7132,-3306,-2704,1745148036498714891
568480,5,-24,-38,7080,-3321,-2717,1745148036498714891
568672,-3,-21,-39,7055,-3303,-2724,1745148036498714891
568864,-13,-16,-36,7024,-3276,-2741,1745148036498714891
569056,-20,-9,-29,7018,-3247,-2746,1745148036498714891
569248,-27,0,-21,7032,-3190,-2774,1745148036498714891
569440,-31,9,-14,7047,-3137,-2821,1745148036498714891
569632,-34,15,-9,7069,-3065,-2811,1745148036498714891
569824,-33,19,-5,7084,-3050,-2791,1745148036498714891
570016,-29,21,-2,7099,-3025,-2763,1745148036557410032
570208,-21,21,0,7131,-3044,-2751,1745148036557410032
570400,-14,18,-1,7124,-3076,-2761,1745148036557410032
570592,-6,17,-3,7117,-3084,-2773,1745148036557410032
570784,2,18,-5,7064,-3089,-2798,1745148036557410032
570976,6,22,-9,7066,-3064,-2808,1745148036557410032
571168,6,26,-11,7046,-3066,-2820,1745148036557410032
571360,6,26,-13,7079,-3075,-2773,1745148036557410032
571552,4,22,-12,7139,-3151,-2752,1745148036557410032
571744,5,16,-9,7182,-3213,-2750,1745148036557410032
571936,8,12,-9,7163,-3201,-2767,1745148036557410032
572128,6,10,-10,7137,-3168,-2804,1745148036557410032
572320,-3,9,-10,7112,-3127,-2799,1745148036620625080
572512,-8,8,-8,7095,-3116,-2787,1745148036620625080
572704,-7,5,-3,7113,-3132,-2797,1745148036620625080
572896,-2,5,0,7117,-3139,-2798,1745148036620625080
573088,0,5,0,7117,-3145,-2811,1745148036620625080
573280,-1,5,-2,7115,-3141,-2825,1745148036620625080
573472,-3,7,-5,7103,-3135,-2853,1745148036620625080
573664,-4,10,-7,7103,-3098,-2851,1745148036620625080
573856,-4,13,-10,7095,-3061,-2853,1745148036620625080
574048,-4,14,-12,7110,-3039,-2823,1745148036620625080
574240,-5,11,-15,7134,-3077,-2777,1745148036620625080
574432,-5,3,-18,7153,-3139,-2746,1745148036620625080
574624,-2,-4,-17,7156,-3169,-2756,1745148036674172820
574816,-1,-7,-20,7136,-3160,-2784,1745148036674172820
575008,-10,-5,-24,7101,-3122,-2814,1745148036674172820
575200,-20,-5,-27,7082,-3116,-2794,1745148036674172820
575392,-24,-6,-26,7106,-3129,-2772,1745148036674172820
575584,-23,-7,-21,7129,-3159,-2763,1745148036674172820
575776,-19,-6,-17,7144,-3173,-2795,1745148036674172820
575968,-14,-5,-15,7131,-3173,-2807,1745148036674172820
576160,-14,-4,-16,7130,-3143,-2819,1745148036674172820
576352,-19,-4,-17,7137,-3153,-2817,1745148036674172820
576544,-19,-4,-15,7134,-3141,-2804,1745148036674172820
576736,-13,-2,-11,7112,-3108,-2800,1745148036674172820
576928,-6,0,-9,7096,-3090,-2804,1745148036732870513
577120,-5,2,-9,7091,-3070,-2792,1745148036732870513
577312,-5,1,-7,7112,-3095,-2796,1745148036732870513
577504,-3,1,-6,7101,-3111,-2802,1745148036732870513
577696,-4,2,-7,7117,-3102,-2779,1745148036732870513
577888,-6,1,-9,7138,-3131,-2768,1745148036732870513
578080,-8,-2,-11,7157,-3140,-2771,1745148036732870513
578272,-6,-3,-13,7148,-3148,-2788,1745148036732870513
578464,-5,-4,-15,7126,-3150,-2801,1745148036732870513
578656,-6,-2,-17,7122,-3126,-2797,1745148036732870513
578848,-9,-2,-17,7142,-3117,-2780,1745148036732870513
579040,-11,-6,-17,7161,-3146,-2758,1745148036732870513
579424,-10,-14,-17,7191,-3225,-2763,1745148036800799423
579616,-8,-13,-17,7176,-3219,-2783,1745148036800799423
579808,-11,-10,-16,7155,-3176,-2807,1745148036800799423
580000,-16,-6,-15,7149,-3152,-2795,1745148036800799423
580192,-19,-5,-11,7149,-3137,-2768,1745148036800799423
580384,-18,-5,-7,7206,-3159,-2729,1745148036800799423
580576,-15,-11,-5,7238,-3233,-2697,1745148036800799423
580768,-14,-15,-3,7237,-3273,-2697,1745148036800799423
580960,-13,-17,-1,7221,-3278,-2726,1745148036800799423
581152,-17,-16,0,7176,-3246,-2769,1745148036800799423
581344,-26,-13,1,7139,-3195,-2782,1745148036800799423
581536,-32,-12,3,7135,-3224,-2739,1745148036800799423
581728,-31,-12,9,7132,-3274,-2715,1745148036852714210
581920,-22,-10,13,7148,-3283,-2722,1745148036852714210
582112,-17,-5,13,7110,-3281,-2746,1745148036852714210
582304,-20,1,11,7130,-3251,-2755,1745148036852714210
582496,-26,4,12,7156,-3239,-2728,1745148036852714210
582688,-26,3,17,7162,-3245,-2708,1745148036852714210
582880,-21,4,22,7138,-3237,-2710,1745148036852714210
583072,-18,6,26,7141,-3212,-2738,1745148036852714210
583264,-17,9,28,7122,-3188,-2767,1745148036852714210
583456,-17,12,30,7115,-3167,-2765,1745148036852714210
583648,-16,13,32,7138,-3153,-2785,1745148036852714210
583840,-14,15,33,7140,-3109,-2800,1745148036852714210
584032,-14,15,32,7160,-3100,-2749,1745148036912895274
584224,-14,11,29,7190,-3119,-2701,1745148036912895274
584416,-12,2,26,7193,-3163,-2690,1745148036912895274
584608,-7,-5,24,7191,-3209,-2702,1745148036912895274
584800,-4,-9,23,7157,-3207,-2730,1745148036912895274
584992,-10,-11,20,7147,-3225,-2735,1745148036912895274
585184,-17,-10,20,7115,-3205,-2762,1745148036912895274
585376,-19,-7,23,7112,-3184,-2782,1745148036912895274
585568,-20,-1,26,7083,-3106,-2812,1745148036912895274
585760,-23,8,27,7080,-3067,-2823,1745148036912895274
585952,-24,14,29,7120,-3026,-2832,1745148036912895274
586144,-22,16,31,7164,-3026,-2817,1745148036912895274
586336,-17,15,29,7230,-3000,-2804,1745148036975911105
586528,-13,10,24,7236,-2991,-2789,1745148036975911105
586720,-7,3,18,7234,-3009,-2784,1745148036975911105
586912,1,-2,11,7192,-2992,-2806,1745148036975911105
587104,7,-3,3,7123,-2952,-2842,1745148036975911105
587296,7,-3,-3,7067,-2923,-2840,1745148036975911105
587488,6,-1,-6,7047,-2873,-2845,1745148036975911105
587680,9,4,-8,7052,-2831,-2875,1745148036975911105
587872,13,7,-12,7101,-2796,-2911,1745148036975911105
588064,18,9,-20,7165,-2769,-2942,1745148036975911105
588256,25,5,-28,7176,-2726,-2953,1745148036975911105
588448,35,1,-36,7170,-2645,-2985,1745148036975911105
588640,47,-1,-45,7138,-2568,-3019,1745148037034709630
588832,60,-3,-54,7113,-2495,-3046,1745148037034709630
589024,74,-5,-64,7073,-2427,-3100,1745148037034709630
589216,89,-4,-76,7042,-2350,-3184,1745148037034709630
589408,101,0,-90,7026,-2247,-3299,1745148037034709630
589600,110,9,-109,6993,-2139,-3484,1745148037034709630
589792,117,24,-129,6936,-1986,-3722,1745148037034709630
589984,123,47,-154,6884,-1767,-4004,1745148037034709630
590176,131,81,-183,6788,-1450,-4313,1745148037034709630
590368,139,124,-221,6689,-1032,-4669,1745148037034709630
590560,151,177,-263,6629,-523,-5015,1745148037034709630
590752,167,239,-311,6609,63,-5370,1745148037034709630
590944,190,306,-364,6645,659,-5614,1745148037092718319
591136,214,367,-424,6768,1281,-5800,1745148037092718319
591328,242,425,-492,6925,1885,-5985,1745148037092718319
591520,281,478,-567,7133,2473,-6116,1745148037092718319
591712,327,521,-655,7398,2954,-6195,1745148037092718319
591904,378,551,-748,7739,3355,-6201,1745148037092718319
592096,444,562,-845,8152,3568,-6151,1745148037092718319
592288,534,552,-953,8658,3639,-5975,1745148037092718319
592480,641,508,-1094,9176,3570,-5769,1745148037092718319
592672,758,416,-1279,9565,3483,-5516,1745148037092718319
592864,886,295,-1497,9948,3191,-5340,1745148037092718319
593056,1037,168,-1738,10402,2838,-5215,1745148037092718319
593248,1184,16,-2009,10922,2488,-5162,1745148037154902282
593440,1329,-145,-2294,11449,2210,-5030,1745148037154902282
593632,1459,-292,-2553,11983,1976,-4970,1745148037154902282
593824,1565,-443,-2784,12472,1904,-4972,1745148037154902282
594016,1629,-609,-3001,12874,2006,-5049,1745148037154902282
594208,1665,-775,-3193,13143,2278,-5024,1745148037154902282
594400,1682,-951,-3365,13260,2610,-5003,1745148037154902282
594592,1686,-1131,-3531,13346,2969,-5024,1745148037154902282
594784,1697,-1308,-3663,13489,3193,-5011,1745148037154902282
594976,1688,-1480,-3746,13651,3376,-4897,1745148037154902282
595168,1669,-1665,-3801,13744,3447,-4737,1745148037154902282
595360,1672,-1849,-3820,13908,3475,-4748,1745148037154902282
595552,1683,-2022,-3785,14046,3432,-4614,1745148037207113680
595744,1712,-2209,-3722,14271,3336,-4532,1745148037207113680
595936,1747,-2407,-3631,14453,3246,-4336,1745148037207113680
596128,1794,-2626,-3535,14720,3108,-4302,1745148037207113680
596320,1858,-2878,-3458,14847,3161,-4263,1745148037207113680
596512,1905,-3134,-3392,14936,3474,-4765,1745148037207113680
596704,1888,-3283,-3265,14613,3240,-4550,1745148037207113680
596896,1863,-3417,-3187,14123,3089,-4380,1745148037207113680
597088,1882,-3629,-3158,13690,2917,-4297,1745148037207113680
597280,1877,-3810,-3149,13422,2597,-4224,1745148037207113680
597472,1857,-3996,-3158,13159,2214,-4038,1745148037207113680
597664,1819,-4184,-3187,12905,1846,-4024,1745148037207113680
597856,1761,-4352,-3224,12644,1572,-4026,1745148037267230215
598048,1699,-4505,-3262,12441,1411,-4089,1745148037267230215
598240,1622,-4647,-3315,12209,1340,-4225,1745148037267230215
598432,1529,-4779,-3391,11972,1309,-4316,1745148037267230215
598624,1435,-4901,-3484,11679,1319,-4393,1745148037267230215
598816,1335,-5011,-3574,11376,1282,-4505,1745148037267230215
599008,1230,-5112,-3664,10999,1321,-4623,1745148037267230215
599200,1108,-5192,-3741,10626,1265,-4723,1745148037267230215
599392,974,-5245,-3799,10209,1114,-4689,1745148037267230215
599584,853,-5291,-3840,9921,855,-4539,1745148037267230215
599776,732,-5339,-3865,9501,667,-4660,1745148037267230215
599968,617,-5302,-3879,9062,333,-5128,1745148037267230215
600160,521,-5174,-3923,8429,196,-4915,1745148037326135249
600352,399,-5099,-3960,7968,-20,-4307,1745148037326135249
600544,293,-5188,-4042,7685,-65,-4072,1745148037326135249
600736,199,-5308,-4129,7271,95,-4505,1745148037326135249
600928,118,-5339,-4175,6484,394,-4933,1745148037326135249
601120,69,-5196,-4156,5916,727,-5558,1745148037326135249
601312,10,-4902,-4066,5413,842,-5785,1745148037326135249
601504,-74,-4580,-3941,5016,904,-5584,1745148037326135249
601696,-154,-4325,-3810,4658,678,-5290,1745148037326135249
601888,-224,-4206,-3736,4018,159,-4103,1745148037326135249
602080,-135,-4219,-3699,4106,478,-5144,1745148037326135249
602272,-107,-4048,-3622,3733,426,-4974,1745148037326135249
602464,-68,-3861,-3551,3339,400,-4862,1745148037385088305
602656,-14,-3674,-3479,2903,365,-4839,1745148037385088305
602848,53,-3475,-3402,2487,332,-4811,1745148037385088305
603040,124,-3269,-3323,2147,278,-4696,1745148037385088305
603232,191,-3058,-3250,1943,204,-4590,1745148037385088305
603424,251,-2847,-3167,1847,98,-4469,1745148037385088305
603616,306,-2643,-3069,1764,-58,-4369,1745148037385088305
603808,363,-2458,-2972,1693,-197,-4251,1745148037385088305
604000,431,-2283,-2890,1573,-319,-4144,1745148037385088305
604192,509,-2117,-2824,1526,-379,-3967,1745148037385088305
604384,595,-1974,-2770,1625,-416,-3796,1745148037385088305
604576,678,-1850,-2727,1796,-389,-3681,1745148037385088305
604768,755,-1749,-2694,1897,-366,-3569,1745148037441852994
604960,830,-1657,-2663,1800,-321,-3578,1745148037441852994
605152,901,-1567,-2624,1639,-238,-3700,1745148037441852994
605344,962,-1472,-2562,1415,-233,-3753,1745148037441852994
605536,1006,-1376,-2479,1311,-300,-3813,1745148037441852994
605728,1041,-1278,-2376,1200,-409,-3912,1745148037441852994
605920,1061,-1184,-2272,1067,-587,-3917,1745148037441852994
606112,1059,-1088,-2174,936,-815,-4024,1745148037441852994
606304,1038,-987,-2068,756,-1127,-4091,1745148037441852994
606496,991,-888,-1964,597,-1394,-4171,1745148037441852994
606688,923,-797,-1857,457,-1580,-4236,1745148037441852994
606880,840,-705,-1748,285,-1676,-4332,1745148037441852994
607072,747,-609,-1659,52,-1634,-4490,1745148037502113225
607264,662,-505,-1582,-125,-1494,-4704,1745148037502113225
607456,586,-386,-1495,-225,-1285,-4974,1745148037502113225
607648,510,-257,-1398,-240,-1000,-5190,1745148037502113225
607840,429,-126,-1300,-189,-694,-5433,1745148037502113225
608032,359,1,-1209,-95,-400,-5706,1745148037502113225
608224,315,126,-1121,56,-196,-5846,1745148037502113225
608416,300,248,-1029,176,-66,-5962,1745148037502113225
