timestamp,gyr_x,gyr_y,gyr_z,acc_x,acc_y,acc_z,pkt_time_ns
78688,-51,40,37,-757,915,-8309,1745147764132284365
78880,155,79,50,-400,-335,-7603,1745147764132284365
79072,-98,-53,51,-464,125,-8291,1745147764132284365
79264,-185,-38,56,-695,549,-7978,1745147764132284365
79456,-150,-14,72,-492,623,-8162,1745147764132284365
79648,-115,-58,82,-338,657,-8221,1745147764132284365
79840,-116,-51,81,-351,541,-8253,1745147764132284365
80032,-72,-54,69,-487,354,-8333,1745147764132284365
80224,-85,-57,65,-681,276,-8454,1745147764132284365
80416,-91,-11,68,-855,218,-8563,1745147764132284365
80608,-80,9,64,-771,90,-8630,1745147764132284365
80800,-102,9,56,-461,45,-8644,1745147764132284365
80992,-105,12,45,-300,130,-8650,1745147764360960349
81184,-109,14,39,-423,244,-8751,1745147764360960349
81376,-106,51,28,-606,173,-8907,1745147764360960349
81568,-92,82,2,-351,32,-9039,1745147764360960349
81760,-98,71,-22,-31,123,-9076,1745147764360960349
81952,-88,73,-29,55,625,-9134,1745147764360960349
82144,-40,60,-20,169,1204,-9143,1745147764360960349
82336,33,43,-18,256,1437,-9077,1745147764360960349
82528,112,16,-31,241,1426,-9001,1745147764360960349
82720,176,-24,-44,98,1257,-8575,1745147764360960349
82912,148,-36,-69,-288,498,-9066,1745147764360960349
83104,431,-5,-62,-415,2097,-7930,1745147764360960349
83296,610,-38,-23,-264,1219,-7897,1745147764405035520
83488,622,18,-13,-266,507,-8530,1745147764405035520
83872,-341,506,41,-2870,-5030,-6211,1745147764405035520
84064,-317,294,-122,-1958,-3697,-5717,1745147764405035520
84256,-409,155,-107,-1497,-2577,-7284,1745147764405035520
84448,-553,206,11,-981,-1470,-7705,1745147764405035520
84640,-671,169,80,-587,-467,-7423,1745147764405035520
84832,-704,187,70,-323,515,-7641,1745147764405035520
85024,-659,140,17,-128,1275,-7878,1745147764405035520
85216,-539,104,-52,-49,1822,-7987,1745147764405035520
85408,-375,60,-98,-4,2078,-8173,1745147764405035520
85600,-212,19,-113,-19,2243,-8171,1745147764405035520
85792,-79,5,-90,-46,2138,-8185,1745147764448534497
85984,17,-11,-63,-59,1783,-8296,1745147764448534497
86176,87,-28,-57,-169,1389,-8236,1745147764448534497
86368,138,-29,-56,-343,991,-8373,1745147764448534497
86560,158,-15,-56,-440,632,-8529,1745147764448534497
86752,146,9,-57,-433,347,-8295,1745147764448534497
86944,111,15,-65,-99,25,-7738,1745147764448534497
87136,44,-16,-82,677,-435,-7640,1745147764448534497
87328,-34,-81,-91,1707,-977,-8063,1745147764448534497
87520,-126,-220,-89,2838,-1382,-8557,1745147764448534497
87712,-274,-329,-85,3414,-1149,-7186,1745147764448534497
87904,-526,-383,-132,3674,-380,-6834,1745147764448534497
88096,-983,-427,-243,4084,148,-8161,1745147764496713849
88288,-1351,-501,-404,4094,1221,-8822,1745147764496713849
88480,-1471,-556,-581,3924,2522,-8786,1745147764496713849
88672,-1363,-622,-763,3952,3516,-8937,1745147764496713849
88864,-1132,-765,-905,4280,3795,-9207,1745147764496713849
89056,-973,-947,-996,4520,3410,-8941,1745147764496713849
89248,-987,-1116,-1031,4376,2647,-8543,1745147764496713849
89440,-1017,-1236,-1033,3896,2024,-8250,1745147764496713849
89632,-934,-1280,-1042,3110,1872,-7935,1745147764496713849
89824,-766,-1252,-1079,2445,2066,-7729,1745147764496713849
90016,-589,-1192,-1125,2059,2355,-7563,1745147764496713849
90208,-433,-1152,-1166,1935,2602,-7392,1745147764496713849
90400,-290,-1138,-1194,1984,2725,-7217,1745147764540240222
90592,-127,-1142,-1199,2149,2699,-7106,1745147764540240222
90784,70,-1158,-1183,2357,2545,-7051,1745147764540240222
90976,289,-1164,-1140,2368,2266,-7067,1745147764540240222
91168,518,-1162,-1075,2096,1841,-7070,1745147764540240222
91360,728,-1133,-986,1638,1272,-7016,1745147764540240222
91552,896,-1082,-876,997,479,-6986,1745147764540240222
91744,995,-981,-765,281,-534,-6943,1745147764540240222
91936,1010,-782,-625,-70,-1645,-6638,1745147764540240222
92128,926,-600,-442,-404,-2680,-6047,1745147764540240222
92320,736,-374,-244,-671,-3765,-5654,1745147764540240222
92512,461,-137,-25,-894,-4707,-5111,1745147764540240222
92704,172,88,153,-700,-5904,-4416,1745147764588476917
92896,-143,305,294,-694,-6292,-3750,1745147764588476917
93088,-462,501,481,-634,-6830,-2984,1745147764588476917
93280,-765,686,667,-571,-7209,-2311,1745147764588476917
93472,-1040,868,847,-417,-7456,-1782,1745147764588476917
93664,-1292,1042,1026,-263,-7535,-1401,1745147764588476917
93856,-1527,1204,1207,-160,-7479,-1066,1745147764588476917
94048,-1735,1354,1395,-30,-7395,-787,1745147764588476917
94240,-1898,1509,1596,102,-7296,-709,1745147764588476917
94432,-2009,1680,1811,213,-7111,-682,1745147764588476917
94624,-2086,1863,2034,388,-6750,-956,1745147764588476917
94816,-2143,2049,2262,613,-6276,-1195,1745147764588476917
95008,-2177,2217,2487,943,-5808,-1261,1745147764631930738
95200,-2178,2376,2713,1271,-5415,-1410,1745147764631930738
95392,-2153,2524,2947,1549,-5070,-1572,1745147764631930738
95584,-2109,2672,3185,1793,-4747,-1728,1745147764631930738
95776,-2053,2814,3420,2049,-4463,-1956,1745147764631930738
95968,-1982,2948,3648,2283,-4181,-2257,1745147764631930738
96160,-1895,3084,3866,2450,-3902,-2508,1745147764631930738
96352,-1795,3231,4063,2629,-3616,-2806,1745147764631930738
96544,-1686,3388,4239,2869,-3296,-3164,1745147764631930738
96736,-1574,3540,4400,3149,-2987,-3480,1745147764631930738
96928,-1467,3689,4556,3474,-2654,-3744,1745147764631930738
97120,-1373,3834,4716,3846,-2272,-3953,1745147764631930738
97312,-1302,3965,4874,4365,-1918,-4130,1745147764680254828
97504,-1270,4076,5019,4962,-1591,-4345,1745147764680254828
97696,-1281,4142,5145,5671,-1256,-4468,1745147764680254828
97888,-1320,4184,5249,6375,-915,-4512,1745147764680254828
98080,-1376,4221,5327,7013,-506,-4553,1745147764680254828
98272,-1429,4244,5370,7573,-100,-4696,1745147764680254828
98464,-1460,4265,5379,8117,515,-4773,1745147764680254828
98656,-1459,4286,5365,8590,1128,-4746,1745147764680254828
98848,-1397,4290,5308,9166,1778,-4917,1745147764680254828
99040,-1284,4273,5218,9761,2314,-5148,1745147764680254828
99232,-1143,4241,5103,10373,2759,-5406,1745147764680254828
99424,-994,4203,4990,11043,3083,-5740,1745147764680254828
99616,-849,4158,4893,11644,3265,-6122,1745147764695364951
99808,-701,4119,4808,12061,3476,-6488,1745147764695364951
100000,-545,4092,4747,12252,3724,-6732,1745147764695364951
100192,-381,4107,4717,12267,3998,-7043,1745147764695364951
100384,-219,4148,4724,12272,4325,-7221,1745147764695364951
100576,-75,4189,4769,12339,4476,-7229,1745147764695364951
100768,37,4216,4825,12545,4389,-7138,1745147764695364951
100960,117,4231,4873,12738,4162,-6959,1745147764695364951
101152,169,4252,4914,12939,3841,-6705,1745147764695364951
101344,197,4286,4959,13164,3464,-6547,1745147764695364951
101536,184,4335,5006,13437,3082,-6305,1745147764695364951
101728,117,4365,5033,13871,2682,-6105,1745147764695364951
101920,-10,4376,5046,14348,2231,-5936,1745147764718603488
102112,-190,4357,5046,14864,1685,-5577,1745147764718603488
102304,-393,4302,5011,15387,1210,-5161,1745147764718603488
102496,-604,4247,4973,15720,1033,-4758,1745147764718603488
102688,-848,4174,4978,16365,566,-4193,1745147764718603488
102880,-1061,4065,4847,17180,-263,-3430,1745147764718603488
103072,-1222,3908,4575,17639,115,-3155,1745147764718603488
103264,-1380,3762,4428,18333,156,-2961,1745147764718603488
103456,-1539,3594,4310,18889,526,-2782,1745147764718603488
103648,-1699,3356,4171,19069,1218,-2812,1745147764718603488
103840,-1846,3097,3998,18885,2173,-3189,1745147764718603488
104032,-1992,2841,3828,18164,3232,-3506,1745147764718603488
104224,-2117,2597,3697,17200,4247,-3869,1745147764775714113
104416,-2208,2379,3614,16186,5079,-4192,1745147764775714113
104608,-2257,2182,3564,15336,5607,-4357,1745147764775714113
104800,-2263,1982,3505,14631,5935,-4434,1745147764775714113
104992,-2241,1790,3424,13974,6076,-4419,1745147764775714113
105184,-2199,1606,3325,13244,6058,-4471,1745147764775714113
105376,-2140,1445,3206,12489,5933,-4531,1745147764775714113
105568,-2058,1311,3070,11718,5831,-4523,1745147764775714113
105760,-1957,1196,2917,10976,5688,-4540,1745147764775714113
105952,-1837,1099,2744,10291,5579,-4617,1745147764775714113
106144,-1695,1017,2553,9737,5391,-4628,1745147764775714113
106336,-1536,935,2342,9324,5019,-4623,1745147764775714113
106528,-1368,845,2095,9116,4516,-4556,1745147764835466535
106720,-1190,760,1821,8939,3981,-4398,1745147764835466535
106912,-1011,680,1535,8743,3423,-4144,1745147764835466535
107104,-838,597,1267,8582,2715,-3788,1745147764835466535
107296,-677,505,982,8491,1969,-3555,1745147764835466535
107488,-532,420,685,8311,1314,-3475,1745147764835466535
107680,-404,358,389,8118,750,-3477,1745147764835466535
107872,-301,321,99,7786,440,-3553,1745147764835466535
108064,-225,304,-135,7408,294,-3712,1745147764835466535
108256,-171,317,-274,6991,533,-3779,1745147764835466535
108448,-121,349,-315,6937,241,-3785,1745147764835466535
108640,-69,359,-379,6959,218,-3874,1745147764835466535
108832,-26,365,-392,7148,186,-3908,1745147764889703280
109024,10,363,-365,7373,151,-3904,1745147764889703280
109216,41,351,-312,7517,158,-3919,1745147764889703280
109408,75,344,-230,7628,153,-3838,1745147764889703280
109600,120,313,-127,7717,148,-3830,1745147764889703280
109792,155,289,-3,7742,114,-3798,1745147764889703280
109984,169,258,150,7684,-52,-3791,1745147764889703280
110176,174,234,306,7543,-366,-3737,1745147764889703280
110368,177,191,451,7465,-792,-3587,1745147764889703280
110560,170,137,546,7496,-1476,-3481,1745147764889703280
110752,152,94,551,7391,-2000,-3351,1745147764889703280
110944,124,68,525,7159,-2365,-3288,1745147764889703280
111136,85,60,499,6940,-2666,-3327,1745147764952224323
111328,34,71,474,6671,-2793,-3386,1745147764952224323
111520,-27,93,457,6453,-2832,-3420,1745147764952224323
111712,-92,125,435,6281,-2819,-3438,1745147764952224323
111904,-148,161,409,6218,-2782,-3423,1745147764952224323
112096,-182,192,372,6283,-2807,-3417,1745147764952224323
112288,-200,221,323,6422,-2751,-3492,1745147764952224323
112480,-205,249,268,6531,-2651,-3549,1745147764952224323
112672,-201,277,211,6721,-2485,-3522,1745147764952224323
112864,-190,296,157,6905,-2348,-3449,1745147764952224323
113056,-164,301,107,7068,-2184,-3404,1745147764952224323
113248,-126,291,66,7175,-2034,-3392,1745147764952224323
113440,-87,274,44,7245,-1918,-3352,1745147765009193959
113632,-49,246,55,7255,-1877,-3239,1745147765009193959
113824,0,212,97,7358,-2150,-3137,1745147765009193959
114016,66,178,111,7360,-2337,-3114,1745147765009193959
114208,123,144,96,7398,-2685,-3074,1745147765009193959
114400,169,105,28,7279,-2609,-3077,1745147765009193959
114592,183,78,6,7222,-2775,-3027,1745147765009193959
114784,191,51,-8,7150,-2933,-2985,1745147765009193959
114976,195,29,-13,7101,-3074,-2950,1745147765009193959
115168,195,11,-10,7071,-3203,-2872,1745147765009193959
115360,195,-4,-2,7109,-3324,-2789,1745147765009193959
115552,196,-18,4,7141,-3403,-2750,1745147765009193959
115744,199,-35,3,7213,-3461,-2747,1745147765069083047
115936,202,-52,-11,7269,-3459,-2735,1745147765069083047
116128,206,-76,-32,7388,-3411,-2681,1745147765069083047
116320,208,-80,-54,7011,-3394,-2706,1745147765069083047
116512,209,-92,-55,7080,-3306,-2716,1745147765069083047
116704,193,-104,-64,7431,-3607,-3059,1745147765069083047
116896,145,-62,-143,7606,-3718,-2857,1745147765069083047
117088,124,-70,-221,7600,-3880,-2525,1745147765069083047
117280,127,-72,-262,7582,-4039,-2432,1745147765069083047
117472,127,-97,-262,7454,-4098,-2318,1745147765069083047
117664,112,-111,-230,7362,-4101,-2425,1745147765069083047
117856,88,-112,-183,7270,-4034,-2552,1745147765069083047
118048,64,-99,-143,7209,-3922,-2608,1745147765127690168
118240,46,-82,-121,7207,-3833,-2657,1745147765127690168
118432,33,-66,-115,7228,-3823,-2636,1745147765127690168
118624,29,-54,-116,7252,-3856,-2596,1745147765127690168
118816,34,-47,-113,7288,-3913,-2583,1745147765127690168
119008,43,-41,-101,7338,-3954,-2573,1745147765127690168
119200,51,-34,-84,7338,-3994,-2611,1745147765127690168
119392,56,-28,-66,7342,-3999,-2640,1745147765127690168
119584,57,-23,-49,7311,-3963,-2678,1745147765127690168
119776,58,-17,-35,7271,-3940,-2720,1745147765127690168
119968,57,-9,-25,7233,-3902,-2746,1745147765127690168
120160,54,-3,-20,7223,-3864,-2744,1745147765127690168
120352,53,0,-16,7213,-3876,-2738,1745147765184306578
120544,53,-1,-10,7229,-3902,-2668,1745147765184306578
120736,57,-2,-1,7261,-3933,-2610,1745147765184306578
120928,61,-8,7,7295,-3964,-2572,1745147765184306578
121120,61,-16,16,7314,-3995,-2563,1745147765184306578
121312,59,-25,22,7319,-3961,-2613,1745147765184306578
121504,54,-32,27,7321,-3908,-2682,1745147765184306578
121696,44,-34,26,7289,-3826,-2721,1745147765184306578
121888,33,-35,21,7253,-3722,-2718,1745147765184306578
122080,23,-41,18,7218,-3668,-2663,1745147765184306578
122272,22,-50,21,7213,-3671,-2595,1745147765184306578
122464,30,-62,27,7266,-3713,-2546,1745147765184306578
122656,40,-76,34,7274,-3739,-2517,1745147765245455863
122848,43,-87,36,7281,-3745,-2510,1745147765245455863
123040,40,-93,35,7248,-3712,-2500,1745147765245455863
123232,30,-94,34,7202,-3658,-2485,1745147765245455863
123424,21,-95,38,7192,-3605,-2497,1745147765245455863
123616,17,-94,46,7164,-3560,-2500,1745147765245455863
123808,15,-92,55,7207,-3537,-2490,1745147765245455863
124000,16,-91,62,7243,-3512,-2445,1745147765245455863
124192,19,-93,65,7297,-3503,-2402,1745147765245455863
124384,21,-95,65,7345,-3504,-2374,1745147765245455863
124576,21,-99,62,7361,-3498,-2379,1745147765245455863
124768,14,-104,58,7339,-3491,-2349,1745147765245455863
124960,4,-108,52,7315,-3495,-2325,1745147765302012326
125152,0,-112,49,7272,-3518,-2319,1745147765302012326
125344,-1,-114,45,7218,-3497,-2343,1745147765302012326
125536,-7,-109,41,7204,-3468,-2359,1745147765302012326
125728,-16,-102,34,7169,-3419,-2361,1745147765302012326
125920,-24,-92,35,7122,-3397,-2353,1745147765302012326
126112,-24,-86,42,7176,-3394,-2329,1745147765302012326
126304,-22,-86,37,7262,-3396,-2311,1745147765302012326
126496,-28,-86,20,7311,-3385,-2337,1745147765302012326
126688,-36,-85,3,7328,-3353,-2336,1745147765302012326
126880,-38,-89,-9,7323,-3370,-2307,1745147765302012326
127072,-34,-97,-19,7330,-3362,-2284,1745147765302012326
127264,-26,-108,-33,7310,-3381,-2253,1745147765362560002
127456,-19,-119,-46,7269,-3424,-2212,1745147765362560002
127648,-10,-129,-53,7214,-3459,-2201,1745147765362560002
127840,-1,-137,-53,7157,-3499,-2220,1745147765362560002
128032,0,-140,-54,7081,-3513,-2288,1745147765362560002
128224,-7,-135,-51,7013,-3484,-2315,1745147765362560002
128416,-12,-129,-44,6953,-3470,-2326,1745147765362560002
128608,-11,-121,-33,6920,-3460,-2275,1745147765362560002
128800,-5,-113,-21,6928,-3454,-2237,1745147765362560002
128992,3,-108,-12,6919,-3472,-2220,1745147765362560002
129184,10,-108,-5,6966,-3495,-2201,1745147765362560002
129376,18,-113,-1,7007,-3584,-2182,1745147765362560002
129568,33,-117,4,7005,-3643,-2159,1745147765418991934
129760,51,-116,10,6982,-3651,-2154,1745147765418991934
129952,61,-113,15,6964,-3610,-2142,1745147765418991934
130144,60,-109,19,6909,-3592,-2145,1745147765418991934
130336,57,-108,26,6921,-3598,-2167,1745147765418991934
130528,58,-107,36,6917,-3611,-2191,1745147765418991934
130720,63,-102,46,6926,-3606,-2247,1745147765418991934
130912,67,-93,56,6913,-3560,-2297,1745147765418991934
131104,64,-82,64,6912,-3514,-2303,1745147765418991934
131296,56,-73,70,6905,-3495,-2276,1745147765418991934
131488,49,-67,76,6920,-3514,-2289,1745147765418991934
131680,45,-61,82,6942,-3524,-2296,1745147765418991934
131872,42,-56,87,6938,-3509,-2300,1745147765478760867
132064,35,-48,87,6952,-3466,-2290,1745147765478760867
132256,25,-42,84,6945,-3414,-2262,1745147765478760867
132448,17,-39,81,6986,-3411,-2250,1745147765478760867
132640,14,-40,78,7036,-3408,-2237,1745147765478760867
132832,19,-42,73,7080,-3402,-2214,1745147765478760867
133024,24,-43,65,7136,-3422,-2232,1745147765478760867
133216,27,-44,56,7188,-3428,-2273,1745147765478760867
133408,28,-45,46,7193,-3412,-2315,1745147765478760867
133600,32,-46,39,7187,-3401,-2332,1745147765478760867
133792,40,-46,33,7160,-3387,-2352,1745147765478760867
133984,48,-45,28,7131,-3380,-2369,1745147765478760867
134176,54,-45,25,7107,-3381,-2380,1745147765535847169
134368,58,-45,22,7083,-3410,-2385,1745147765535847169
134560,58,-44,23,7067,-3435,-2380,1745147765535847169
134752,59,-42,26,7067,-3468,-2382,1745147765535847169
134944,58,-42,28,7060,-3485,-2393,1745147765535847169
135136,51,-43,28,7069,-3513,-2401,1745147765535847169
135328,45,-45,28,7076,-3538,-2421,1745147765535847169
135520,41,-47,27,7056,-3554,-2427,1745147765535847169
135712,33,-48,24,7059,-3543,-2438,1745147765535847169
135904,26,-49,21,7036,-3520,-2445,1745147765535847169
136096,26,-51,18,7007,-3499,-2461,1745147765535847169
136288,27,-52,17,6970,-3453,-2469,1745147765535847169
136480,28,-52,15,6945,-3413,-2485,1745147765595689539
136672,28,-53,15,6937,-3421,-2486,1745147765595689539
136864,31,-54,17,6942,-3440,-2474,1745147765595689539
137056,38,-59,20,6929,-3456,-2448,1745147765595689539
137248,48,-64,20,6937,-3501,-2469,1745147765595689539
137440,55,-65,17,6907,-3496,-2484,1745147765595689539
137632,56,-66,14,6914,-3537,-2480,1745147765595689539
137824,55,-69,12,6887,-3570,-2444,1745147765595689539
138016,54,-69,12,6883,-3597,-2412,1745147765595689539
138208,53,-69,13,6873,-3613,-2446,1745147765595689539
138400,46,-66,14,6885,-3582,-2486,1745147765595689539
138592,34,-59,15,6882,-3567,-2486,1745147765595689539
138784,23,-56,15,6909,-3575,-2472,1745147765653179534
138976,20,-54,18,6950,-3568,-2467,1745147765653179534
139168,21,-55,22,6999,-3549,-2436,1745147765653179534
139360,23,-57,23,7021,-3545,-2390,1745147765653179534
139552,24,-60,23,7040,-3562,-2374,1745147765653179534
139744,26,-62,25,7045,-3548,-2402,1745147765653179534
139936,23,-60,28,7037,-3510,-2418,1745147765653179534
140128,18,-58,30,7013,-3473,-2448,1745147765653179534
140320,14,-55,33,6994,-3442,-2499,1745147765653179534
140512,14,-52,38,6981,-3417,-2523,1745147765653179534
140704,17,-49,41,6980,-3409,-2506,1745147765653179534
140896,21,-45,39,6998,-3413,-2479,1745147765653179534
141088,24,-44,34,7032,-3472,-2454,1745147765713186590
141280,27,-46,27,7058,-3506,-2446,1745147765713186590
141472,27,-47,20,7076,-3514,-2460,1745147765713186590
141664,26,-46,12,7073,-3493,-2451,1745147765713186590
141856,21,-45,0,7075,-3487,-2429,1745147765713186590
142048,15,-48,-9,7064,-3478,-2437,1745147765713186590
142240,13,-54,-16,7088,-3461,-2435,1745147765713186590
142432,12,-61,-25,7108,-3446,-2464,1745147765713186590
142624,9,-66,-34,7118,-3449,-2477,1745147765713186590
142816,6,-72,-41,7105,-3513,-2461,1745147765713186590
143008,11,-78,-43,7102,-3554,-2476,1745147765713186590
143200,17,-82,-41,7079,-3577,-2513,1745147765713186590
143392,18,-82,-40,7043,-3554,-2560,1745147765769507534
143584,11,-79,-42,7004,-3521,-2582,1745147765769507534
143776,5,-74,-43,6939,-3470,-2573,1745147765769507534
143968,1,-70,-41,6911,-3418,-2567,1745147765769507534
144160,0,-69,-39,6911,-3433,-2528,1745147765769507534
144352,3,-72,-34,6951,-3490,-2501,1745147765769507534
144544,13,-78,-32,6984,-3562,-2474,1745147765769507534
144736,24,-82,-34,6997,-3573,-2493,1745147765769507534
144928,27,-81,-40,6940,-3571,-2524,1745147765769507534
145120,23,-79,-47,6889,-3543,-2527,1745147765769507534
145312,17,-77,-52,6850,-3535,-2494,1745147765769507534
145504,18,-78,-51,6817,-3576,-2480,1745147765769507534
145696,29,-78,-45,6820,-3599,-2483,1745147765829645631
145888,39,-75,-41,6842,-3620,-2504,1745147765829645631
146080,42,-69,-36,6862,-3618,-2486,1745147765829645631
146272,43,-65,-32,6872,-3635,-2474,1745147765829645631
146464,45,-62,-24,6888,-3644,-2445,1745147765829645631
146656,49,-62,-15,6896,-3649,-2451,1745147765829645631
146848,51,-60,-8,6901,-3625,-2474,1745147765829645631
147040,48,-57,-3,6893,-3588,-2514,1745147765829645631
147232,41,-51,2,6893,-3551,-2536,1745147765829645631
147424,35,-45,8,6892,-3544,-2537,1745147765829645631
147616,32,-40,13,6929,-3543,-2516,1745147765829645631
147808,29,-38,17,6956,-3549,-2495,1745147765829645631
148000,23,-38,16,7003,-3572,-2479,1745147765886940003
148192,18,-41,13,7018,-3599,-2457,1745147765886940003
148384,14,-43,9,7029,-3603,-2450,1745147765886940003
148576,8,-44,2,7015,-3603,-2445,1745147765886940003
148768,-1,-44,-5,7008,-3589,-2421,1745147765886940003
148960,-7,-44,-11,6987,-3579,-2412,1745147765886940003
149152,-12,-42,-14,6973,-3550,-2444,1745147765886940003
149344,-14,-40,-15,6950,-3515,-2500,1745147765886940003
149536,-18,-35,-14,6954,-3482,-2544,1745147765886940003
149728,-18,-29,-12,6951,-3441,-2549,1745147765886940003
149920,-13,-22,-10,6996,-3429,-2537,1745147765886940003
150112,-5,-19,-8,7028,-3450,-2496,1745147765886940003
150304,7,-18,-7,7058,-3475,-2484,1745147765946658676
150496,19,-18,-8,7091,-3496,-2493,1745147765946658676
150688,26,-18,-12,7088,-3486,-2491,1745147765946658676
150880,33,-17,-15,7084,-3493,-2494,1745147765946658676
151072,40,-18,-20,7053,-3499,-2494,1745147765946658676
151264,44,-20,-23,7028,-3511,-2485,1745147765946658676
151456,48,-24,-26,6998,-3529,-2498,1745147765946658676
151648,51,-27,-28,6968,-3541,-2500,1745147765946658676
151840,49,-28,-29,6931,-3585,-2512,1745147765946658676
152032,44,-29,-29,6911,-3620,-2538,1745147765946658676
152224,36,-31,-30,6891,-3650,-2547,1745147765946658676
152416,26,-32,-31,6878,-3660,-2546,1745147765946658676
152608,14,-31,-31,6853,-3673,-2544,1745147766003596906
152800,3,-30,-30,6848,-3673,-2558,1745147766003596906
152992,-4,-30,-29,6853,-3657,-2575,1745147766003596906
153184,-10,-31,-27,6851,-3642,-2560,1745147766003596906
153376,-10,-32,-26,6867,-3638,-2537,1745147766003596906
153568,-8,-34,-26,6886,-3614,-2522,1745147766003596906
153760,-5,-36,-27,6892,-3595,-2523,1745147766003596906
153952,-4,-39,-27,6898,-3580,-2540,1745147766003596906
154144,-3,-41,-25,6907,-3569,-2551,1745147766003596906
154336,0,-44,-23,6876,-3558,-2544,1745147766003596906
154528,4,-45,-22,6866,-3553,-2550,1745147766003596906
154720,6,-45,-22,6844,-3535,-2530,1745147766003596906
154912,6,-45,-21,6841,-3556,-2483,1745147766063723805
155104,8,-45,-17,6865,-3617,-2471,1745147766063723805
155296,12,-44,-13,6898,-3655,-2491,1745147766063723805
155488,14,-40,-12,6888,-3627,-2546,1745147766063723805
155680,9,-32,-14,6914,-3581,-2570,1745147766063723805
155872,0,-24,-15,6910,-3543,-2524,1745147766063723805
156064,-3,-18,-13,6943,-3531,-2493,1745147766063723805
156256,0,-16,-9,6971,-3500,-2497,1745147766063723805
156448,3,-14,-7,6977,-3484,-2502,1745147766063723805
156640,3,-10,-8,7013,-3472,-2516,1745147766063723805
156832,2,-5,-11,7035,-3477,-2510,1745147766063723805
157024,-2,-4,-15,7041,-3511,-2474,1745147766063723805
157216,-7,-6,-19,7072,-3545,-2460,1745147766120845106
157408,-11,-10,-20,7067,-3579,-2422,1745147766120845106
157600,-15,-12,-20,7049,-3599,-2413,1745147766120845106
157792,-20,-12,-21,7031,-3601,-2433,1745147766120845106
157984,-28,-11,-22,7045,-3592,-2470,1745147766120845106
158176,-32,-8,-23,7046,-3557,-2509,1745147766120845106
158368,-32,-3,-24,7047,-3508,-2544,1745147766120845106
158560,-27,1,-24,7043,-3448,-2543,1745147766120845106
158752,-18,3,-24,7036,-3391,-2553,1745147766120845106
158944,-7,4,-28,7026,-3370,-2530,1745147766120845106
159136,2,0,-29,7033,-3408,-2497,1745147766120845106
159328,13,-7,-28,7034,-3485,-2488,1745147766120845106
159520,27,-15,-25,7031,-3576,-2500,1745147766180661747
159712,37,-20,-24,7006,-3620,-2554,1745147766180661747
159904,37,-17,-26,6966,-3620,-2596,1745147766180661747
160096,30,-11,-26,6906,-3614,-2605,1745147766180661747
160288,19,-4,-24,6860,-3606,-2572,1745147766180661747
160480,10,-1,-19,6845,-3637,-2549,1745147766180661747
160672,9,0,-10,6857,-3680,-2538,1745147766180661747
160864,11,2,-2,6861,-3702,-2547,1745147766180661747
161056,9,7,1,6869,-3696,-2558,1745147766180661747
161248,0,9,2,6861,-3701,-2546,1745147766180661747
161440,-11,11,2,6869,-3703,-2543,1745147766180661747
161632,-19,13,7,6840,-3739,-2530,1745147766180661747
161824,-19,18,17,6823,-3721,-2522,1745147766237619664
162016,-19,25,27,6794,-3690,-2549,1745147766237619664
162208,-20,35,34,6779,-3637,-2563,1745147766237619664
162400,-25,47,38,6782,-3570,-2587,1745147766237619664
162592,-28,59,43,6777,-3520,-2608,1745147766237619664
162784,-23,68,48,6818,-3491,-2584,1745147766237619664
162976,-12,75,53,6872,-3489,-2589,1745147766237619664
163168,2,79,55,6914,-3462,-2605,1745147766237619664
163360,14,83,53,6922,-3453,-2626,1745147766237619664
163552,24,87,49,6922,-3445,-2626,1745147766237619664
163744,31,92,46,6947,-3440,-2639,1745147766237619664
163936,35,94,42,6987,-3445,-2620,1745147766237619664
164128,40,94,40,7011,-3482,-2594,1745147766297624272
164320,46,92,38,7049,-3523,-2581,1745147766297624272
164512,52,89,32,7081,-3561,-2576,1745147766297624272
164704,55,87,24,7102,-3549,-2601,1745147766297624272
164896,51,84,15,7095,-3538,-2603,1745147766297624272
165088,43,78,8,7085,-3532,-2583,1745147766297624272
165280,37,70,3,7097,-3557,-2574,1745147766297624272
165472,37,61,1,7092,-3568,-2590,1745147766297624272
165664,36,53,-1,7102,-3553,-2615,1745147766297624272
165856,31,46,-8,7117,-3572,-2617,1745147766297624272
166048,22,37,-13,7118,-3589,-2603,1745147766297624272
166240,17,28,-15,7126,-3648,-2603,1745147766297624272
166432,13,21,-14,7133,-3679,-2617,1745147766354831041
166624,8,16,-15,7123,-3667,-2654,1745147766354831041
166816,-1,12,-17,7110,-3646,-2677,1745147766354831041
167008,-10,11,-19,7083,-3625,-2678,1745147766354831041
167200,-17,9,-18,7043,-3601,-2675,1745147766354831041
167392,-16,6,-16,7039,-3606,-2660,1745147766354831041
167584,-12,4,-14,7021,-3615,-2676,1745147766354831041
167776,-9,1,-13,7009,-3624,-2654,1745147766354831041
167968,-6,-2,-12,6982,-3671,-2641,1745147766354831041
168160,0,-4,-9,6981,-3708,-2649,1745147766354831041
168352,6,-4,-5,6966,-3716,-2679,1745147766354831041
168544,6,-2,-2,6927,-3710,-2695,1745147766354831041
168736,1,1,1,6901,-3673,-2705,1745147766414531642
168928,-4,4,5,6887,-3668,-2686,1745147766414531642
169120,-7,6,8,6876,-3664,-2685,1745147766414531642
169312,-6,7,12,6868,-3674,-2700,1745147766414531642
169504,-5,9,15,6873,-3674,-2721,1745147766414531642
169696,-5,11,18,6872,-3679,-2716,1745147766414531642
169888,-5,10,21,6894,-3682,-2706,1745147766414531642
170080,-3,8,24,6902,-3682,-2675,1745147766414531642
170272,0,7,27,6914,-3667,-2659,1745147766414531642
170464,0,6,28,6913,-3621,-2677,1745147766414531642
170656,-4,6,30,6912,-3581,-2671,1745147766414531642
170848,-8,4,31,6956,-3540,-2667,1745147766414531642
171040,-11,1,32,6971,-3537,-2660,1745147766468906041
171232,-11,-4,34,7010,-3579,-2662,1745147766468906041
171424,-6,-9,36,7038,-3604,-2662,1745147766468906041
171616,-2,-10,32,7054,-3571,-2659,1745147766468906041
171808,-4,-11,27,7041,-3548,-2650,1745147766468906041
172000,-7,-13,20,7032,-3527,-2608,1745147766468906041
172192,-10,-16,16,7033,-3538,-2578,1745147766468906041
172384,-7,-17,16,7026,-3540,-2576,1745147766468906041
172576,-6,-17,16,7024,-3520,-2601,1745147766468906041
172768,-8,-15,14,7049,-3499,-2641,1745147766468906041
172960,-11,-12,13,7057,-3466,-2656,1745147766468906041
173152,-11,-8,13,7068,-3436,-2660,1745147766468906041
173344,-12,-2,12,7076,-3412,-2641,1745147766531432657
173536,-11,0,13,7090,-3405,-2637,1745147766531432657
173728,-9,1,10,7109,-3395,-2625,1745147766531432657
173920,-4,0,6,7123,-3410,-2630,1745147766531432657
174112,1,-2,0,7115,-3398,-2630,1745147766531432657
174304,4,-5,-6,7107,-3417,-2611,1745147766531432657
174496,6,-9,-12,7089,-3419,-2593,1745147766531432657
174688,6,-13,-19,7090,-3440,-2594,1745147766531432657
174880,3,-17,-23,7091,-3471,-2617,1745147766531432657
175072,-1,-21,-26,7081,-3510,-2613,1745147766531432657
175264,-3,-23,-28,7071,-3543,-2651,1745147766531432657
175456,0,-25,-28,7068,-3535,-2687,1745147766531432657
175648,0,-23,-29,7035,-3503,-2738,1745147766588547813
175840,-2,-21,-30,6992,-3471,-2763,1745147766588547813
176032,-1,-19,-29,6969,-3436,-2763,1745147766588547813
176224,4,-20,-28,6936,-3420,-2751,1745147766588547813
176416,11,-24,-27,6950,-3453,-2712,1745147766588547813
176608,20,-31,-26,6966,-3512,-2657,1745147766588547813
176800,30,-41,-25,6967,-3570,-2619,1745147766588547813
176992,36,-50,-24,6969,-3619,-2614,1745147766588547813
177184,34,-56,-24,6947,-3651,-2592,1745147766588547813
177376,26,-61,-22,6921,-3702,-2567,1745147766588547813
177568,17,-65,-18,6883,-3765,-2543,1745147766588547813
177760,11,-64,-11,6855,-3793,-2547,1745147766588547813
177952,3,-59,-4,6827,-3779,-2597,1745147766649003146
178144,-7,-50,4,6795,-3765,-2635,1745147766649003146
178336,-20,-38,10,6791,-3713,-2636,1745147766649003146
178528,-31,-25,18,6813,-3693,-2623,1745147766649003146
178720,-34,-14,26,6850,-3672,-2597,1745147766649003146
178912,-30,-6,34,6876,-3660,-2589,1745147766649003146
179104,-22,1,39,6895,-3622,-2600,1745147766649003146
179296,-15,8,40,6897,-3555,-2621,1745147766649003146
179488,-11,14,38,6910,-3479,-2611,1745147766649003146
179680,-7,15,35,6921,-3489,-2551,1745147766649003146
179872,5,12,36,6943,-3522,-2504,1745147766649003146
180064,25,10,37,6955,-3545,-2536,1745147766649003146
180448,41,8,30,6992,-3514,-2580,1745147766712454337
180640,37,7,26,7020,-3526,-2560,1745147766712454337
180832,35,4,26,7032,-3561,-2534,1745147766712454337
181024,37,-2,27,7048,-3584,-2537,1745147766712454337
181216,34,-8,26,7055,-3582,-2552,1745147766712454337
181408,29,-12,23,7066,-3602,-2569,1745147766712454337
181600,21,-16,19,7062,-3614,-2560,1745147766712454337
181792,14,-21,15,7064,-3625,-2531,1745147766712454337
181984,8,-23,14,7063,-3626,-2496,1745147766712454337
182176,5,-24,14,7057,-3611,-2509,1745147766712454337
182368,1,-25,14,7048,-3573,-2515,1745147766712454337
182560,-1,-25,12,7028,-3539,-2528,1745147766712454337
182752,0,-23,9,7017,-3524,-2542,1745147766769596367
182944,7,-22,10,6993,-3507,-2549,1745147766769596367
183136,17,-19,9,6994,-3487,-2542,1745147766769596367
183328,28,-16,9,6980,-3476,-2542,1745147766769596367
183520,37,-14,8,6961,-3496,-2533,1745147766769596367
183712,45,-14,5,6960,-3520,-2524,1745147766769596367
183904,49,-14,3,6951,-3557,-2526,1745147766769596367
184096,51,-15,3,6926,-3605,-2528,1745147766769596367
184288,49,-13,2,6903,-3640,-2521,1745147766769596367
184480,44,-13,-1,6897,-3657,-2522,1745147766769596367
184672,37,-12,-3,6896,-3670,-2515,1745147766769596367
184864,32,-11,-6,6887,-3661,-2525,1745147766769596367
185056,26,-11,-8,6867,-3632,-2531,1745147766828257238
185248,18,-13,-11,6872,-3624,-2515,1745147766828257238
185440,14,-18,-14,6877,-3636,-2468,1745147766828257238
185632,16,-25,-14,6876,-3675,-2437,1745147766828257238
185824,18,-30,-12,6873,-3672,-2448,1745147766828257238
186016,17,-32,-10,6871,-3644,-2477,1745147766828257238
186208,10,-31,-8,6857,-3617,-2493,1745147766828257238
186400,2,-29,-6,6851,-3606,-2508,1745147766828257238
186592,-2,-26,-1,6853,-3603,-2535,1745147766828257238
186784,-1,-23,5,6872,-3594,-2563,1745147766828257238
186976,3,-17,7,6855,-3538,-2608,1745147766828257238
187168,5,-9,4,6848,-3487,-2637,1745147766828257238
187360,7,0,-2,6848,-3421,-2658,1745147766887624612
187552,11,7,-9,6874,-3364,-2699,1745147766887624612
187744,19,15,-15,6888,-3313,-2721,1745147766887624612
187936,30,22,-22,6891,-3238,-2779,1745147766887624612
188128,42,28,-30,6933,-3153,-2874,1745147766887624612
188320,54,33,-40,6971,-3081,-3013,1745147766887624612
188512,67,37,-53,7010,-3014,-3183,1745147766887624612
188704,81,41,-68,7043,-2934,-3365,1745147766887624612
188896,95,45,-87,7077,-2840,-3559,1745147766887624612
189088,106,48,-110,7085,-2753,-3773,1745147766887624612
189280,120,52,-135,7100,-2654,-4089,1745147766887624612
189472,134,56,-164,7119,-2482,-4491,1745147766887624612
189664,150,61,-199,7130,-2267,-4900,1745147766947719636
189856,161,67,-243,7163,-2012,-5279,1745147766947719636
190048,165,72,-296,7227,-1774,-5582,1745147766947719636
190240,167,68,-358,7337,-1519,-5778,1745147766947719636
190432,170,51,-429,7534,-1325,-5959,1745147766947719636
190624,175,11,-512,7767,-1162,-6123,1745147766947719636
190816,182,-47,-611,8018,-1002,-6322,1745147766947719636
191008,187,-120,-727,8258,-867,-6538,1745147766947719636
191200,191,-203,-859,8460,-706,-6723,1745147766947719636
191392,190,-291,-1004,8627,-513,-6940,1745147766947719636
191584,186,-385,-1158,8760,-280,-7166,1745147766947719636
191776,173,-481,-1316,8916,-37,-7292,1745147766947719636
191968,154,-587,-1480,9144,140,-7326,1745147767002840070
192160,136,-705,-1643,9441,247,-7248,1745147767002840070
192352,124,-846,-1801,9807,264,-7260,1745147767002840070
192544,128,-1007,-1953,10198,238,-7299,1745147767002840070
192736,142,-1178,-2113,10601,269,-7416,1745147767002840070
192928,157,-1341,-2275,10956,367,-7496,1745147767002840070
193120,160,-1495,-2429,11286,473,-7523,1745147767002840070
193312,153,-1652,-2561,11617,587,-7553,1745147767002840070
193504,142,-1813,-2663,11937,726,-7600,1745147767002840070
193696,133,-1973,-2740,12195,905,-7645,1745147767002840070
193888,125,-2132,-2811,12414,1134,-7715,1745147767002840070
194080,118,-2284,-2877,12605,1345,-7688,1745147767002840070
194272,116,-2438,-2937,12822,1479,-7559,1745147767062965927
194464,128,-2597,-2987,13065,1496,-7445,1745147767062965927
194656,145,-2765,-3033,13290,1506,-7288,1745147767062965927
194848,159,-2938,-3066,13480,1558,-7062,1745147767062965927
195040,174,-3115,-3076,13617,1476,-6901,1745147767062965927
195232,204,-3305,-3095,13627,1495,-6764,1745147767062965927
195424,239,-3515,-3114,13531,1577,-6749,1745147767062965927
195616,275,-3714,-3138,13358,1615,-6680,1745147767062965927
195808,316,-3898,-3182,12991,1529,-6396,1745147767062965927
196000,362,-4118,-3250,12574,1736,-6390,1745147767062965927
196192,351,-4279,-3285,12626,2115,-7789,1745147767062965927
196384,277,-4175,-3229,11870,2237,-7248,1745147767062965927
196576,215,-4167,-3208,11443,2220,-6944,1745147767126404514
196768,200,-4205,-3221,11223,2346,-7153,1745147767126404514
196960,185,-4216,-3230,11040,2474,-6913,1745147767126404514
197152,176,-4238,-3234,10968,2538,-6550,1745147767126404514
197344,195,-4287,-3236,11104,2484,-6271,1745147767126404514
197536,243,-4356,-3260,11289,2301,-6133,1745147767126404514
197728,319,-4407,-3367,11172,2317,-6332,1745147767126404514
197920,371,-4412,-3522,10753,2575,-6558,1745147767126404514
198112,361,-4406,-3638,9958,3455,-6427,1745147767126404514
198304,371,-4456,-3656,9709,3605,-6501,1745147767126404514
198496,378,-4503,-3696,9481,3812,-6602,1745147767126404514
198688,370,-4495,-3719,9258,3842,-6519,1745147767126404514
198880,370,-4478,-3718,9055,3659,-6378,1745147767177974824
199072,372,-4465,-3691,8450,3660,-5769,1745147767177974824
199264,386,-4509,-3628,8342,3220,-5859,1745147767177974824
199456,364,-4510,-3611,7924,2855,-5708,1745147767177974824
199648,325,-4482,-3608,7446,2514,-5706,1745147767177974824
199840,266,-4430,-3619,6868,2238,-5608,1745147767177974824
200032,182,-4353,-3627,6231,1960,-5453,1745147767177974824
200224,75,-4243,-3618,5565,1633,-5218,1745147767177974824
200416,-23,-4126,-3585,5007,1304,-5017,1745147767177974824
200608,-106,-3970,-3531,4606,1102,-5157,1745147767177974824
200800,-204,-3728,-3473,3980,994,-4934,1745147767177974824
200992,-268,-3563,-3430,3463,961,-3936,1745147767177974824
201184,-285,-3490,-3399,3456,989,-4197,1745147767243501465
201376,-310,-3349,-3382,3333,1035,-3968,1745147767243501465
201568,-280,-3195,-3360,3227,1202,-3646,1745147767243501465
201760,-214,-3071,-3349,3218,1373,-3350,1745147767243501465
201952,-130,-2946,-3358,3254,1567,-3183,1745147767243501465
202144,-31,-2835,-3365,3223,1754,-2984,1745147767243501465
202336,93,-2733,-3362,3102,1868,-2853,1745147767243501465
202528,229,-2622,-3348,2919,1981,-2804,1745147767243501465
202720,360,-2499,-3318,2727,2035,-2804,1745147767243501465
202912,477,-2378,-3278,2545,1949,-2814,1745147767243501465
203104,576,-2265,-3237,2421,1713,-2729,1745147767243501465
203296,664,-2153,-3196,2271,1381,-2653,1745147767243501465
203488,742,-2030,-3154,2030,1064,-2773,1745147767300775577
203680,797,-1890,-3111,1777,774,-2884,1745147767300775577
203872,813,-1746,-3071,1599,514,-2889,1745147767300775577
204064,797,-1603,-3031,1445,279,-2870,1745147767300775577
204256,767,-1462,-2989,1282,-2,-2876,1745147767300775577
204448,738,-1318,-2963,1142,-163,-2988,1745147767300775577
204640,703,-1166,-2939,1027,-258,-3127,1745147767300775577
204832,665,-1012,-2910,942,-266,-3330,1745147767300775577
205024,628,-859,-2873,905,-153,-3525,1745147767300775577
205216,592,-707,-2815,863,33,-3594,1745147767300775577
205408,571,-553,-2738,856,227,-3673,1745147767300775577
205600,574,-401,-2649,908,346,-3909,1745147767300775577
205792,601,-265,-2552,994,400,-4027,1745147767360273628
205984,640,-147,-2455,1094,338,-4089,1745147767360273628
206176,682,-45,-2356,1177,149,-4192,1745147767360273628
206368,728,35,-2253,1239,-122,-4284,1745147767360273628
206560,782,111,-2150,1288,-455,-4393,1745147767360273628
206752,833,183,-2059,1272,-815,-4517,1745147767360273628
206944,865,238,-1982,1266,-1147,-4605,1745147767360273628
207136,878,290,-1916,1225,-1399,-4678,1745147767360273628
207328,863,346,-1848,1171,-1655,-4660,1745147767360273628
207520,824,400,-1780,1064,-1873,-4717,1745147767360273628
207712,784,457,-1712,971,-2015,-4826,1745147767360273628
207904,747,520,-1641,924,-2104,-5005,1745147767360273628
208096,713,584,-1572,928,-2056,-5198,1745147767417332169
208288,668,650,-1497,1025,-1956,-5414,1745147767417332169
208480,601,700,-1413,1177,-1862,-5610,1745147767417332169
208672,520,720,-1330,1331,-1772,-5734,1745147767417332169
208864,442,723,-1246,1517,-1682,-5888,1745147767417332169
209056,374,717,-1165,1721,-1637,-6029,1745147767417332169
209248,328,710,-1101,1858,-1591,-6118,1745147767417332169
209440,303,707,-1051,1969,-1607,-6164,1745147767417332169
209632,292,689,-1010,2006,-1652,-6258,1745147767417332169
209824,281,647,-972,1989,-1686,-6334,1745147767417332169
210016,257,596,-937,1862,-1732,-6465,1745147767417332169
210208,224,559,-899,1924,-1828,-7156,1745147767417332169
210400,138,606,-894,1522,-1903,-6903,1745147767473947745
210592,67,595,-885,1316,-1944,-6850,1745147767473947745
210784,1,586,-869,1097,-1939,-6993,1745147767473947745
210976,-66,614,-849,967,-1899,-7164,1745147767473947745
211168,-129,660,-831,972,-1869,-7361,1745147767473947745
211360,-186,719,-809,1093,-1783,-7611,1745147767473947745
211552,-232,773,-780,1259,-1610,-7792,1745147767473947745
211744,-271,825,-744,1434,-1326,-7941,1745147767473947745
211936,-295,867,-704,1613,-1016,-8010,1745147767473947745
212128,-299,902,-668,1775,-722,-8068,1745147767473947745
212320,-281,918,-642,1961,-497,-8106,1745147767473947745
212512,-238,918,-629,2138,-349,-8119,1745147767473947745
212704,-179,905,-627,2277,-266,-8097,1745147767535612547
212896,-120,882,-629,2383,-271,-8087,1745147767535612547
213088,-68,855,-629,2399,-317,-8165,1745147767535612547
213280,-11,841,-609,2400,-351,-8279,1745147767535612547
213472,64,836,-562,2389,-325,-8473,1745147767535612547
213664,158,825,-502,2403,-228,-8797,1745147767535612547
213856,272,807,-451,2472,-103,-9261,1745147767535612547
214048,412,798,-401,2684,-157,-9916,1745147767535612547
214240,570,786,-347,3219,-446,-11021,1745147767535612547
214432,724,749,-294,4083,-975,-12280,1745147767535612547
214624,814,654,-237,5348,-2065,-12925,1745147767535612547
214816,801,482,-160,6639,-3579,-13208,1745147767535612547
215008,637,240,-72,7326,-4778,-12609,1745147767596058192
215200,353,20,31,6870,-5245,-10677,1745147767596058192
215392,29,-101,101,5673,-4933,-9176,1745147767596058192
215584,-265,-225,82,4380,-4113,-8160,1745147767596058192
215776,-508,-364,-9,3239,-3246,-7387,1745147767596058192
215968,-707,-471,-92,2171,-2505,-7117,1745147767596058192
216160,-831,-521,-114,1171,-1815,-6591,1745147767596058192
216352,-861,-501,-73,392,-1280,-6060,1745147767596058192
216544,-816,-428,12,-136,-837,-5996,1745147767596058192
216736,-730,-304,114,-359,-376,-6176,1745147767596058192
216928,-649,-150,203,-361,61,-6332,1745147767596058192
217120,-590,-22,242,-155,448,-6539,1745147767596058192
217312,-532,69,219,129,852,-6661,1745147767650617434
217504,-467,146,165,415,1283,-6730,1745147767650617434
217696,-404,207,120,684,1617,-6932,1745147767650617434
217888,-344,226,96,964,1853,-7247,1745147767650617434
218080,-276,177,77,1305,2101,-7643,1745147767650617434
218272,-202,76,52,1546,2458,-8026,1745147767650617434
218464,-140,-39,30,1583,2666,-8347,1745147767650617434
218656,-59,-152,35,1413,2622,-8482,1745147767650617434
218848,57,-259,76,1162,2385,-8485,1745147767650617434
219040,191,-350,132,835,1981,-8482,1745147767650617434
219232,311,-415,179,524,1454,-8493,1745147767650617434
219424,391,-450,200,196,949,-8508,1745147767650617434
219616,416,-444,200,-120,465,-8495,1745147767711084121
219808,402,-414,196,-384,37,-8464,1745147767711084121
220000,369,-377,195,-561,-292,-8412,1745147767711084121
220192,323,-336,192,-650,-534,-8336,1745147767711084121
220384,270,-295,186,-655,-719,-8313,1745147767711084121
220576,208,-256,175,-615,-827,-8305,1745147767711084121
220768,138,-219,163,-547,-871,-8318,1745147767711084121
220960,65,-187,156,-485,-830,-8331,1745147767711084121
221152,-2,-158,157,-406,-697,-8363,1745147767711084121
221344,-58,-129,163,-342,-488,-8399,1745147767711084121
221536,-103,-100,171,-294,-211,-8415,1745147767711084121
221728,-141,-76,172,-229,103,-8413,1745147767711084121
221920,-165,-57,169,-170,378,-8390,1745147767768078652
222112,-167,-42,165,-110,649,-8372,1745147767768078652
222304,-150,-31,162,-62,861,-8362,1745147767768078652
222496,-119,-26,157,6,1006,-8309,1745147767768078652
222688,-83,-28,154,64,1076,-8252,1745147767768078652
222880,-42,-33,153,141,1092,-8196,1745147767768078652
223072,2,-39,154,159,1039,-8177,1745147767768078652
223264,45,-46,155,182,945,-8160,1745147767768078652
223456,82,-53,155,196,780,-8174,1745147767768078652
223648,110,-56,152,223,610,-8156,1745147767768078652
223840,117,-51,146,248,412,-8130,1745147767768078652
224032,100,-39,138,250,240,-8096,1745147767768078652
224224,70,-30,132,219,103,-8085,1745147767827778680
224416,55,-25,134,239,3,-8033,1745147767827778680
224608,21,-13,126,222,5,-7988,1745147767827778680
224800,-10,9,120,178,61,-8066,1745147767827778680
224992,20,-2,126,212,151,-8079,1745147767827778680
225184,43,1,115,245,225,-8056,1745147767827778680
225376,27,21,87,229,244,-8126,1745147767827778680
225568,17,20,68,245,240,-8147,1745147767827778680
225760,20,18,61,224,261,-8110,1745147767827778680
225952,24,19,65,180,298,-8151,1745147767827778680
226144,33,19,73,177,374,-8131,1745147767827778680
226336,26,28,72,161,430,-8116,1745147767827778680
226528,13,37,67,124,419,-8118,1745147767884844304
226720,18,35,66,108,420,-8133,1745147767884844304
226912,40,29,67,68,413,-8135,1745147767884844304
227104,62,28,64,51,388,-8152,1745147767884844304
227296,72,29,54,25,333,-8152,1745147767884844304
227488,76,33,44,-5,255,-8168,1745147767884844304
227680,77,38,40,-15,195,-8175,1745147767884844304
227872,77,41,41,-14,137,-8170,1745147767884844304
228064,73,42,43,-18,84,-8142,1745147767884844304
228256,64,45,46,-9,56,-8155,1745147767884844304
228448,59,47,52,0,45,-8171,1745147767884844304
228640,57,49,54,35,71,-8175,1745147767884844304
228832,48,53,49,43,108,-8184,1745147767944738809
229024,39,56,45,62,129,-8192,1745147767944738809
229216,33,58,45,61,179,-8190,1745147767944738809
229408,26,64,47,64,219,-8190,1745147767944738809
229600,23,69,51,70,244,-8190,1745147767944738809
229792,24,70,53,72,284,-8179,1745147767944738809
229984,26,72,53,83,302,-8171,1745147767944738809
230176,31,73,51,101,306,-8176,1745147767944738809
230368,40,73,48,114,314,-8169,1745147767944738809
230560,44,73,45,121,297,-8138,1745147767944738809
230752,43,74,44,141,295,-8128,1745147767944738809
230944,40,75,47,149,296,-8098,1745147767944738809
231136,35,76,51,161,308,-8077,1745147768005688253
231328,33,77,56,155,332,-8071,1745147768005688253
231520,35,80,62,175,355,-8084,1745147768005688253
231712,41,80,64,184,366,-8126,1745147768005688253
231904,51,80,62,184,353,-8154,1745147768005688253
232096,63,81,57,241,325,-8161,1745147768005688253
232288,71,85,51,262,272,-8160,1745147768005688253
232480,74,88,47,292,225,-8175,1745147768005688253
232672,73,92,45,301,200,-8173,1745147768005688253
232864,65,95,46,292,209,-8144,1745147768005688253
233056,56,93,48,291,199,-8106,1745147768005688253
233248,50,92,50,293,196,-8070,1745147768005688253
233440,49,92,51,293,202,-8036,1745147768059781352
233632,48,90,50,328,171,-8019,1745147768059781352
233824,44,86,45,330,156,-7999,1745147768059781352
234016,42,82,39,341,132,-8005,1745147768059781352
234208,40,73,36,333,150,-8008,1745147768059781352
234400,42,63,34,307,157,-8036,1745147768059781352
234592,44,56,33,305,215,-8054,1745147768059781352
234784,41,52,30,297,233,-8054,1745147768059781352
234976,32,51,31,305,263,-8048,1745147768059781352
235168,22,51,34,302,283,-8052,1745147768059781352
235360,20,49,42,297,307,-8077,1745147768059781352
235552,29,43,46,318,305,-8095,1745147768059781352
235744,38,38,44,351,280,-8080,1745147768120211165
235936,50,33,36,337,220,-8098,1745147768120211165
236128,60,27,27,322,167,-8114,1745147768120211165
236320,62,20,20,309,99,-8123,1745147768120211165
236512,63,12,18,265,29,-8108,1745147768120211165
236704,62,5,18,252,-14,-8097,1745147768120211165
236896,53,1,18,225,-54,-8103,1745147768120211165
237088,40,-3,19,188,-84,-8116,1745147768120211165
237280,28,-6,20,163,-114,-8113,1745147768120211165
237472,17,-10,20,148,-94,-8130,1745147768120211165
237664,5,-14,19,106,-81,-8152,1745147768120211165
237856,-2,-20,18,98,-72,-8131,1745147768120211165
238048,-9,-23,18,94,-55,-8117,1745147768177151374
238240,-16,-26,18,87,-24,-8144,1745147768177151374
238432,-21,-29,18,64,3,-8177,1745147768177151374
238624,-21,-31,19,56,20,-8214,1745147768177151374
238816,-16,-37,21,65,42,-8213,1745147768177151374
239008,-12,-41,22,60,51,-8200,1745147768177151374
239200,-16,-39,20,71,51,-8159,1745147768177151374
239392,-28,-36,18,67,63,-8127,1745147768177151374
239584,-40,-35,19,74,72,-8069,1745147768177151374
239776,-48,-35,25,103,85,-8031,1745147768177151374
239968,-53,-36,31,143,103,-8022,1745147768177151374
240160,-57,-38,32,189,119,-8023,1745147768177151374
240352,-59,-40,31,221,134,-8069,1745147768236991713
240544,-61,-42,27,262,144,-8089,1745147768236991713
240736,-60,-46,22,279,159,-8103,1745147768236991713
240928,-59,-50,17,284,141,-8111,1745147768236991713
241120,-58,-53,12,282,153,-8122,1745147768236991713
241312,-58,-55,8,291,154,-8131,1745147768236991713
241504,-58,-56,4,287,163,-8145,1745147768236991713
241696,-60,-58,1,272,178,-8138,1745147768236991713
241888,-62,-60,-2,259,201,-8142,1745147768236991713
242080,-62,-60,-3,253,237,-8143,1745147768236991713
242272,-60,-63,-5,247,256,-8127,1745147768236991713
242464,-56,-66,-8,243,261,-8106,1745147768236991713
242656,-53,-70,-13,249,263,-8093,1745147768294351241
242848,-47,-73,-19,243,260,-8086,1745147768294351241
243040,-42,-77,-23,240,257,-8091,1745147768294351241
243232,-39,-79,-27,222,255,-8095,1745147768294351241
243424,-37,-82,-29,211,234,-8122,1745147768294351241
243616,-36,-83,-31,191,224,-8142,1745147768294351241
243808,-34,-84,-31,164,213,-8151,1745147768294351241
244000,-35,-86,-32,152,195,-8158,1745147768294351241
244192,-38,-87,-32,151,169,-8171,1745147768294351241
244384,-41,-88,-31,131,155,-8160,1745147768294351241
244576,-45,-87,-31,103,139,-8150,1745147768294351241
244768,-50,-85,-33,101,157,-8154,1745147768294351241
244960,-55,-84,-33,79,178,-8134,1745147768354319339
245152,-60,-83,-32,59,206,-8114,1745147768354319339
245344,-62,-82,-33,66,248,-8097,1745147768354319339
245536,-61,-79,-33,77,257,-8090,1745147768354319339
245728,-57,-78,-32,102,268,-8096,1745147768354319339
245920,-55,-76,-33,118,267,-8114,1745147768354319339
246112,-52,-77,-33,129,271,-8143,1745147768354319339
246304,-49,-79,-34,120,265,-8151,1745147768354319339
246496,-47,-73,-35,-32,264,-8021,1745147768354319339
246688,-46,-50,-36,-246,223,-8020,1745147768354319339
246880,-52,-29,-39,-195,101,-8086,1745147768354319339
247072,-72,-27,-43,76,-91,-8173,1745147768354319339
247264,-98,-30,-39,184,-41,-8151,1745147768411258506
247456,-110,-26,-24,118,188,-8095,1745147768411258506
247648,-107,-21,-12,27,382,-8074,1745147768411258506
247840,-98,-22,-15,59,474,-8095,1745147768411258506
248032,-90,-26,-27,90,442,-8119,1745147768411258506
248224,-79,-24,-38,112,410,-8135,1745147768411258506
248416,-66,-21,-42,132,435,-8138,1745147768411258506
248608,-46,-26,-38,182,564,-8093,1745147768411258506
248800,-13,-38,-27,259,795,-8029,1745147768411258506
248992,39,-54,-15,295,993,-7931,1745147768411258506
249184,108,-63,-10,256,1125,-7923,1745147768411258506
249376,172,-74,-16,240,1018,-7944,1745147768411258506
249568,215,-91,-30,313,713,-8035,1745147768471148636
249760,233,-115,-37,427,407,-8121,1745147768471148636
249952,234,-138,-30,448,184,-8188,1745147768471148636
250144,229,-156,-19,328,109,-8220,1745147768471148636
250336,222,-160,-10,114,136,-8236,1745147768471148636
250528,216,-155,-15,-58,133,-8220,1745147768471148636
250720,215,-144,-27,-126,120,-8210,1745147768471148636
250912,218,-132,-38,-101,35,-8200,1745147768471148636
251104,216,-127,-40,31,-70,-8193,1745147768471148636
251296,208,-138,-31,167,-51,-8183,1745147768471148636
251488,200,-149,-15,163,49,-8139,1745147768471148636
251680,202,-156,-5,77,151,-8125,1745147768471148636
251872,211,-158,-4,1,182,-8103,1745147768528236396
252064,220,-156,-9,-80,113,-8131,1745147768528236396
252256,220,-148,-15,-150,23,-8160,1745147768528236396
252448,209,-132,-17,-233,-79,-8179,1745147768528236396
252640,192,-114,-17,-267,-137,-8200,1745147768528236396
252832,167,-95,-14,-298,-152,-8180,1745147768528236396
253024,141,-76,-11,-294,-128,-8195,1745147768528236396
253216,116,-59,-10,-268,-119,-8199,1745147768528236396
253408,93,-44,-9,-214,-109,-8194,1745147768528236396
253600,68,-34,-9,-174,-131,-8185,1745147768528236396
253792,44,-26,-9,-149,-88,-8119,1745147768528236396
253984,29,-20,-7,-90,55,-8072,1745147768528236396
255712,23,-97,-17,-29,-28,-8187,1745147770626464728
334624,51,13,22,-334,945,-8021,1745147770626464728
334816,429,-157,29,-464,728,-8060,1745147770626464728
335008,64,22,45,-482,367,-8266,1745147770626464728
335200,24,-20,33,-493,299,-8236,1745147770626464728
335392,-28,-6,39,-553,272,-8280,1745147770626464728
335584,-45,36,38,-578,327,-8289,1745147770626464728
335776,-72,23,35,-554,389,-8263,1745147770626464728
335968,-101,54,32,-540,484,-8242,1745147770626464728
336160,-94,64,30,-473,559,-8204,1745147770626464728
336352,-96,53,30,-434,610,-8189,1745147770626464728
336544,-100,77,29,-401,617,-8184,1745147770626464728
336736,-96,73,26,-398,657,-8231,1745147770681715526
336928,-95,74,24,-386,792,-8297,1745147770681715526
337120,-70,85,21,-254,1012,-8386,1745147770681715526
337312,-41,57,12,141,939,-8488,1745147770681715526
337504,-23,13,-4,426,955,-8512,1745147770681715526
337696,10,-30,-18,394,1255,-8520,1745147770681715526
337888,65,-80,-27,272,1542,-8530,1745147770681715526
338080,136,-116,-41,87,1805,-8516,1745147770681715526
338272,221,-131,-48,-320,2041,-8541,1745147770681715526
338464,302,-104,-46,-770,1739,-8442,1745147770681715526
338656,322,-51,-49,-980,559,-8556,1745147770681715526
338848,351,-27,-54,-601,1224,-8041,1745147770681715526
339040,409,-19,-40,-783,703,-8056,1745147770739892078
339232,426,23,-32,-575,411,-8161,1745147770739892078
339424,429,6,-41,-396,102,-7957,1745147770739892078
339616,428,17,-65,-471,-271,-7839,1745147770739892078
339808,368,22,-100,-581,-555,-7535,1745147770739892078
340000,-19,121,-140,-2845,-2756,-6587,1745147770739892078
340192,-154,356,-160,-2681,-2440,-7582,1745147770739892078
340384,-206,372,-93,-1738,-1583,-7816,1745147770739892078
340576,-276,397,29,-832,-790,-7817,1745147770739892078
340768,-366,377,117,-71,65,-8038,1745147770739892078
340960,-410,347,144,480,814,-8161,1745147770739892078
341152,-393,285,118,795,1404,-8214,1745147770739892078
341344,-324,209,60,910,1804,-8205,1745147770801799845
341536,-238,139,-3,808,1965,-8208,1745147770801799845
341728,-153,76,-55,562,1889,-8182,1745147770801799845
341920,-82,28,-88,241,1599,-8124,1745147770801799845
342112,-26,-1,-99,-82,1237,-8091,1745147770801799845
342304,10,-11,-92,-335,898,-8047,1745147770801799845
342496,26,-5,-75,-514,597,-8044,1745147770801799845
342688,20,9,-57,-585,389,-8046,1745147770801799845
342880,2,26,-43,-587,254,-8050,1745147770801799845
343072,-22,43,-36,-536,197,-8050,1745147770801799845
343264,-50,56,-33,-479,189,-8059,1745147770801799845
343456,-78,62,-33,-392,210,-8093,1745147770801799845
343648,-104,62,-33,-331,264,-8110,1745147770859917283
343840,-126,59,-34,-275,304,-8151,1745147770859917283
344032,-144,53,-36,-254,339,-8182,1745147770859917283
344224,-163,45,-40,-238,355,-8122,1745147770859917283
344416,-188,40,-42,-226,363,-8122,1745147770859917283
344608,-211,40,-43,-239,398,-8154,1745147770859917283
344800,-228,39,-42,-253,463,-8139,1745147770859917283
344992,-239,37,-42,-238,550,-8153,1745147770859917283
345184,-243,36,-41,-241,651,-8126,1745147770859917283
345376,-245,34,-41,-197,692,-8006,1745147770859917283
345568,-245,27,-46,-136,702,-7883,1745147770859917283
345760,-242,18,-55,-68,643,-7772,1745147770859917283
345952,-241,2,-68,38,508,-7512,1745147770918593466
346144,-244,-21,-85,206,281,-7508,1745147770918593466
346336,-243,-48,-107,411,19,-7626,1745147770918593466
346528,-248,-93,-130,769,-231,-7232,1745147770918593466
346720,-248,-172,-149,1375,-463,-6698,1745147770918593466
346912,-206,-261,-158,2113,-698,-6870,1745147770918593466
347104,-160,-393,-183,2927,-849,-7638,1745147770918593466
347296,-209,-492,-211,3509,-676,-8473,1745147770918593466
347488,-292,-561,-216,3830,-638,-8608,1745147770918593466
347680,-331,-697,-268,3498,-906,-7060,1745147770918593466
347872,-300,-1068,-490,3789,-415,-7797,1745147770918593466
348064,-379,-1271,-682,3737,-196,-8718,1745147770918593466
348256,-518,-1356,-822,3658,-129,-8902,1745147770976412625
348448,-611,-1456,-944,3649,121,-9011,1745147770976412625
348640,-716,-1569,-1067,3638,475,-9103,1745147770976412625
348832,-889,-1652,-1232,3536,873,-8980,1745147770976412625
349024,-1158,-1666,-1434,3397,1227,-8868,1745147770976412625
349216,-1425,-1644,-1639,3076,1734,-8688,1745147770976412625
349408,-1629,-1598,-1805,2615,2342,-8177,1745147770976412625
349600,-1769,-1499,-1941,2136,3128,-7938,1745147770976412625
349792,-1859,-1370,-2033,1901,3887,-7761,1745147770976412625
349984,-1903,-1330,-2091,1930,4333,-7589,1745147770976412625
350176,-1934,-1340,-2119,1992,4464,-7499,1745147770976412625
350368,-1962,-1351,-2109,1829,4345,-7362,1745147770976412625
350560,-1975,-1361,-2053,1377,4189,-7395,1745147771035427659
350752,-1968,-1327,-1944,822,4115,-7470,1745147771035427659
350944,-1955,-1260,-1804,123,3974,-7580,1745147771035427659
351136,-1939,-1148,-1654,-401,3606,-7630,1745147771035427659
351328,-1933,-999,-1481,-646,2920,-7333,1745147771035427659
351520,-1917,-869,-1278,-751,2120,-7165,1745147771035427659
351712,-1904,-743,-1062,-837,1252,-6892,1745147771035427659
351904,-1922,-594,-836,-934,412,-6460,1745147771035427659
352096,-1989,-431,-608,-957,-447,-5986,1745147771035427659
352288,-2113,-259,-384,-845,-1283,-5428,1745147771035427659
352480,-2265,-96,-174,-798,-2012,-4852,1745147771035427659
352672,-2419,64,43,-760,-2536,-4310,1745147771035427659
352864,-2566,221,281,-673,-2804,-3784,1745147771094131133
353056,-2695,350,513,-511,-2878,-3339,1745147771094131133
353248,-2809,446,723,-256,-2830,-3045,1745147771094131133
353440,-2896,501,910,-28,-2731,-2871,1745147771094131133
353632,-2938,532,1092,148,-2632,-2736,1745147771094131133
353824,-2900,548,1274,265,-2457,-2652,1745147771094131133
354016,-2780,568,1449,352,-2221,-2851,1745147771094131133
354208,-2623,600,1615,454,-1967,-3206,1745147771094131133
354400,-2436,638,1791,468,-1762,-3556,1745147771094131133
354592,-2207,687,1994,450,-1676,-3868,1745147771094131133
354784,-1931,751,2220,483,-1685,-4184,1745147771094131133
354976,-1627,832,2453,481,-1735,-4443,1745147771094131133
355168,-1304,927,2685,491,-1802,-4608,1745147771152470705
355360,-977,1028,2907,546,-1858,-4773,1745147771152470705
355552,-660,1130,3110,613,-1872,-4851,1745147771152470705
355744,-370,1233,3299,633,-1914,-4808,1745147771152470705
355936,-100,1339,3483,672,-2024,-4764,1745147771152470705
356128,150,1448,3658,741,-2122,-4764,1745147771152470705
356320,365,1557,3818,870,-2205,-4704,1745147771152470705
356512,544,1665,3966,1043,-2222,-4519,1745147771152470705
356704,697,1773,4105,1248,-2165,-4473,1745147771152470705
356896,824,1883,4237,1438,-1955,-4434,1745147771152470705
357088,924,2004,4361,1613,-1656,-4495,1745147771152470705
357280,989,2127,4481,1827,-1326,-4615,1745147771152470705
357472,1007,2245,4599,2117,-1056,-4777,1745147771211041732
357664,967,2353,4717,2430,-828,-4963,1745147771211041732
357856,857,2451,4834,2775,-687,-5108,1745147771211041732
358048,679,2545,4952,3078,-543,-5188,1745147771211041732
358240,450,2637,5074,3401,-397,-5284,1745147771211041732
358432,201,2722,5196,3819,-203,-5394,1745147771211041732
358624,-56,2795,5307,4233,111,-5485,1745147771211041732
358816,-321,2868,5389,4630,525,-5719,1745147771211041732
359008,-577,2938,5418,5032,1065,-5956,1745147771211041732
359200,-797,2997,5406,5495,1779,-6135,1745147771211041732
359392,-953,3028,5382,6009,2560,-6315,1745147771211041732
359584,-1013,3041,5361,6666,3338,-6526,1745147771211041732
359776,-941,3030,5352,7447,4310,-6943,1745147771268430739
359968,-719,3051,5342,8161,4921,-7165,1745147771268430739
360160,-352,3059,5219,8753,5888,-7526,1745147771268430739
360352,86,3051,5055,9327,6937,-8093,1745147771268430739
360544,538,3059,4888,9873,7620,-8507,1745147771268430739
360736,948,3034,4730,10366,8026,-8783,1745147771268430739
360928,1315,2999,4632,10655,7864,-8820,1745147771268430739
361120,1625,2968,4584,10637,7381,-8711,1745147771268430739
361312,1857,2973,4591,10273,6637,-8519,1745147771268430739
361504,2005,3034,4644,9690,5784,-8221,1745147771268430739
361696,2052,3128,4713,9187,4856,-7952,1745147771268430739
361888,1996,3240,4772,8892,3960,-7603,1745147771268430739
362080,1847,3350,4810,8966,3092,-7160,1745147771326622812
362272,1596,3474,4837,9482,2308,-6964,1745147771326622812
362464,1271,3595,4868,9773,1445,-5470,1745147771326622812
362656,875,3552,4865,10955,48,-4878,1745147771326622812
362848,565,3450,4767,11953,-273,-4731,1745147771326622812
363040,224,3383,4696,12774,-348,-4486,1745147771326622812
363232,-76,3296,4567,13529,-419,-4428,1745147771326622812
363424,-337,3192,4333,14082,-56,-4412,1745147771326622812
363616,-590,3086,4088,14380,800,-4724,1745147771326622812
363808,-849,2982,3912,14383,1740,-5138,1745147771326622812
364000,-1084,2887,3813,14229,2608,-5488,1745147771326622812
364192,-1268,2808,3784,14094,3288,-5734,1745147771326622812
364384,-1407,2738,3821,14047,3728,-5965,1745147771385425660
364576,-1494,2657,3894,13995,3966,-6107,1745147771385425660
364768,-1536,2581,3963,13856,4023,-6201,1745147771385425660
364960,-1551,2517,4004,13510,3988,-6214,1745147771385425660
365152,-1548,2468,4024,13055,3844,-6199,1745147771385425660
365344,-1537,2427,4027,12617,3604,-6099,1745147771385425660
365536,-1524,2379,4003,12185,3322,-5968,1745147771385425660
365728,-1505,2324,3945,11826,3002,-5699,1745147771385425660
365920,-1488,2297,3862,11583,2612,-5362,1745147771385425660
366112,-1473,2247,3762,11407,2290,-4971,1745147771385425660
366304,-1451,2184,3633,11233,2054,-4651,1745147771385425660
366496,-1428,2118,3472,11058,1872,-4431,1745147771385425660
366688,-1402,2040,3284,10861,1731,-4208,1745147771445566829
366880,-1363,1947,3076,10691,1629,-4023,1745147771445566829
367072,-1298,1840,2865,10528,1459,-3827,1745147771445566829
367264,-1212,1715,2650,10407,1268,-3650,1745147771445566829
367456,-1103,1589,2435,10258,1113,-3518,1745147771445566829
367648,-984,1469,2214,10073,984,-3413,1745147771445566829
367840,-870,1345,1992,9915,831,-3358,1745147771445566829
368032,-766,1223,1782,9735,640,-3357,1745147771445566829
368224,-666,1102,1588,9536,404,-3341,1745147771445566829
368416,-564,988,1410,9321,154,-3374,1745147771445566829
368608,-475,893,1255,9069,-47,-3478,1745147771445566829
368800,-406,813,1127,8844,-240,-3660,1745147771445566829
368992,-354,744,1024,8582,-369,-3826,1745147771503706142
369184,-312,692,944,8328,-400,-3923,1745147771503706142
369376,-283,667,889,8115,-400,-3967,1745147771503706142
369568,-282,656,863,8029,-473,-3891,1745147771503706142
369760,-301,626,857,8026,-608,-3782,1745147771503706142
369952,-320,569,862,7953,-740,-3758,1745147771503706142
370144,-325,521,870,7843,-826,-3813,1745147771503706142
370336,-333,499,882,7747,-892,-3826,1745147771503706142
370528,-360,463,897,7633,-1016,-3717,1745147771503706142
370720,-403,430,910,7580,-1182,-3606,1745147771503706142
370912,-450,397,921,7459,-1345,-3556,1745147771503706142
371104,-498,379,932,7342,-1566,-3481,1745147771503706142
371296,-533,357,934,7239,-1709,-3456,1745147771561993474
371488,-564,347,928,7170,-1806,-3432,1745147771561993474
371680,-596,336,918,7120,-1912,-3391,1745147771561993474
371872,-625,335,892,7077,-2031,-3388,1745147771561993474
372064,-642,339,847,7032,-2088,-3408,1745147771561993474
372256,-653,346,792,7006,-2093,-3423,1745147771561993474
372448,-660,353,734,6933,-2024,-3420,1745147771561993474
372640,-660,362,677,6909,-1921,-3445,1745147771561993474
372832,-648,370,624,6906,-1802,-3447,1745147771561993474
373024,-625,374,572,6950,-1721,-3434,1745147771561993474
373216,-588,377,532,7011,-1713,-3399,1745147771561993474
373408,-539,369,501,7133,-1719,-3361,1745147771561993474
373600,-480,359,479,7265,-1854,-3312,1745147771620517054
373792,-409,341,417,7317,-1831,-3262,1745147771620517054
373984,-348,318,363,7371,-1864,-3222,1745147771620517054
374176,-285,289,322,7336,-1874,-3244,1745147771620517054
374368,-215,265,293,7258,-1908,-3277,1745147771620517054
374560,-149,238,268,7188,-1939,-3332,1745147771620517054
374752,-94,212,246,7144,-2014,-3333,1745147771620517054
374944,-52,185,228,7132,-2169,-3327,1745147771620517054
375136,-18,159,216,7104,-2355,-3338,1745147771620517054
375328,16,137,213,7069,-2505,-3378,1745147771620517054
375520,42,123,212,7013,-2593,-3384,1745147771620517054
375712,59,117,207,6968,-2650,-3405,1745147771620517054
375904,70,108,201,6894,-2700,-3404,1745147771673827088
376096,76,101,192,6847,-2741,-3394,1745147771673827088
376288,82,95,185,6836,-2790,-3378,1745147771673827088
376480,85,90,181,6842,-2860,-3329,1745147771673827088
376672,85,85,178,6886,-2935,-3287,1745147771673827088
376864,86,79,172,6935,-2984,-3262,1745147771673827088
377056,84,71,161,6937,-3006,-3250,1745147771673827088
377248,76,61,143,6969,-3044,-3236,1745147771673827088
377440,66,50,123,6950,-3114,-3210,1745147771673827088
377632,57,40,105,6965,-3172,-3201,1745147771673827088
377824,51,31,89,6984,-3212,-3202,1745147771673827088
378016,45,25,79,6884,-3218,-3160,1745147771673827088
378208,39,21,76,6850,-3196,-3157,1745147771734278775
378400,25,26,67,6915,-3249,-3249,1745147771734278775
378592,-3,36,26,6973,-3318,-3186,1745147771734278775
378784,-23,34,-23,6969,-3365,-3108,1745147771734278775
378976,-29,32,-50,6941,-3378,-3145,1745147771734278775
379168,-32,28,-52,6886,-3308,-3174,1745147771734278775
379360,-40,28,-43,6890,-3236,-3195,1745147771734278775
379552,-49,26,-30,6932,-3193,-3164,1745147771734278775
379744,-49,18,-21,7001,-3215,-3112,1745147771734278775
379936,-42,3,-18,7130,-3290,-3085,1745147771734278775
380128,-32,-10,-21,7204,-3369,-3081,1745147771734278775
380320,-23,-21,-27,7243,-3424,-3043,1745147771734278775
380512,-22,-32,-32,7231,-3467,-2953,1745147771795628736
380704,-26,-42,-32,7174,-3499,-2929,1745147771795628736
380896,-30,-49,-26,7085,-3482,-2938,1745147771795628736
381088,-35,-47,-17,6997,-3410,-2999,1745147771795628736
381280,-46,-38,-10,6903,-3298,-3109,1745147771795628736
381472,-57,-28,-7,6849,-3216,-3166,1745147771795628736
381664,-61,-17,-4,6867,-3163,-3176,1745147771795628736
381856,-57,-9,-2,6931,-3173,-3155,1745147771795628736
382048,-48,-8,-2,7027,-3229,-3103,1745147771795628736
382240,-35,-11,-4,7130,-3296,-3042,1745147771795628736
382432,-21,-19,-11,7184,-3344,-3003,1745147771795628736
382624,-8,-27,-22,7175,-3339,-3020,1745147771795628736
382816,6,-33,-38,7122,-3307,-3019,1745147771852282645
383008,18,-40,-56,7074,-3301,-3031,1745147771852282645
383200,29,-49,-72,7023,-3287,-3021,1745147771852282645
383392,40,-56,-83,7010,-3279,-3008,1745147771852282645
383584,47,-62,-91,6996,-3289,-2987,1745147771852282645
383776,48,-70,-96,7036,-3341,-2951,1745147771852282645
383968,50,-80,-100,7046,-3386,-2904,1745147771852282645
384160,58,-92,-104,7053,-3442,-2897,1745147771852282645
384352,65,-102,-109,7061,-3469,-2891,1745147771852282645
384544,65,-112,-116,7014,-3457,-2886,1745147771852282645
384736,64,-122,-121,6948,-3467,-2835,1745147771852282645
384928,62,-133,-125,6911,-3522,-2769,1745147771852282645
385120,66,-144,-122,6872,-3589,-2745,1745147771917914337
385312,73,-150,-117,6852,-3628,-2814,1745147771917914337
385504,76,-148,-109,6820,-3628,-2886,1745147771917914337
385696,72,-141,-107,6808,-3588,-2897,1745147771917914337
385888,57,-136,-110,6803,-3592,-2850,1745147771917914337
386080,44,-132,-113,6821,-3624,-2799,1745147771917914337
386272,34,-127,-109,6841,-3663,-2739,1745147771917914337
386464,28,-123,-101,6869,-3713,-2698,1745147771917914337
386656,19,-120,-95,6883,-3754,-2677,1745147771917914337
386848,10,-118,-92,6894,-3752,-2634,1745147771917914337
387040,0,-116,-92,6926,-3763,-2597,1745147771917914337
387232,-14,-116,-93,6929,-3805,-2546,1745147771917914337
387424,-22,-115,-88,6927,-3853,-2549,1745147771966291864
387616,-21,-109,-78,6937,-3886,-2634,1745147771966291864
387808,-19,-98,-70,6937,-3849,-2735,1745147771966291864
388000,-23,-84,-63,6912,-3744,-2745,1745147771966291864
388192,-27,-71,-58,6878,-3639,-2769,1745147771966291864
388384,-28,-60,-49,6864,-3551,-2727,1745147771966291864
388576,-20,-53,-38,6869,-3478,-2675,1745147771966291864
388768,-7,-51,-25,6905,-3483,-2649,1745147771966291864
388960,7,-51,-15,6917,-3514,-2619,1745147771966291864
389152,18,-48,-4,6926,-3527,-2658,1745147771966291864
389344,21,-51,5,6993,-3588,-2590,1745147771966291864
389536,23,-62,0,7090,-3649,-2557,1745147771966291864
389728,24,-71,-16,7117,-3742,-2477,1745147772029457381
389920,28,-77,-28,7084,-3849,-2423,1745147772029457381
390112,33,-82,-29,7031,-3913,-2439,1745147772029457381
390304,36,-86,-22,6997,-3966,-2515,1745147772029457381
390496,35,-79,-17,6938,-3952,-2620,1745147772029457381
390688,32,-66,-12,6870,-3901,-2694,1745147772029457381
390880,31,-50,-3,6817,-3834,-2718,1745147772029457381
391072,36,-33,11,6805,-3758,-2754,1745147772029457381
391264,41,-18,26,6797,-3667,-2773,1745147772029457381
391456,45,-3,39,6802,-3599,-2798,1745147772029457381
391648,50,8,51,6819,-3553,-2783,1745147772029457381
391840,57,12,64,6817,-3542,-2756,1745147772029457381
392032,64,10,76,6842,-3556,-2764,1745147772087664089
392224,71,6,85,6832,-3584,-2787,1745147772087664089
392416,80,3,91,6825,-3586,-2812,1745147772087664089
392608,86,0,89,6817,-3589,-2844,1745147772087664089
392800,86,-5,78,6761,-3610,-2833,1745147772087664089
392992,87,-12,67,6752,-3623,-2792,1745147772087664089
393184,87,-22,54,6763,-3684,-2739,1745147772087664089
393376,90,-32,43,6767,-3732,-2737,1745147772087664089
393568,89,-39,34,6784,-3742,-2727,1745147772087664089
393760,81,-45,23,6783,-3723,-2707,1745147772087664089
393952,67,-53,11,6813,-3722,-2690,1745147772087664089
394144,57,-64,3,6826,-3758,-2653,1745147772087664089
394336,56,-73,0,6843,-3772,-2672,1745147772146225168
394528,62,-79,-1,6875,-3757,-2738,1745147772146225168
394720,62,-81,-2,6860,-3711,-2775,1745147772146225168
394912,56,-80,-4,6852,-3659,-2809,1745147772146225168
395104,51,-79,-4,6811,-3611,-2811,1745147772146225168
395296,51,-75,0,6795,-3571,-2790,1745147772146225168
395488,52,-71,5,6787,-3569,-2750,1745147772146225168
395680,51,-68,8,6796,-3591,-2736,1745147772146225168
395872,52,-62,13,6798,-3595,-2756,1745147772146225168
396064,53,-56,16,6801,-3584,-2781,1745147772146225168
396256,52,-49,13,6795,-3569,-2746,1745147772146225168
396448,48,-45,8,6815,-3588,-2682,1745147772146225168
396640,50,-44,1,6837,-3620,-2625,1745147772206607117
396832,57,-45,-4,6845,-3666,-2605,1745147772206607117
397024,63,-47,-11,6886,-3692,-2551,1745147772206607117
397216,64,-49,-18,6912,-3719,-2535,1745147772206607117
397408,63,-54,-26,6945,-3759,-2492,1745147772206607117
397600,58,-57,-29,6952,-3782,-2500,1745147772206607117
397792,53,-59,-28,6938,-3806,-2536,1745147772206607117
397984,45,-58,-24,6932,-3755,-2599,1745147772206607117
398176,34,-55,-20,6868,-3690,-2630,1745147772206607117
398368,24,-50,-15,6853,-3635,-2634,1745147772206607117
398560,16,-43,-7,6828,-3565,-2659,1745147772206607117
398752,7,-39,0,6851,-3539,-2647,1745147772206607117
398944,4,-37,5,6845,-3546,-2618,1745147772261485678
399136,9,-36,9,6862,-3546,-2619,1745147772261485678
399328,15,-34,9,6868,-3550,-2627,1745147772261485678
399520,18,-34,4,6857,-3574,-2632,1745147772261485678
399712,24,-32,-2,6822,-3580,-2655,1745147772261485678
399904,34,-29,-9,6774,-3560,-2701,1745147772261485678
400096,43,-23,-18,6722,-3504,-2727,1745147772261485678
400288,47,-17,-29,6689,-3459,-2742,1745147772261485678
400480,50,-14,-39,6675,-3457,-2735,1745147772261485678
400672,58,-12,-45,6680,-3480,-2704,1745147772261485678
400864,68,-16,-49,6709,-3538,-2662,1745147772261485678
401056,72,-24,-54,6745,-3622,-2632,1745147772261485678
401248,75,-30,-59,6758,-3704,-2634,1745147772321809450
401440,75,-36,-62,6756,-3736,-2626,1745147772321809450
401632,69,-41,-64,6733,-3754,-2608,1745147772321809450
401824,60,-44,-66,6698,-3778,-2616,1745147772321809450
402016,53,-45,-62,6666,-3756,-2623,1745147772321809450
402208,44,-41,-56,6635,-3727,-2645,1745147772321809450
402400,35,-35,-49,6643,-3692,-2661,1745147772321809450
402592,26,-31,-41,6663,-3674,-2651,1745147772321809450
402784,17,-27,-32,6707,-3690,-2663,1745147772321809450
402976,17,-25,-23,6740,-3710,-2631,1745147772321809450
403168,18,-22,-18,6774,-3708,-2630,1745147772321809450
403360,16,-20,-17,6799,-3714,-2617,1745147772321809450
403552,15,-19,-17,6804,-3712,-2602,1745147772379930742
403744,15,-17,-18,6778,-3687,-2611,1745147772379930742
403936,16,-10,-19,6758,-3654,-2630,1745147772379930742
404128,15,-4,-22,6744,-3593,-2641,1745147772379930742
404320,16,2,-24,6774,-3572,-2637,1745147772379930742
404512,24,6,-25,6804,-3566,-2623,1745147772379930742
404704,32,8,-25,6847,-3544,-2618,1745147772379930742
404896,41,9,-26,6906,-3547,-2659,1745147772379930742
405088,49,8,-27,6950,-3553,-2678,1745147772379930742
405280,59,5,-29,6980,-3574,-2628,1745147772379930742
405472,64,-2,-31,6999,-3633,-2586,1745147772379930742
405664,70,-8,-31,6988,-3697,-2593,1745147772379930742
405856,74,-10,-30,6959,-3724,-2626,1745147772433672334
406048,70,-8,-30,6917,-3732,-2682,1745147772433672334
406240,58,-2,-30,6883,-3712,-2712,1745147772433672334
406432,48,5,-29,6866,-3696,-2738,1745147772433672334
406624,40,10,-27,6861,-3689,-2733,1745147772433672334
406816,35,15,-25,6881,-3676,-2720,1745147772433672334
407008,29,15,-25,6920,-3705,-2653,1745147772433672334
407200,24,10,-26,6952,-3767,-2613,1745147772433672334
407392,25,3,-27,6953,-3813,-2612,1745147772433672334
407584,22,0,-29,6946,-3844,-2645,1745147772433672334
407776,13,0,-32,6903,-3826,-2695,1745147772433672334
407968,5,-1,-34,6861,-3814,-2729,1745147772433672334
408160,1,1,-35,6810,-3796,-2733,1745147772497001912
408352,1,5,-33,6813,-3799,-2727,1745147772497001912
408544,3,8,-29,6791,-3799,-2734,1745147772497001912
408736,3,10,-24,6796,-3821,-2734,1745147772497001912
408928,2,11,-18,6786,-3850,-2730,1745147772497001912
409120,3,10,-11,6777,-3890,-2732,1745147772497001912
409312,3,9,-4,6757,-3884,-2735,1745147772497001912
409504,1,9,2,6734,-3918,-2739,1745147772497001912
409696,-2,11,9,6720,-3920,-2755,1745147772497001912
409888,-4,17,19,6688,-3903,-2788,1745147772497001912
410080,-5,23,28,6684,-3852,-2814,1745147772497001912
410272,-10,30,35,6660,-3789,-2814,1745147772497001912
410464,-14,34,41,6683,-3761,-2804,1745147772555509711
410656,-15,35,47,6722,-3753,-2779,1745147772555509711
410848,-14,33,52,6736,-3743,-2739,1745147772555509711
411040,-12,30,55,6760,-3739,-2738,1745147772555509711
411232,-14,27,55,6785,-3722,-2762,1745147772555509711
411424,-20,24,52,6776,-3693,-2782,1745147772555509711
411616,-24,24,50,6777,-3666,-2812,1745147772555509711
411808,-21,26,47,6782,-3599,-2837,1745147772555509711
412000,-15,29,43,6801,-3527,-2825,1745147772555509711
412192,-11,29,36,6850,-3475,-2789,1745147772555509711
412384,-5,25,30,6882,-3462,-2762,1745147772555509711
412576,5,20,24,6941,-3452,-2740,1745147772555509711
412768,16,13,19,6980,-3465,-2740,1745147772616167907
412960,27,4,11,7008,-3496,-2727,1745147772616167907
413152,38,-7,3,7021,-3526,-2703,1745147772616167907
413344,44,-15,-8,7005,-3560,-2680,1745147772616167907
413536,48,-22,-17,6969,-3603,-2687,1745147772616167907
413728,48,-28,-25,6931,-3620,-2710,1745147772616167907
413920,46,-28,-31,6885,-3613,-2749,1745147772616167907
414112,39,-24,-34,6871,-3598,-2756,1745147772616167907
414304,25,-21,-38,6853,-3600,-2741,1745147772616167907
414496,15,-17,-39,6873,-3622,-2744,1745147772616167907
414688,7,-13,-39,6893,-3634,-2738,1745147772616167907
414880,1,-10,-40,6934,-3661,-2700,1745147772616167907
415072,-4,-10,-43,6949,-3673,-2682,1745147772671062405
415264,-8,-10,-47,6946,-3686,-2672,1745147772671062405
415456,-10,-10,-50,6919,-3689,-2669,1745147772671062405
415648,-10,-12,-55,6889,-3680,-2672,1745147772671062405
415840,-8,-13,-57,6861,-3665,-2681,1745147772671062405
416032,-7,-12,-59,6846,-3687,-2698,1745147772671062405
416224,-4,-11,-58,6838,-3707,-2687,1745147772671062405
416416,2,-9,-55,6824,-3711,-2710,1745147772671062405
416608,9,-7,-51,6816,-3696,-2731,1745147772671062405
416800,12,-4,-47,6801,-3684,-2754,1745147772671062405
416992,12,-2,-42,6774,-3666,-2741,1745147772671062405
417184,13,-3,-36,6773,-3674,-2707,1745147772671062405
417376,16,-3,-29,6769,-3682,-2686,1745147772728847346
417568,22,-6,-24,6771,-3683,-2706,1745147772728847346
417760,23,-6,-22,6765,-3670,-2749,1745147772728847346
417952,21,-5,-21,6768,-3639,-2754,1745147772728847346
418144,16,-4,-21,6745,-3647,-2726,1745147772728847346
418336,15,-5,-21,6751,-3649,-2722,1745147772728847346
418528,20,-4,-20,6750,-3641,-2742,1745147772728847346
418720,23,0,-20,6764,-3613,-2751,1745147772728847346
418912,22,3,-21,6779,-3619,-2730,1745147772728847346
419104,21,2,-22,6821,-3652,-2687,1745147772728847346
419296,28,1,-20,6847,-3697,-2662,1745147772728847346
419488,36,1,-19,6870,-3696,-2702,1745147772728847346
419680,38,3,-19,6866,-3644,-2750,1745147772786515934
419872,33,7,-20,6847,-3600,-2781,1745147772786515934
420064,30,9,-18,6834,-3546,-2754,1745147772786515934
420256,33,9,-14,6847,-3546,-2719,1745147772786515934
420448,37,7,-9,6866,-3561,-2717,1745147772786515934
420640,39,2,-8,6903,-3623,-2706,1745147772786515934
420832,40,-2,-9,6931,-3670,-2689,1745147772786515934
421024,40,-6,-10,6963,-3735,-2686,1745147772786515934
421216,39,-7,-12,6949,-3770,-2692,1745147772786515934
421408,34,-3,-15,6926,-3729,-2716,1745147772786515934
421600,25,3,-18,6899,-3670,-2730,1745147772786515934
421792,16,8,-19,6881,-3598,-2714,1745147772786515934
421792,16,8,-19,6881,-3598,-2714,1745147772848252766
422176,13,12,-16,6928,-3552,-2725,1745147772848252766
422368,14,11,-15,6963,-3557,-2733,1745147772848252766
422560,16,10,-16,7010,-3569,-2737,1745147772848252766
422752,16,7,-20,7025,-3564,-2769,1745147772848252766
422944,15,4,-29,6995,-3544,-2756,1745147772848252766
423136,15,1,-37,6961,-3531,-2762,1745147772848252766
423328,19,-3,-45,6946,-3520,-2762,1745147772848252766
423520,24,-6,-49,6925,-3531,-2757,1745147772848252766
423712,30,-8,-54,6896,-3531,-2753,1745147772848252766
423904,33,-13,-61,6916,-3550,-2723,1745147772848252766
424096,32,-20,-66,6929,-3608,-2705,1745147772848252766
424288,32,-27,-68,6937,-3672,-2697,1745147772906335829
424480,33,-33,-68,6920,-3704,-2735,1745147772906335829
424672,31,-35,-67,6904,-3705,-2756,1745147772906335829
424864,23,-35,-67,6869,-3686,-2750,1745147772906335829
425056,13,-35,-66,6816,-3684,-2728,1745147772906335829
425248,8,-36,-60,6806,-3715,-2720,1745147772906335829
425440,6,-38,-54,6800,-3724,-2718,1745147772906335829
425632,3,-38,-49,6802,-3769,-2697,1745147772906335829
425824,-1,-38,-45,6818,-3802,-2699,1745147772906335829
426016,-6,-36,-40,6789,-3793,-2715,1745147772906335829
426208,-13,-32,-34,6773,-3768,-2725,1745147772906335829
426400,-21,-26,-29,6768,-3710,-2731,1745147772906335829
426592,-25,-19,-22,6745,-3688,-2721,1745147772965064147
426784,-23,-13,-16,6778,-3677,-2702,1745147772965064147
426976,-17,-10,-11,6809,-3661,-2700,1745147772965064147
427168,-6,-8,-6,6850,-3694,-2707,1745147772965064147
427360,3,-5,-3,6881,-3667,-2736,1745147772965064147
427552,5,-3,-3,6885,-3604,-2736,1745147772965064147
427744,3,-1,-2,6860,-3597,-2710,1745147772965064147
427936,4,-2,-3,6874,-3612,-2671,1745147772965064147
428128,11,-3,-2,6860,-3641,-2667,1745147772965064147
428320,19,-2,-2,6864,-3622,-2694,1745147772965064147
428512,21,2,-4,6861,-3595,-2713,1745147772965064147
428704,14,7,-6,6879,-3574,-2724,1745147772965064147
428896,6,8,-8,6899,-3575,-2685,1745147773023700850
429088,1,6,-7,6958,-3607,-2662,1745147773023700850
429280,2,6,-5,6998,-3615,-2700,1745147773023700850
429472,4,7,-6,6996,-3604,-2731,1745147773023700850
429664,3,9,-10,6996,-3569,-2757,1745147773023700850
429856,0,8,-17,7013,-3538,-2746,1745147773023700850
430048,2,4,-22,7003,-3535,-2717,1745147773023700850
430240,9,0,-26,7006,-3550,-2691,1745147773023700850
430432,17,-2,-28,6993,-3550,-2730,1745147773023700850
430624,21,-3,-32,6997,-3543,-2753,1745147773023700850
430816,21,-4,-35,6967,-3523,-2745,1745147773023700850
431008,21,-8,-38,6953,-3545,-2719,1745147773023700850
431200,22,-12,-39,6948,-3578,-2686,1745147773087071105
431392,25,-15,-40,6947,-3623,-2694,1745147773087071105
431584,27,-18,-39,6938,-3653,-2713,1745147773087071105
431776,25,-18,-41,6932,-3655,-2712,1745147773087071105
431968,17,-16,-43,6919,-3654,-2706,1745147773087071105
432160,9,-16,-44,6909,-3674,-2726,1745147773087071105
432352,4,-15,-40,6897,-3655,-2729,1745147773087071105
432544,3,-12,-36,6884,-3654,-2756,1745147773087071105
432736,2,-9,-34,6877,-3663,-2746,1745147773087071105
432928,3,-10,-32,6893,-3679,-2712,1745147773087071105
433120,6,-15,-31,6891,-3720,-2700,1745147773087071105
433312,12,-19,-27,6867,-3753,-2717,1745147773087071105
433504,17,-17,-24,6825,-3745,-2743,1745147773145732809
433888,6,-8,-18,6715,-3656,-2778,1745147773145732809
434080,2,-4,-14,6694,-3656,-2756,1745147773145732809
434272,2,-2,-8,6702,-3667,-2726,1745147773145732809
434464,7,0,-3,6706,-3674,-2716,1745147773145732809
434656,12,3,1,6738,-3646,-2698,1745147773145732809
434848,8,5,2,6782,-3629,-2741,1745147773145732809
435040,-1,2,1,6806,-3650,-2738,1745147773145732809
435232,-3,-1,1,6852,-3683,-2706,1745147773145732809
435424,3,-2,1,6852,-3674,-2687,1745147773145732809
435616,3,1,-1,6855,-3648,-2713,1745147773145732809
435808,-3,3,-4,6870,-3609,-2746,1745147773145732809
436000,-6,4,-5,6891,-3596,-2746,1745147773204014932
436192,-5,5,-4,6882,-3591,-2734,1745147773204014932
436384,-2,5,-2,6908,-3579,-2732,1745147773204014932
436576,1,6,-2,6929,-3549,-2725,1745147773204014932
436768,1,5,-3,6936,-3524,-2706,1745147773204014932
436960,5,4,-3,6940,-3522,-2721,1745147773204014932
437152,11,1,-1,6958,-3521,-2716,1745147773204014932
437344,16,0,-2,6955,-3515,-2711,1745147773204014932
437536,19,-1,-4,6985,-3552,-2707,1745147773204014932
437728,25,-3,-7,6980,-3565,-2697,1745147773204014932
437920,26,-4,-10,6977,-3587,-2689,1745147773204014932
438112,23,-4,-13,6977,-3585,-2707,1745147773204014932
438304,17,-4,-15,6976,-3604,-2682,1745147773262707573
438496,13,-4,-18,6970,-3632,-2664,1745147773262707573
438688,9,-4,-19,6993,-3646,-2651,1745147773262707573
438880,5,-4,-21,6984,-3646,-2642,1745147773262707573
439072,0,-4,-22,6978,-3673,-2670,1745147773262707573
439264,-4,-4,-20,6977,-3658,-2673,1745147773262707573
439456,-7,-1,-19,6960,-3632,-2697,1745147773262707573
439648,-9,2,-17,6938,-3599,-2713,1745147773262707573
439840,-11,5,-15,6905,-3555,-2727,1745147773262707573
440032,-11,7,-13,6872,-3537,-2719,1745147773262707573
440224,-9,7,-10,6883,-3551,-2717,1745147773262707573
440416,-4,3,-9,6892,-3620,-2714,1745147773262707573
440608,3,1,-9,6892,-3659,-2734,1745147773320739647
440800,6,-1,-10,6868,-3675,-2734,1745147773320739647
440992,3,-1,-14,6839,-3683,-2721,1745147773320739647
441184,1,-1,-16,6797,-3707,-2733,1745147773320739647
441376,4,2,-13,6783,-3693,-2752,1745147773320739647
441568,3,7,-10,6752,-3632,-2771,1745147773320739647
441760,-2,13,-8,6746,-3607,-2780,1745147773320739647
441952,-7,17,-4,6765,-3583,-2778,1745147773320739647
442144,-9,18,1,6803,-3605,-2753,1745147773320739647
442336,-9,16,6,6835,-3629,-2758,1745147773320739647
442528,-5,15,10,6856,-3638,-2751,1745147773320739647
442720,-4,13,9,6854,-3641,-2726,1745147773320739647
442912,-6,11,7,6871,-3642,-2707,1745147773384636564
443104,-4,8,7,6852,-3654,-2688,1745147773384636564
443296,0,6,9,6863,-3624,-2717,1745147773384636564
443488,2,5,10,6870,-3600,-2746,1745147773384636564
443680,0,6,9,6862,-3582,-2724,1745147773384636564
443872,-2,5,10,6868,-3592,-2717,1745147773384636564
444064,-1,5,14,6888,-3614,-2722,1745147773384636564
444256,3,5,18,6890,-3604,-2726,1745147773384636564
444448,4,6,19,6885,-3581,-2744,1745147773384636564
444640,1,7,18,6892,-3588,-2743,1745147773384636564
444832,-3,7,17,6892,-3619,-2731,1745147773384636564
445024,-2,9,18,6892,-3618,-2702,1745147773384636564
445216,0,13,19,6871,-3607,-2718,1745147773436310675
445408,1,17,18,6894,-3544,-2748,1745147773436310675
445600,-1,21,14,6911,-3486,-2781,1745147773436310675
445792,-2,23,9,6928,-3425,-2778,1745147773436310675
445984,0,23,7,6951,-3397,-2749,1745147773436310675
446176,4,20,4,6984,-3385,-2729,1745147773436310675
446368,8,16,-1,7006,-3412,-2714,1745147773436310675
446560,9,7,-8,7007,-3463,-2710,1745147773436310675
446752,10,-3,-15,6991,-3525,-2708,1745147773436310675
446944,11,-11,-22,6969,-3570,-2715,1745147773436310675
447136,10,-14,-29,6937,-3596,-2715,1745147773436310675
447328,5,-16,-35,6916,-3635,-2702,1745147773436310675
447520,0,-16,-37,6884,-3661,-2714,1745147773496626634
447712,-5,-14,-35,6875,-3664,-2739,1745147773496626634
447904,-9,-11,-33,6863,-3657,-2740,1745147773496626634
448096,-13,-6,-29,6859,-3640,-2760,1745147773496626634
448288,-16,-4,-23,6866,-3618,-2766,1745147773496626634
448480,-14,-3,-16,6870,-3615,-2758,1745147773496626634
448672,-11,-1,-12,6877,-3585,-2753,1745147773496626634
448864,-12,-1,-9,6858,-3569,-2729,1745147773496626634
449056,-13,-4,-6,6860,-3577,-2714,1745147773496626634
449248,-12,-6,-3,6848,-3615,-2718,1745147773496626634
449440,-8,-6,-1,6845,-3621,-2715,1745147773496626634
449632,-7,-4,-2,6824,-3591,-2742,1745147773496626634
450016,-14,0,-9,6832,-3569,-2732,1745147773564988510
450208,-12,3,-10,6836,-3564,-2740,1745147773564988510
450400,-11,6,-10,6850,-3557,-2718,1745147773564988510
450592,-10,6,-11,6881,-3558,-2720,1745147773564988510
450784,-7,5,-14,6902,-3587,-2722,1745147773564988510
450976,-1,5,-14,6891,-3602,-2732,1745147773564988510
451168,2,5,-16,6891,-3598,-2743,1745147773564988510
451360,5,4,-17,6904,-3590,-2741,1745147773564988510
451552,8,3,-17,6897,-3612,-2738,1745147773564988510
451744,12,1,-13,6899,-3629,-2701,1745147773564988510
451936,15,1,-10,6897,-3629,-2709,1745147773564988510
452128,16,3,-7,6891,-3621,-2762,1745147773564988510
452320,13,5,-5,6890,-3587,-2797,1745147773616641892
452512,8,7,-4,6898,-3572,-2796,1745147773616641892
452704,5,7,-3,6899,-3565,-2754,1745147773616641892
452896,6,4,-1,6912,-3610,-2715,1745147773616641892
453088,10,0,1,6918,-3661,-2714,1745147773616641892
453280,14,-3,-1,6933,-3677,-2754,1745147773616641892
453472,12,-2,-5,6918,-3660,-2788,1745147773616641892
453664,3,1,-10,6891,-3620,-2796,1745147773616641892
453856,-5,5,-11,6877,-3576,-2786,1745147773616641892
454048,-8,7,-7,6890,-3546,-2765,1745147773616641892
454240,-5,8,-3,6898,-3532,-2773,1745147773616641892
454432,1,8,-3,6919,-3514,-2792,1745147773616641892
454624,4,7,-6,6924,-3505,-2800,1745147773676937487
454816,5,5,-10,6962,-3522,-2808,1745147773676937487
455008,9,-2,-13,6971,-3558,-2753,1745147773676937487
455200,14,-10,-16,6968,-3592,-2718,1745147773676937487
455392,20,-16,-18,6938,-3622,-2733,1745147773676937487
455584,23,-21,-20,6917,-3646,-2725,1745147773676937487
455776,17,-21,-25,6898,-3670,-2717,1745147773676937487
455968,10,-23,-27,6880,-3695,-2720,1745147773676937487
456160,6,-22,-23,6867,-3738,-2712,1745147773676937487
456352,4,-18,-18,6888,-3753,-2730,1745147773676937487
456544,1,-12,-14,6882,-3714,-2770,1745147773676937487
456736,-7,-5,-11,6861,-3670,-2775,1745147773676937487
456736,-7,-5,-11,6861,-3670,-2775,1745147773740523417
457120,-21,6,-3,6861,-3622,-2764,1745147773740523417
457312,-21,6,2,6870,-3629,-2745,1745147773740523417
457504,-17,5,5,6884,-3613,-2736,1745147773740523417
457696,-13,4,5,6887,-3601,-2735,1745147773740523417
457888,-13,2,3,6900,-3590,-2704,1745147773740523417
458080,-15,1,1,6889,-3594,-2706,1745147773740523417
458272,-14,-1,-1,6889,-3581,-2716,1745147773740523417
458464,-13,-3,-2,6890,-3561,-2718,1745147773740523417
458656,-10,-5,-4,6903,-3584,-2728,1745147773740523417
458848,-5,-9,-5,6920,-3581,-2728,1745147773740523417
459040,-2,-10,-7,6917,-3593,-2744,1745147773740523417
459232,-3,-11,-11,6926,-3585,-2733,1745147773798919706
459424,-6,-13,-11,6907,-3609,-2714,1745147773798919706
459616,-6,-13,-9,6887,-3606,-2729,1745147773798919706
459808,-7,-13,-4,6870,-3603,-2741,1745147773798919706
460000,-7,-11,-2,6873,-3578,-2745,1745147773798919706
460192,-12,-9,-3,6876,-3562,-2734,1745147773798919706
460384,-16,-8,-3,6879,-3582,-2718,1745147773798919706
460576,-16,-9,-2,6916,-3566,-2701,1745147773798919706
460768,-15,-8,-2,6902,-3581,-2722,1745147773798919706
460960,-15,-6,-5,6927,-3558,-2732,1745147773798919706
461152,-15,-2,-9,6908,-3517,-2737,1745147773798919706
461344,-14,1,-12,6898,-3492,-2745,1745147773798919706
461536,-11,3,-14,6891,-3477,-2745,1745147773850479444
461728,-6,1,-17,6882,-3486,-2701,1745147773850479444
461920,-2,-4,-18,6901,-3559,-2661,1745147773850479444
462112,6,-9,-18,6913,-3637,-2665,1745147773850479444
462304,12,-11,-16,6912,-3681,-2673,1745147773850479444
462496,11,-9,-14,6899,-3677,-2693,1745147773850479444
462688,4,-4,-12,6870,-3673,-2740,1745147773850479444
462880,-3,3,-6,6847,-3631,-2775,1745147773850479444
463072,-7,10,0,6826,-3592,-2773,1745147773850479444
463264,-9,15,5,6842,-3572,-2740,1745147773850479444
463456,-9,17,10,6862,-3579,-2723,1745147773850479444
463648,-7,17,13,6899,-3561,-2729,1745147773850479444
463840,-6,16,12,6909,-3554,-2761,1745147773915755983
464032,-8,16,9,6927,-3522,-2790,1745147773915755983
464224,-8,12,4,6920,-3498,-2775,1745147773915755983
464416,-5,6,1,6905,-3511,-2743,1745147773915755983
464608,2,0,-1,6916,-3537,-2688,1745147773915755983
464800,8,-9,-6,6913,-3571,-2678,1745147773915755983
464992,11,-17,-11,6921,-3647,-2684,1745147773915755983
465184,11,-19,-11,6880,-3680,-2716,1745147773915755983
465376,9,-18,-13,6871,-3652,-2764,1745147773915755983
465568,0,-13,-13,6849,-3606,-2796,1745147773915755983
465760,-10,-8,-11,6849,-3570,-2782,1745147773915755983
465952,-15,-3,-5,6848,-3566,-2795,1745147773915755983
466144,-15,2,1,6858,-3544,-2806,1745147773974228417
466336,-15,7,5,6877,-3521,-2811,1745147773974228417
466528,-15,7,5,6907,-3514,-2794,1745147773974228417
466720,-13,5,0,6932,-3490,-2775,1745147773974228417
466912,-10,1,-4,6921,-3465,-2770,1745147773974228417
467104,-5,-3,-9,6917,-3438,-2768,1745147773974228417
467296,-1,-6,-15,6901,-3440,-2737,1745147773974228417
467488,-1,-10,-23,6877,-3474,-2678,1745147773974228417
467680,4,-15,-26,6890,-3548,-2670,1745147773974228417
467872,12,-18,-27,6887,-3594,-2718,1745147773974228417
468064,13,-17,-29,6899,-3601,-2736,1745147773974228417
468256,8,-13,-31,6897,-3592,-2760,1745147773974228417
468448,3,-9,-30,6885,-3591,-2753,1745147774032451011
468640,1,-5,-25,6882,-3565,-2778,1745147774032451011
468832,4,1,-19,6874,-3525,-2773,1745147774032451011
469024,8,6,-12,6882,-3503,-2827,1745147774032451011
469216,8,4,-9,6905,-3539,-2828,1745147774032451011
469408,13,2,-7,6930,-3567,-2796,1745147774032451011
469600,20,-2,-9,6937,-3567,-2746,1745147774032451011
469792,20,-5,-15,6917,-3574,-2703,1745147774032451011
469984,15,-8,-20,6876,-3608,-2664,1745147774032451011
470176,11,-13,-22,6876,-3640,-2626,1745147774032451011
470368,9,-16,-21,6854,-3706,-2639,1745147774032451011
470560,9,-15,-18,6852,-3731,-2711,1745147774032451011
470752,6,-8,-15,6816,-3675,-2767,1745147774090537407
470944,-3,2,-14,6818,-3601,-2799,1745147774090537407
471136,-9,10,-10,6831,-3573,-2813,1745147774090537407
471328,-8,16,-3,6846,-3534,-2810,1745147774090537407
471520,-1,20,3,6870,-3540,-2786,1745147774090537407
471712,5,21,7,6904,-3532,-2756,1745147774090537407
471904,7,18,8,6937,-3573,-2741,1745147774090537407
472096,10,14,7,6952,-3574,-2746,1745147774090537407
472288,9,10,6,6939,-3594,-2721,1745147774090537407
472480,6,6,3,6934,-3581,-2701,1745147774090537407
472672,3,3,0,6901,-3589,-2713,1745147774090537407
472864,3,3,-4,6860,-3568,-2735,1745147774090537407
473056,0,6,-8,6837,-3540,-2784,1745147774149466452
473248,-5,10,-11,6847,-3508,-2794,1745147774149466452
473440,-9,12,-13,6858,-3508,-2776,1745147774149466452
473632,-12,11,-13,6902,-3546,-2739,1745147774149466452
473824,-9,6,-12,6924,-3583,-2721,1745147774149466452
474016,-7,0,-13,6948,-3619,-2719,1745147774149466452
474208,-7,-5,-13,6955,-3638,-2730,1745147774149466452
474400,-8,-8,-14,6926,-3623,-2746,1745147774149466452
474592,-13,-8,-12,6889,-3594,-2745,1745147774149466452
474784,-17,-5,-10,6856,-3551,-2751,1745147774149466452
474976,-17,-3,-6,6847,-3531,-2759,1745147774149466452
475168,-15,-2,-4,6851,-3523,-2749,1745147774149466452
475360,-11,0,-3,6869,-3525,-2748,1745147774207987949
475552,-8,2,-5,6882,-3497,-2754,1745147774207987949
475744,-6,4,-5,6894,-3501,-2776,1745147774207987949
475936,-7,5,-6,6892,-3506,-2775,1745147774207987949
476128,-5,4,-7,6885,-3525,-2754,1745147774207987949
476320,2,2,-8,6872,-3536,-2758,1745147774207987949
476512,4,2,-12,6880,-3534,-2730,1745147774207987949
476704,3,1,-16,6889,-3562,-2735,1745147774207987949
476896,3,-1,-18,6878,-3597,-2740,1745147774207987949
477088,5,-2,-18,6905,-3612,-2753,1745147774207987949
477280,5,-1,-17,6912,-3588,-2748,1745147774207987949
477472,1,0,-17,6897,-3587,-2740,1745147774207987949
477664,-3,-2,-16,6903,-3612,-2743,1745147774266413092
477856,-3,-3,-11,6902,-3644,-2739,1745147774266413092
478048,-2,-3,-6,6901,-3660,-2732,1745147774266413092
478240,-3,0,-2,6888,-3654,-2739,1745147774266413092
478432,-10,3,0,6876,-3648,-2748,1745147774266413092
478624,-17,6,1,6866,-3629,-2740,1745147774266413092
478816,-21,6,3,6883,-3633,-2724,1745147774266413092
479008,-22,5,6,6893,-3657,-2730,1745147774266413092
479200,-17,5,7,6905,-3647,-2763,1745147774266413092
479392,-14,7,4,6899,-3595,-2780,1745147774266413092
479584,-12,9,0,6892,-3550,-2786,1745147774266413092
479776,-12,10,-2,6871,-3514,-2777,1745147774266413092
479968,-9,10,-1,6885,-3488,-2763,1745147774324510478
480160,-5,7,0,6886,-3498,-2765,1745147774324510478
480352,1,4,-1,6895,-3513,-2760,1745147774324510478
480544,4,1,-3,6927,-3562,-2747,1745147774324510478
480736,4,-3,-6,6926,-3613,-2726,1745147774324510478
480928,5,-7,-7,6932,-3652,-2741,1745147774324510478
481120,3,-8,-11,6929,-3662,-2753,1745147774324510478
481312,-4,-6,-13,6914,-3624,-2755,1745147774324510478
481504,-11,-5,-15,6884,-3619,-2740,1745147774324510478
481696,-12,-4,-13,6894,-3588,-2748,1745147774324510478
481888,-9,-3,-10,6878,-3577,-2779,1745147774324510478
482080,-7,-1,-7,6887,-3553,-2794,1745147774324510478
482272,-7,2,-6,6892,-3543,-2803,1745147774383419836
482464,-4,1,-6,6891,-3517,-2793,1745147774383419836
482656,-1,0,-6,6904,-3543,-2728,1745147774383419836
482848,2,-5,-5,6915,-3608,-2679,1745147774383419836
483040,5,-7,-5,6907,-3646,-2684,1745147774383419836
483232,4,-4,-5,6893,-3623,-2730,1745147774383419836
483424,-4,-1,-8,6874,-3580,-2764,1745147774383419836
483616,-14,2,-11,6855,-3523,-2765,1745147774383419836
483808,-16,4,-12,6850,-3503,-2738,1745147774383419836
484000,-12,4,-12,6876,-3493,-2716,1745147774383419836
484192,-6,4,-13,6900,-3479,-2725,1745147774383419836
484384,-4,2,-15,6923,-3487,-2750,1745147774383419836
484576,-5,1,-15,6932,-3491,-2765,1745147774441401650
484768,-5,-1,-15,6957,-3483,-2749,1745147774441401650
484960,-1,-3,-14,6951,-3486,-2740,1745147774441401650
485152,1,-5,-15,6916,-3477,-2744,1745147774441401650
485344,3,-7,-19,6912,-3500,-2727,1745147774441401650
485536,5,-14,-21,6929,-3580,-2627,1745147774441401650
485728,9,-19,-21,6929,-3684,-2626,1745147774441401650
485920,14,-21,-18,6917,-3731,-2685,1745147774441401650
486112,8,-16,-16,6897,-3710,-2759,1745147774441401650
486304,-6,-8,-14,6881,-3665,-2795,1745147774441401650
486496,-17,-1,-10,6859,-3618,-2764,1745147774441401650
486688,-18,5,-2,6869,-3564,-2758,1745147774441401650
486880,-13,9,5,6862,-3551,-2759,1745147774500196529
487072,-9,11,9,6890,-3536,-2755,1745147774500196529
487264,-9,10,10,6900,-3555,-2736,1745147774500196529
487456,-10,6,11,6921,-3580,-2732,1745147774500196529
487648,-9,4,11,6901,-3569,-2762,1745147774500196529
487840,-7,5,10,6873,-3512,-2771,1745147774500196529
488032,-12,8,6,6833,-3472,-2788,1745147774500196529
488224,-14,11,3,6836,-3447,-2804,1745147774500196529
488416,-10,13,0,6833,-3433,-2807,1745147774500196529
488608,-5,14,-4,6849,-3412,-2802,1745147774500196529
488800,-4,13,-8,6909,-3437,-2776,1745147774500196529
488992,-5,6,-13,6957,-3511,-2725,1745147774500196529
489184,0,-2,-16,6989,-3580,-2707,1745147774559304114
489376,7,-10,-18,7011,-3608,-2720,1745147774559304114
489568,3,-15,-21,6985,-3619,-2727,1745147774559304114
489760,-7,-17,-21,6945,-3610,-2748,1745147774559304114
489952,-14,-15,-18,6897,-3586,-2807,1745147774559304114
490144,-16,-11,-13,6874,-3560,-2833,1745147774559304114
490336,-19,-6,-10,6873,-3520,-2811,1745147774559304114
490528,-21,-8,-9,6900,-3552,-2755,1745147774559304114
490720,-21,-10,-8,6932,-3622,-2743,1745147774559304114
490912,-17,-12,-4,6955,-3636,-2757,1745147774559304114
491104,-16,-11,-5,6927,-3604,-2799,1745147774559304114
491296,-25,-7,-6,6897,-3563,-2804,1745147774559304114
491488,-33,-5,-7,6876,-3555,-2797,1745147774617151294
491680,-32,-4,-3,6857,-3511,-2786,1745147774617151294
491872,-26,-1,0,6848,-3497,-2797,1745147774617151294
492064,-22,4,-1,6865,-3455,-2833,1745147774617151294
492256,-23,9,-6,6882,-3447,-2848,1745147774617151294
492448,-25,9,-10,6924,-3433,-2861,1745147774617151294
492640,-22,7,-13,6951,-3444,-2852,1745147774617151294
492832,-15,2,-15,6968,-3445,-2810,1745147774617151294
493024,-8,-1,-20,6956,-3460,-2823,1745147774617151294
493216,-4,-4,-24,6926,-3431,-2864,1745147774617151294
493408,-5,-6,-28,6914,-3416,-2869,1745147774617151294
493600,-8,-6,-31,6909,-3407,-2871,1745147774617151294
493792,-12,-9,-33,6908,-3403,-2866,1745147774675464043
493984,-15,-15,-35,6925,-3455,-2811,1745147774675464043
494176,-17,-20,-38,6937,-3455,-2824,1745147774675464043
494368,-19,-22,-44,6920,-3423,-2839,1745147774675464043
494560,-29,-22,-50,6892,-3382,-2863,1745147774675464043
494752,-42,-23,-57,6892,-3328,-2877,1745147774675464043
494944,-53,-24,-61,6887,-3267,-2862,1745147774675464043
495136,-59,-26,-65,6897,-3250,-2837,1745147774675464043
495328,-61,-29,-70,6899,-3213,-2804,1745147774675464043
495520,-64,-34,-78,6939,-3189,-2794,1745147774675464043
495712,-69,-40,-87,6964,-3174,-2803,1745147774675464043
495904,-73,-47,-96,6972,-3171,-2829,1745147774675464043
496096,-75,-52,-107,6965,-3140,-2859,1745147774733556846
496288,-78,-54,-118,6945,-3091,-2890,1745147774733556846
496480,-82,-57,-131,6912,-3012,-2885,1745147774733556846
496672,-87,-61,-143,6905,-2983,-2889,1745147774733556846
496864,-87,-65,-153,6916,-2970,-2901,1745147774733556846
497056,-86,-67,-163,6924,-2974,-2950,1745147774733556846
497248,-89,-68,-175,6930,-2929,-2984,1745147774733556846
497440,-97,-72,-190,6957,-2924,-2945,1745147774733556846
497632,-107,-81,-207,6974,-2939,-2934,1745147774733556846
497824,-112,-91,-221,6991,-2929,-2971,1745147774733556846
498016,-115,-97,-234,6986,-2888,-3015,1745147774733556846
498208,-124,-101,-249,6957,-2810,-3066,1745147774733556846
498400,-138,-107,-267,6978,-2760,-3106,1745147774789512949
498592,-148,-114,-283,7008,-2740,-3142,1745147774789512949
498784,-152,-120,-297,7010,-2694,-3196,1745147774789512949
498976,-153,-124,-314,7047,-2605,-3291,1745147774789512949
499168,-159,-128,-337,7059,-2496,-3393,1745147774789512949
499360,-168,-132,-362,7117,-2384,-3475,1745147774789512949
499552,-177,-137,-387,7125,-2264,-3585,1745147774789512949
499744,-186,-143,-413,7150,-2143,-3674,1745147774789512949
499936,-195,-150,-444,7169,-1996,-3809,1745147774789512949
500128,-207,-155,-483,7208,-1847,-3949,1745147774789512949
500320,-222,-163,-528,7243,-1714,-4040,1745147774789512949
500512,-236,-170,-579,7298,-1566,-4132,1745147774789512949
500704,-249,-181,-635,7372,-1408,-4207,1745147774850676296
500896,-258,-195,-697,7447,-1239,-4317,1745147774850676296
501088,-264,-213,-766,7568,-1066,-4433,1745147774850676296
501280,-271,-238,-844,7695,-901,-4563,1745147774850676296
501472,-279,-270,-927,7823,-770,-4708,1745147774850676296
501664,-291,-308,-1014,7961,-682,-4802,1745147774850676296
501856,-303,-349,-1109,8122,-604,-4921,1745147774850676296
502048,-318,-392,-1207,8276,-544,-5057,1745147774850676296
502240,-339,-438,-1309,8444,-469,-5212,1745147774850676296
502432,-365,-488,-1416,8633,-398,-5370,1745147774850676296
502624,-391,-543,-1531,8834,-279,-5489,1745147774850676296
502816,-422,-600,-1654,9072,-138,-5674,1745147774850676296
503008,-454,-668,-1786,9333,23,-5891,1745147774911398138
503200,-485,-743,-1932,9620,224,-6073,1745147774911398138
503392,-515,-824,-2091,9890,501,-6228,1745147774911398138
503584,-549,-908,-2260,10168,793,-6307,1745147774911398138
503776,-583,-998,-2433,10476,1097,-6323,1745147774911398138
503968,-614,-1101,-2605,10822,1372,-6353,1745147774911398138
504160,-634,-1225,-2778,11201,1641,-6376,1745147774911398138
504352,-638,-1363,-2952,11555,1911,-6363,1745147774911398138
504544,-632,-1514,-3129,11895,2237,-6432,1745147774911398138
504736,-619,-1667,-3303,12198,2659,-6552,1745147774911398138
504928,-596,-1819,-3467,12502,3103,-6714,1745147774911398138
505120,-565,-1982,-3635,12857,3537,-6960,1745147774911398138
505312,-520,-2157,-3815,13250,4197,-7149,1745147774969297713
505504,-466,-2334,-3969,13643,4610,-7292,1745147774969297713
505696,-390,-2517,-4130,14001,5047,-7286,1745147774969297713
505888,-300,-2712,-4275,14337,5321,-7183,1745147774969297713
506080,-202,-2918,-4405,14479,5499,-7114,1745147774969297713
506272,-95,-3126,-4531,14500,5814,-7162,1745147774969297713
506464,19,-3318,-4641,14332,5968,-7179,1745147774969297713
506656,111,-3492,-4789,14010,6114,-7235,1745147774969297713
506848,168,-3649,-4933,13392,6356,-7121,1745147774969297713
507040,205,-3797,-4987,12708,6640,-7117,1745147774969297713
507232,239,-3900,-4917,12515,6177,-7785,1745147774969297713
507424,254,-3836,-4927,11841,5975,-7580,1745147774969297713
507616,273,-3789,-4970,11452,5830,-7294,1745147775024099504
507808,294,-3794,-5030,11184,5712,-7047,1745147775024099504
508000,324,-3803,-5102,11049,5632,-6793,1745147775024099504
508192,389,-3825,-5173,10877,5695,-6829,1745147775024099504
508384,479,-3845,-5239,10553,5930,-6877,1745147775024099504
508576,556,-3870,-5293,10197,6011,-6795,1745147775024099504
508768,610,-3901,-5321,9801,5846,-6876,1745147775024099504
508960,666,-3910,-5323,9225,5521,-6828,1745147775024099504
509152,729,-3897,-5294,8529,5059,-6724,1745147775024099504
509344,782,-3868,-5238,7779,4552,-6611,1745147775024099504
509536,811,-3807,-5168,6959,4023,-6500,1745147775024099504
509728,819,-3708,-5080,6203,3458,-6372,1745147775024099504
509920,810,-3586,-4967,5508,2893,-6213,1745147775084615149
510112,787,-3449,-4832,4951,2328,-5974,1745147775084615149
510304,754,-3312,-4683,4544,1812,-5781,1745147775084615149
510496,715,-3169,-4528,4278,1347,-5532,1745147775084615149
510688,666,-2999,-4386,3627,875,-5402,1745147775084615149
510880,647,-2829,-4258,3737,452,-5066,1745147775084615149
511072,614,-2725,-4210,3902,-55,-4863,1745147775084615149
511264,561,-2591,-4239,3734,-243,-4949,1745147775084615149
511456,530,-2414,-4207,3122,-68,-4757,1745147775084615149
511648,583,-2311,-4049,2917,328,-4424,1745147775084615149
511840,655,-2206,-3865,2824,502,-4300,1745147775084615149
512032,736,-2079,-3753,2753,520,-4372,1745147775084615149
512224,841,-1916,-3685,2780,409,-4600,1745147775142769566
512416,952,-1801,-3623,2177,354,-3360,1745147775142769566
512608,1027,-1824,-3547,2326,130,-3850,1745147775142769566
512800,1113,-1759,-3443,2442,-4,-3701,1745147775142769566
512992,1181,-1678,-3321,2340,-115,-3460,1745147775142769566
513184,1255,-1605,-3197,2215,-333,-3357,1745147775142769566
513376,1323,-1520,-3080,2050,-560,-3291,1745147775142769566
513568,1380,-1448,-2965,1882,-746,-3223,1745147775142769566
513760,1423,-1348,-2830,1655,-957,-3127,1745147775142769566
513952,1447,-1261,-2691,1471,-1120,-3118,1745147775142769566
514144,1459,-1157,-2553,1344,-1584,-3058,1745147775142769566
514336,1480,-1077,-2454,1259,-1685,-3113,1745147775142769566
514528,1458,-978,-2342,1064,-1763,-3245,1745147775201561529
514720,1390,-858,-2200,844,-1741,-3391,1745147775201561529
514912,1309,-737,-2042,656,-1984,-3429,1745147775201561529
515104,1259,-634,-1912,501,-1991,-3443,1745147775201561529
515296,1210,-523,-1796,347,-1927,-3536,1745147775201561529
515488,1174,-406,-1689,208,-1796,-3763,1745147775201561529
515680,1139,-266,-1593,-1,-1564,-3954,1745147775201561529
515872,1094,-113,-1498,-176,-1274,-4047,1745147775201561529
516064,1043,41,-1388,-173,-1056,-4102,1745147775201561529
516256,1006,183,-1266,-91,-891,-4246,1745147775201561529
516448,986,329,-1140,13,-742,-4429,1745147775201561529
516640,976,470,-1021,165,-598,-4531,1745147775201561529
516832,969,602,-914,375,-496,-4688,1745147775259695893
517024,966,705,-810,559,-462,-4797,1745147775259695893
517216,968,783,-714,748,-496,-4997,1745147775259695893
517408,970,840,-637,924,-591,-5160,1745147775259695893
517600,965,893,-581,1032,-644,-5305,1745147775259695893
517792,956,944,-538,1046,-640,-5350,1745147775259695893
517984,943,989,-501,1081,-617,-5358,1745147775259695893
518176,924,1030,-478,1029,-502,-5432,1745147775259695893
518368,902,1069,-461,1014,-390,-5427,1745147775259695893
518560,879,1109,-439,1051,-234,-5395,1745147775259695893
518752,846,1132,-404,1140,-132,-5378,1745147775259695893
518944,813,1141,-366,1272,-49,-5440,1745147775259695893
519136,782,1142,-325,1405,45,-5629,1745147775318359733
519328,766,1137,-277,1529,175,-5838,1745147775318359733
519520,782,1136,-220,1707,244,-6076,1745147775318359733
519712,788,1121,-171,1873,201,-6269,1745147775318359733
519904,764,1102,-141,1940,72,-6479,1745147775318359733
520096,731,1088,-127,1912,-85,-6750,1745147775318359733
520288,703,1079,-115,1834,-117,-7026,1745147775318359733
520480,675,1087,-93,1761,-125,-7341,1745147775318359733
520672,634,1107,-62,1705,-81,-7571,1745147775318359733
520864,570,1127,-30,1748,-27,-7697,1745147775318359733
521056,496,1137,3,1880,32,-7812,1745147775318359733
521248,428,1134,31,2077,149,-7815,1745147775318359733
521440,372,1111,46,2293,268,-7749,1745147775378411007
521632,327,1051,45,2573,425,-7774,1745147775378411007
521824,296,985,31,2888,515,-7958,1745147775378411007
522016,273,893,7,3203,572,-8349,1745147775378411007
522208,249,752,-27,3322,687,-8578,1745147775378411007
522400,227,622,-66,3200,900,-8653,1745147775378411007
522592,205,555,-78,3026,1023,-8803,1745147775378411007
522784,192,557,-49,2891,909,-9251,1745147775378411007
522976,183,492,-11,2848,836,-9361,1745147775378411007
523168,151,413,7,2630,832,-9240,1745147775378411007
523360,97,410,12,2224,743,-8753,1745147775378411007
523552,75,410,18,2012,530,-8754,1745147775378411007
523744,72,360,31,2042,439,-8927,1745147775433191184
523936,45,336,46,1890,486,-8562,1745147775433191184
524128,26,372,66,1627,572,-8232,1745147775433191184
524320,54,410,96,1485,653,-8017,1745147775433191184
524512,105,410,115,1518,692,-7964,1745147775433191184
524704,150,389,112,1635,738,-7888,1745147775433191184
524896,190,375,105,1741,709,-7757,1745147775433191184
525088,247,368,113,1828,666,-7665,1745147775433191184
525280,305,356,128,1897,625,-7642,1745147775433191184
525472,341,342,144,1961,506,-7648,1745147775433191184
525664,353,327,156,1941,291,-7614,1745147775433191184
525856,352,319,167,1848,66,-7560,1745147775433191184
526048,341,320,182,1700,-105,-7521,1745147775493640058
526240,306,328,197,1569,-237,-7519,1745147775493640058
526432,250,349,211,1424,-347,-7544,1745147775493640058
526624,196,381,224,1373,-433,-7512,1745147775493640058
526816,153,412,240,1401,-487,-7466,1745147775493640058
527008,122,435,256,1485,-481,-7394,1745147775493640058
527200,100,426,275,1518,-474,-7155,1745147775493640058
527392,97,384,289,1722,-398,-7423,1745147775493640058
527584,102,381,302,1765,-365,-7257,1745147775493640058
527776,119,365,314,1955,-415,-7169,1745147775493640058
527968,141,318,329,2281,-633,-7233,1745147775493640058
528160,131,237,351,2611,-1045,-7356,1745147775493640058
528352,70,144,374,2859,-1552,-7614,1745147775551593539
528544,-28,70,398,2893,-1980,-7800,1745147775551593539
528736,-134,37,428,2685,-2145,-7852,1745147775551593539
528928,-213,41,458,2357,-2047,-7820,1745147775551593539
529120,-254,69,478,2083,-1769,-7839,1745147775551593539
529312,-264,105,490,1981,-1456,-7911,1745147775551593539
529504,-261,140,494,2017,-1147,-8019,1745147775551593539
529696,-256,171,490,2093,-786,-8126,1745147775551593539
529888,-250,202,481,2094,-334,-8200,1745147775551593539
530080,-240,226,470,2052,161,-8270,1745147775551593539
530272,-229,236,459,1948,678,-8357,1745147775551593539
530464,-220,231,449,1837,1092,-8424,1745147775551593539
530656,-210,213,438,1785,1355,-8537,1745147775610417846
530848,-192,190,425,1698,1509,-8660,1745147775610417846
531040,-168,169,410,1634,1534,-8760,1745147775610417846
531232,-139,150,393,1588,1456,-8810,1745147775610417846
531424,-111,134,380,1533,1345,-8824,1745147775610417846
531616,-86,125,374,1484,1172,-8773,1745147775610417846
531808,-64,121,374,1441,979,-8727,1745147775610417846
532000,-48,123,378,1416,757,-8684,1745147775610417846
532192,-41,126,385,1403,557,-8642,1745147775610417846
532384,-41,135,392,1381,387,-8558,1745147775610417846
532576,-47,142,394,1390,257,-8441,1745147775610417846
532768,-56,145,389,1383,173,-8331,1745147775610417846
532960,-68,147,381,1358,96,-8211,1745147775668600439
533152,-79,151,379,1375,47,-8082,1745147775668600439
533344,-89,155,378,1362,69,-7984,1745147775668600439
533536,-102,156,378,1365,133,-7914,1745147775668600439
533728,-115,163,378,1371,232,-7891,1745147775668600439
533920,-125,166,382,1406,333,-7857,1745147775668600439
534112,-135,167,385,1447,417,-7827,1745147775668600439
534304,-142,165,385,1527,530,-7775,1745147775668600439
534496,-142,159,380,1550,648,-7748,1745147775668600439
534688,-129,155,374,1577,725,-7724,1745147775668600439
534880,-112,148,367,1606,767,-7723,1745147775668600439
535072,-96,139,362,1627,768,-7765,1745147775668600439
535264,-86,129,355,1620,736,-7845,1745147775727271987
535456,-84,124,350,1614,686,-7868,1745147775727271987
535648,-85,119,348,1636,620,-7948,1745147775727271987
535840,-90,119,353,1617,582,-8035,1745147775727271987
536032,-97,123,360,1585,577,-8111,1745147775727271987
536224,-105,130,365,1521,615,-8184,1745147775727271987
536416,-108,140,371,1502,670,-8211,1745147775727271987
536608,-106,149,376,1555,728,-8204,1745147775727271987
536800,-112,156,372,1654,719,-8089,1745147775727271987
536992,-113,158,368,1750,707,-8102,1745147775727271987
537184,-97,152,369,1769,746,-8063,1745147775727271987
537376,-79,150,366,1741,778,-7994,1745147775727271987
537568,-66,149,356,1729,707,-7942,1745147775784056520
537760,-57,147,348,1706,651,-7875,1745147775784056520
537952,-55,126,343,1643,572,-7776,1745147775784056520
538144,-57,117,337,1617,456,-7670,1745147775784056520
538336,-58,109,336,1612,328,-7594,1745147775784056520
538528,-62,103,337,1612,231,-7527,1745147775784056520
538720,-72,96,332,1595,194,-7507,1745147775784056520
538912,-80,93,327,1621,197,-7521,1745147775784056520
539104,-87,87,315,1633,264,-7559,1745147775784056520
539296,-93,82,296,1622,356,-7582,1745147775784056520
539488,-94,75,278,1627,486,-7606,1745147775784056520
539680,-93,61,261,1573,600,-7671,1745147775784056520
539872,-84,51,249,1546,666,-7720,1745147775844711435
540064,-67,42,240,1561,688,-7756,1745147775844711435
540256,-48,33,233,1585,652,-7827,1745147775844711435
540448,-33,28,228,1559,600,-7963,1745147775844711435
540640,-21,26,225,1567,532,-8115,1745147775844711435
540832,-18,25,222,1538,453,-8244,1745147775844711435
541024,-15,26,216,1541,414,-8383,1745147775844711435
541216,-10,28,211,1531,391,-8474,1745147775844711435
541408,-6,33,209,1556,342,-8498,1745147775844711435
541600,-5,33,201,1599,306,-8416,1745147775844711435
541792,-5,32,189,1613,269,-8336,1745147775844711435
541984,-6,35,182,1634,223,-8262,1745147775844711435
542176,-12,40,178,1656,217,-8200,1745147775903743916
542368,-24,49,176,1694,231,-8140,1745147775903743916
542560,-36,58,172,1758,279,-8077,1745147775903743916
542752,-47,63,162,1781,373,-8046,1745147775903743916
542944,-55,69,154,1782,481,-8026,1745147775903743916
543136,-57,76,148,1793,600,-8005,1745147775903743916
543328,-53,79,147,1816,655,-7991,1745147775903743916
543520,-45,77,146,1817,694,-7962,1745147775903743916
543712,-38,74,142,1790,681,-7963,1745147775903743916
543904,-31,71,136,1764,637,-7957,1745147775903743916
544096,-24,74,134,1735,588,-7972,1745147775903743916
544288,-17,80,136,1712,560,-7970,1745147775903743916
544480,-10,85,132,1690,538,-7996,1745147775962457703
544672,-7,91,124,1688,509,-8027,1745147775962457703
544864,-2,95,115,1710,491,-8043,1745147775962457703
545056,4,97,108,1739,475,-8073,1745147775962457703
545248,8,101,100,1777,447,-8075,1745147775962457703
545440,11,103,94,1811,416,-8063,1745147775962457703
545632,12,104,91,1813,402,-8043,1745147775962457703
545824,14,107,90,1822,417,-7998,1745147775962457703
546016,18,107,84,1828,435,-7961,1745147775962457703
546208,19,109,79,1870,442,-7905,1745147775962457703
546400,19,105,75,1876,443,-7875,1745147775962457703
546592,17,101,71,1864,439,-7852,1745147775962457703
546784,16,97,70,1858,439,-7818,1745147776021017585
546976,20,91,65,1856,464,-7799,1745147776021017585
547168,21,86,57,1846,463,-7794,1745147776021017585
547360,20,82,52,1864,465,-7793,1745147776021017585
547552,19,75,48,1877,468,-7804,1745147776021017585
547744,19,68,43,1881,481,-7826,1745147776021017585
547936,22,63,38,1867,482,-7836,1745147776021017585
548128,22,57,32,1883,480,-7869,1745147776021017585
548320,21,53,26,1891,463,-7905,1745147776021017585
548512,21,49,24,1880,467,-7917,1745147776021017585
548704,22,46,23,1887,470,-7927,1745147776021017585
548896,27,42,24,1879,471,-7956,1745147776021017585
549088,34,38,22,1879,453,-7956,1745147776079196480
549280,39,33,19,1870,419,-7944,1745147776079196480
549472,42,26,16,1889,367,-7903,1745147776079196480
549664,43,19,16,1894,338,-7855,1745147776079196480
549856,41,13,14,1919,319,-7822,1745147776079196480
550048,36,8,10,1928,325,-7810,1745147776079196480
550240,29,0,6,1915,357,-7811,1745147776079196480
550432,23,-8,4,1935,391,-7819,1745147776079196480
550624,21,-18,2,1947,448,-7828,1745147776079196480
550816,21,-28,-1,1955,486,-7832,1745147776079196480
551008,25,-37,-4,1967,509,-7814,1745147776079196480
551200,29,-46,-5,1949,516,-7797,1745147776079196480
551392,32,-56,-6,1939,492,-7789,1745147776137795320
551584,34,-64,-7,1922,480,-7797,1745147776137795320
551776,37,-70,-10,1907,457,-7820,1745147776137795320
551968,38,-77,-13,1893,435,-7854,1745147776137795320
552160,36,-83,-17,1866,415,-7883,1745147776137795320
552352,33,-86,-21,1871,381,-7915,1745147776137795320
552544,32,-90,-22,1893,382,-7935,1745147776137795320
552736,29,-93,-22,1893,367,-7977,1745147776137795320
552928,25,-94,-21,1915,375,-7985,1745147776137795320
553120,22,-98,-21,1936,370,-7998,1745147776137795320
553312,22,-104,-24,1913,341,-7982,1745147776137795320
553504,23,-108,-26,1886,325,-7975,1745147776137795320
553696,23,-110,-29,1844,328,-7935,1745147776197554774
553888,19,-115,-33,1814,320,-7891,1745147776197554774
554080,13,-120,-38,1840,339,-7871,1745147776197554774
554272,5,-120,-43,1853,348,-7889,1745147776197554774
554464,2,-120,-46,1861,391,-7891,1745147776197554774
554656,-1,-122,-47,1854,440,-7918,1745147776197554774
554848,-4,-124,-46,1838,472,-7954,1745147776197554774
555040,-5,-129,-43,1830,488,-7967,1745147776197554774
555232,-3,-133,-41,1781,490,-7984,1745147776197554774
555424,2,-133,-38,1748,455,-7966,1745147776197554774
555616,4,-131,-33,1729,434,-7992,1745147776197554774
555808,-1,-130,-31,1703,401,-8022,1745147776197554774
556000,-7,-128,-30,1721,384,-8009,1745147776253629314
556192,-11,-126,-29,1739,414,-7989,1745147776253629314
556384,-15,-123,-30,1731,443,-7965,1745147776253629314
556576,-18,-121,-31,1675,445,-7952,1745147776253629314
556768,-19,-119,-33,1661,445,-7937,1745147776253629314
556960,-16,-116,-34,1648,432,-7937,1745147776253629314
557152,-13,-115,-36,1665,418,-7939,1745147776253629314
557344,-9,-115,-40,1686,396,-7937,1745147776253629314
557536,-7,-115,-44,1700,366,-7916,1745147776253629314
557728,-6,-116,-47,1698,345,-7939,1745147776253629314
557920,-14,-117,-51,1641,323,-7915,1745147776253629314
558112,-26,-118,-57,1579,304,-7871,1745147776253629314
558304,-36,-120,-62,1539,312,-7827,1745147776313686682
558496,-43,-119,-66,1498,303,-7788,1745147776313686682
558688,-47,-117,-73,1466,315,-7767,1745147776313686682
558880,-46,-116,-80,1435,335,-7750,1745147776313686682
559072,-41,-116,-84,1414,347,-7768,1745147776313686682
559264,-37,-113,-88,1408,349,-7793,1745147776313686682
559456,-34,-108,-92,1409,347,-7806,1745147776313686682
559648,-36,-97,-95,1430,326,-7739,1745147776313686682
559840,-50,-82,-97,1499,302,-7599,1745147776313686682
560032,-78,-84,-113,1555,295,-7682,1745147776313686682
560224,-76,-97,-118,1568,389,-7900,1745147776313686682
560416,-57,-88,-111,1516,535,-8024,1745147776313686682
560608,-44,-88,-126,1426,605,-8109,1745147776371749485
560800,-29,-87,-142,1417,519,-8167,1745147776371749485
560992,-64,-106,-225,2259,-1774,-8216,1745147776371749485
561184,-263,-150,-560,1585,-2932,-7522,1745147776371749485
561376,-599,-211,-609,1784,-3069,-8508,1745147776371749485
561568,-879,-69,-367,773,-3224,-8356,1745147776371749485
561760,-1013,120,-204,-258,-421,-8030,1745147776371749485
561952,-976,190,-47,-36,2382,-9079,1745147776371749485
562144,-1110,177,-71,1631,2195,-7567,1745147776371749485
562336,-766,161,-256,1967,1808,-8086,1745147776371749485
562528,-670,184,-315,1496,2382,-8139,1745147776371749485
562720,-532,183,-232,1317,3015,-7769,1745147776371749485
562912,-304,173,-148,1437,4405,-7674,1745147776428662142
563104,151,134,-57,1824,7961,-7772,1745147776428662142
563296,702,3,1,3486,6392,-8108,1745147776428662142
563488,806,-185,-139,3710,2362,-7606,1745147776428662142
563680,902,-260,-229,2548,297,-7598,1745147776428662142
563872,812,-230,-160,1342,-1161,-7584,1745147776428662142
564064,536,-166,-101,535,-3217,-7743,1745147776428662142
564256,262,-86,-180,455,-3633,-7793,1745147776428662142
564448,-45,9,-208,685,-3093,-8054,1745147776428662142
564640,-180,99,-174,1050,-1287,-8207,1745147776428662142
564832,-263,137,-144,1557,439,-8377,1745147776428662142
565024,-292,110,-170,1942,1134,-8397,1745147776428662142
565216,-264,70,-240,1986,1521,-8263,1745147776488857894
565408,-180,37,-275,1838,1691,-8178,1745147776488857894
565600,-138,13,-274,1735,1255,-8044,1745147776488857894
565792,-150,6,-247,1683,690,-7912,1745147776488857894
565984,-171,-6,-235,1652,167,-7766,1745147776488857894
566176,-168,-9,-219,1677,263,-7698,1745147776488857894
566368,-210,-10,-195,1612,518,-7663,1745147776488857894
566560,-250,-9,-177,1423,684,-7556,1745147776488857894
566752,-259,-21,-155,1216,895,-7448,1745147776488857894
566944,-220,-49,-139,1329,1048,-7693,1745147776488857894
567136,-178,-37,-164,1420,1285,-7646,1745147776488857894
567328,-111,-34,-186,1342,1181,-7275,1745147776488857894
569248,-6,-67,-192,1583,896,-7788,1745147778387860495
640096,49,77,2,191,1306,-7617,1745147778387860495
640288,-37,26,11,20,1277,-8126,1745147778387860495
640480,-37,27,16,70,1416,-7887,1745147778387860495
640672,-61,16,22,119,1367,-8036,1745147778387860495
640864,-64,21,21,127,1414,-8074,1745147778387860495
641056,-69,14,15,157,1399,-8102,1745147778387860495
641248,-83,6,11,166,1430,-8129,1745147778387860495
641440,-85,12,10,160,1479,-8183,1745147778387860495
641632,-93,7,10,152,1425,-8220,1745147778387860495
641824,-106,12,10,176,1427,-8218,1745147778387860495
642016,-113,13,11,222,1533,-8233,1745147778387860495
642208,-113,1,15,349,1657,-8299,1745147778445681529
642208,-113,1,15,349,1657,-8299,1745147778445681529
642400,-100,5,17,209,1813,-8439,1745147778445681529
642592,-66,23,16,40,1942,-8618,1745147778445681529
642784,-17,35,9,75,2111,-8698,1745147778445681529
642976,53,45,6,214,2455,-8735,1745147778445681529
643168,134,41,11,454,2788,-8686,1745147778445681529
643360,179,28,14,555,1999,-8873,1745147778445681529
643552,249,36,24,506,3827,-8279,1745147778445681529
643744,447,-5,53,558,3165,-7872,1745147778445681529
643936,534,31,24,393,2421,-8449,1745147778445681529
644128,701,-12,-61,362,1828,-8347,1745147778445681529
644320,585,135,-146,673,800,-9324,1745147778497818397
644512,182,492,-163,-1274,-1147,-5845,1745147778497818397
644704,115,238,-119,-403,-1425,-6819,1745147778497818397
644896,14,68,-7,-218,-1170,-7441,1745147778497818397
645088,-130,107,87,-69,-517,-7583,1745147778497818397
645280,-240,101,126,-102,231,-7519,1745147778497818397
645472,-281,123,102,-73,1040,-7723,1745147778497818397
645664,-262,104,56,-48,1684,-7776,1745147778497818397
645856,-200,97,12,57,2058,-7804,1745147778497818397
646048,-128,74,-18,158,2165,-7822,1745147778497818397
646240,-58,54,-29,245,2137,-7809,1745147778497818397
646432,-2,30,-24,273,1954,-7801,1745147778497818397
646624,36,11,-17,235,1706,-7795,1745147778558223366
646816,56,2,-15,135,1488,-7834,1745147778558223366
647008,62,0,-16,58,1307,-7876,1745147778558223366
647200,58,2,-13,27,1185,-7927,1745147778558223366
647392,43,6,-8,81,1103,-7981,1745147778558223366
647584,25,9,-3,141,1064,-8003,1745147778558223366
647776,5,10,1,208,1115,-8020,1745147778558223366
647968,-12,11,4,251,1193,-8043,1745147778558223366
648160,-25,8,5,296,1294,-8062,1745147778558223366
648352,-33,5,2,305,1386,-8068,1745147778558223366
648544,-37,4,-1,313,1465,-8080,1745147778558223366
648736,-37,1,-4,325,1515,-8089,1745147778558223366
648928,-35,-5,-5,320,1534,-8077,1745147778616170961
649120,-35,-12,-8,319,1507,-8058,1745147778616170961
649312,-37,-21,-11,311,1463,-8013,1745147778616170961
649504,-41,-29,-14,276,1405,-7980,1745147778616170961
649696,-45,-35,-14,246,1380,-7935,1745147778616170961
649888,-49,-40,-14,207,1351,-7919,1745147778616170961
650080,-54,-44,-12,157,1334,-7910,1745147778616170961
650272,-58,-50,-10,132,1317,-7895,1745147778616170961
650464,-58,-54,-10,107,1325,-7895,1745147778616170961
650656,-57,-57,-11,95,1321,-7888,1745147778616170961
650848,-54,-61,-14,51,1354,-7903,1745147778616170961
651040,-51,-63,-15,19,1359,-7893,1745147778616170961
651232,-43,-52,-11,29,1380,-7907,1745147778674937299
651424,-40,-56,-5,43,1392,-7891,1745147778674937299
651616,-36,-59,-2,75,1417,-7860,1745147778674937299
651808,-31,-64,-3,85,1450,-7832,1745147778674937299
652000,-25,-70,-7,63,1438,-7809,1745147778674937299
652192,-21,-74,-8,40,1442,-7784,1745147778674937299
652384,-15,-78,-7,36,1441,-7778,1745147778674937299
652576,-11,-83,-7,5,1422,-7780,1745147778674937299
652768,-6,-90,-7,-11,1406,-7790,1745147778674937299
652960,-2,-97,-10,-45,1400,-7797,1745147778674937299
