timestamp,gyr_x,gyr_y,gyr_z,acc_x,acc_y,acc_z,pkt_time_ns
3189856,-74,-83,22,4305,305,-6079,1745224221898796898
9071584,421,-8,-37,2837,177,-7566,1745224221898796898
9071776,42,-65,-34,3218,-396,-7714,1745224221898796898
9071968,-107,2,-32,3021,73,-7569,1745224221898796898
9072160,-90,-25,-46,2935,181,-7580,1745224221898796898
9072352,-140,5,-45,2906,227,-7596,1745224221898796898
9072544,-103,22,-53,2956,303,-7618,1745224221898796898
9072736,-98,9,-63,3054,248,-7634,1745224221898796898
9072928,-99,29,-66,3070,179,-7638,1745224221898796898
9073120,-62,17,-66,3086,262,-7575,1745224221898796898
9073312,-75,-9,-65,3116,318,-7459,1745224221898796898
9073504,-72,-8,-64,3023,445,-7518,1745224221898796898
9073696,-58,-22,-66,3012,528,-7702,1745224221909973983
9073888,-50,-20,-62,3021,436,-7870,1745224221909973983
9074080,-18,-7,-60,2933,293,-7952,1745224221909973983
9074272,13,-4,-64,2886,353,-8060,1745224221909973983
9074464,58,16,-68,2836,634,-8055,1745224221909973983
9074656,124,30,-65,2887,906,-8048,1745224221909973983
9074848,200,39,-55,3000,1005,-7990,1745224221909973983
9075040,273,42,-42,3170,656,-7809,1745224221909973983
9075232,246,36,-36,2975,-860,-7559,1745224221909973983
9075424,281,19,-12,3554,1923,-7192,1745224221909973983
9075616,326,56,-28,2613,338,-8126,1745224221909973983
9075808,330,113,-59,2365,418,-6432,1745224221909973983
9076000,294,59,-55,2942,-525,-7209,1745224221958672236
9076192,211,60,-75,3147,-857,-7230,1745224221958672236
9076384,163,26,-100,3462,-252,-7418,1745224221958672236
9076576,154,17,-118,3248,343,-7616,1745224221958672236
9076768,160,6,-134,3093,666,-7757,1745224221958672236
9076960,165,6,-133,3222,601,-7685,1745224221958672236
9077152,148,13,-116,3403,312,-7508,1745224221958672236
9077344,101,16,-87,3498,-163,-7331,1745224221958672236
9077536,42,27,-78,3637,-73,-6924,1745224221958672236
9077728,8,27,-96,3703,180,-6972,1745224221958672236
9077920,-51,9,-83,3493,-541,-7534,1745224221958672236
9078112,-131,19,-43,3134,-381,-6920,1745224221958672236
9078304,-113,11,-83,3276,374,-7368,1745224222018984654
9078496,-130,11,-79,3191,372,-7377,1745224222018984654
9078688,-126,15,-75,2933,586,-7582,1745224222018984654
9078880,-76,14,-93,2892,530,-7611,1745224222018984654
9079072,-51,5,-91,2849,308,-7684,1745224222018984654
9079264,-38,-2,-103,2798,230,-7763,1745224222018984654
9079456,-6,-15,-112,2939,86,-7769,1745224222018984654
9079648,8,-22,-111,3000,-207,-7630,1745224222018984654
9079840,-7,-28,-107,3093,-380,-7526,1745224222018984654
9080032,-28,-32,-108,3260,-321,-7278,1745224222018984654
9080224,-52,-40,-110,3282,-192,-7033,1745224222018984654
9080416,-70,-45,-109,3216,-80,-6953,1745224222018984654
9080608,-75,-51,-116,3201,236,-7012,1745224222075520388
9080800,-71,-59,-126,3191,579,-7206,1745224222075520388
9080992,-61,-70,-128,3146,751,-7480,1745224222075520388
9081184,-43,-83,-128,3093,701,-7680,1745224222075520388
9081376,-26,-95,-131,3008,515,-7811,1745224222075520388
9081568,-19,-104,-136,2950,325,-7852,1745224222075520388
9081760,-13,-111,-145,2958,206,-7787,1745224222075520388
9081952,-5,-114,-148,3037,172,-7721,1745224222075520388
9082144,-2,-116,-148,3061,235,-7642,1745224222075520388
9082336,-7,-109,-141,3029,326,-7504,1745224222075520388
9082528,-13,-95,-125,3041,337,-7413,1745224222075520388
9082720,-19,-78,-110,3247,218,-7433,1745224222075520388
9082912,-21,-65,-98,3459,-9,-7424,1745224222147373846
9083104,-31,-58,-91,3460,-154,-7290,1745224222147373846
9083296,-61,-56,-80,3262,-16,-7257,1745224222147373846
9083488,-98,-56,-69,3078,313,-7434,1745224222147373846
9083680,-112,-56,-58,2977,539,-7663,1745224222147373846
9083872,-100,-50,-52,2909,565,-7786,1745224222147373846
9084064,-81,-44,-53,2873,460,-7805,1745224222147373846
9084256,-66,-37,-55,2851,401,-7801,1745224222147373846
9084448,-59,-34,-58,2883,444,-7796,1745224222147373846
9084640,-48,-33,-59,2957,449,-7737,1745224222147373846
9084832,-39,-30,-60,2975,444,-7636,1745224222147373846
9085024,-34,-27,-58,2976,408,-7555,1745224222147373846
9085216,-32,-22,-50,3017,348,-7465,1745224222192168489
9085408,-31,-14,-38,3068,262,-7493,1745224222192168489
9085600,-33,-2,-27,3051,276,-7547,1745224222192168489
9085792,-38,12,-19,3012,375,-7647,1745224222192168489
9085984,-39,20,-10,2960,464,-7758,1745224222192168489
9086176,-36,24,-4,2873,500,-7795,1745224222192168489
9086368,-31,27,-1,2794,496,-7802,1745224222192168489
9086560,-24,28,-3,2792,530,-7778,1745224222192168489
9086752,-18,27,-7,2831,566,-7740,1745224222192168489
9086944,-9,24,-8,2869,509,-7651,1745224222192168489
9087136,0,20,-6,2946,411,-7547,1745224222192168489
9087328,5,14,-1,3094,269,-7404,1745224222192168489
9087520,2,5,11,3264,44,-7232,1745224222254334275
9087712,-8,0,21,3259,-9,-7137,1745224222254334275
9087904,-24,1,21,3114,192,-7211,1745224222254334275
9088096,-36,3,18,3048,445,-7353,1745224222254334275
9088288,-33,3,21,3092,566,-7519,1745224222254334275
9088480,-26,-1,28,3054,525,-7686,1745224222254334275
9088672,-27,-6,33,2917,333,-7812,1745224222254334275
9088864,-29,-5,32,2848,190,-7806,1745224222254334275
9089056,-28,-3,27,2892,147,-7711,1745224222254334275
9089248,-24,3,20,2902,223,-7595,1745224222254334275
9089440,-19,8,9,2872,282,-7595,1745224222254334275
9089632,-11,12,1,2848,277,-7672,1745224222254334275
9089824,-4,17,-7,2837,230,-7695,1745224222308905079
9090016,1,20,-13,2851,253,-7678,1745224222308905079
9090208,4,21,-17,2922,350,-7675,1745224222308905079
9090400,10,16,-18,3047,403,-7668,1745224222308905079
9090592,15,7,-15,3121,347,-7620,1745224222308905079
9090784,16,1,-7,3143,237,-7563,1745224222308905079
9090976,10,0,-1,3143,254,-7509,1745224222308905079
9091168,-3,6,4,3131,334,-7439,1745224222308905079
9091360,-13,14,10,3150,365,-7426,1745224222308905079
9091552,-16,21,18,3185,329,-7419,1745224222308905079
9091744,-21,27,24,3209,278,-7424,1745224222308905079
9091936,-32,38,30,3166,295,-7523,1745224222308905079
9092128,-43,49,35,3137,391,-7677,1745224222369489733
9092320,-49,58,36,3109,466,-7817,1745224222369489733
9092512,-56,68,37,3082,449,-7888,1745224222369489733
9092704,-71,80,40,3027,366,-7868,1745224222369489733
9092896,-93,92,41,3034,320,-7781,1745224222369489733
9093088,-108,102,42,3114,310,-7637,1745224222369489733
9093280,-111,109,42,3187,286,-7554,1745224222369489733
9093472,-113,115,42,3216,283,-7561,1745224222369489733
9093664,-114,114,38,3277,449,-7686,1745224222369489733
9093856,-115,99,27,3390,763,-8027,1745224222369489733
9094048,-121,91,22,2581,676,-7801,1745224222369489733
9094240,-145,108,31,2935,688,-7836,1745224222369489733
9094432,-106,109,9,3189,964,-7221,1745224222426696086
9094624,-84,120,0,3440,929,-7109,1745224222426696086
9094816,-72,123,9,3377,665,-7032,1745224222426696086
9095008,-77,114,21,3591,414,-7298,1745224222426696086
9095200,-69,88,25,3399,427,-7193,1745224222426696086
9095392,-107,138,44,2626,-240,-6795,1745224222426696086
9095584,-139,155,64,3593,-42,-6945,1745224222426696086
9095776,-102,170,37,4070,302,-6381,1745224222426696086
9095968,-104,165,46,4070,195,-6616,1745224222426696086
9096160,-120,154,62,3680,99,-7026,1745224222426696086
9096352,-140,144,59,3473,225,-7256,1745224222426696086
9096544,-146,148,49,3493,437,-7471,1745224222426696086
9096736,-145,140,37,3428,638,-7670,1745224222486551372
9096928,-134,125,32,3412,769,-7871,1745224222486551372
9097120,-128,102,26,3233,839,-8053,1745224222486551372
9097312,-137,81,19,3031,954,-8245,1745224222486551372
9097504,-144,60,8,2810,1164,-8295,1745224222486551372
9097696,-146,49,-6,2600,1327,-8297,1745224222486551372
9097888,-142,43,-18,2435,1469,-8274,1745224222486551372
9098080,-132,40,-31,2437,1656,-8254,1745224222486551372
9098272,-102,40,-40,2437,1746,-8056,1745224222486551372
9098464,-65,58,-37,2514,1656,-7657,1745224222486551372
9098656,-17,82,-29,2700,1480,-7429,1745224222486551372
9098848,25,106,-13,2986,1150,-7198,1745224222486551372
9099040,46,114,15,3282,587,-7077,1745224222554064974
9099232,52,116,49,3533,-23,-7163,1745224222554064974
9099424,43,109,67,3606,-438,-7284,1745224222554064974
9099616,18,107,68,3523,-612,-7341,1745224222554064974
9099808,-18,108,58,3443,-511,-7369,1745224222554064974
9100000,-54,108,45,3419,-185,-7281,1745224222554064974
9100192,-72,105,30,3485,163,-7179,1745224222554064974
9100384,-68,99,16,3514,340,-7099,1745224222554064974
9100576,-53,86,11,3482,333,-7093,1745224222554064974
9100768,-45,72,12,3391,206,-7117,1745224222554064974
9100960,-49,58,14,3314,52,-7162,1745224222554064974
9101152,-66,44,13,3289,-42,-7158,1745224222554064974
9101344,-90,24,5,3344,-106,-7055,1745224222601431469
9101536,-104,-1,-3,3425,-191,-6978,1745224222601431469
9101728,-109,-27,-20,3411,-186,-7050,1745224222601431469
9101920,-113,-45,-43,3259,-39,-7244,1745224222601431469
9102112,-119,-58,-70,3099,242,-7495,1745224222601431469
9102304,-117,-66,-92,2960,556,-7687,1745224222601431469
9102496,-99,-75,-105,2933,735,-7754,1745224222601431469
9102688,-72,-82,-110,2940,709,-7776,1745224222601431469
9102880,-44,-81,-111,2963,623,-7818,1745224222601431469
9103072,-19,-77,-116,2918,490,-7828,1745224222601431469
9103264,-12,-56,-116,2879,280,-7742,1745224222601431469
9103456,-7,-36,-113,3032,137,-7740,1745224222601431469
9103648,-13,-18,-115,3102,15,-7728,1745224222665085262
9103840,-34,2,-116,3160,-64,-7711,1745224222665085262
9104032,-55,20,-120,3172,-73,-7654,1745224222665085262
9104224,-81,39,-129,3198,-76,-7502,1745224222665085262
9104416,-106,50,-136,3315,-160,-7329,1745224222665085262
9104608,-108,56,-135,3454,-214,-7308,1745224222665085262
9104800,-104,66,-143,3504,-144,-7371,1745224222665085262
9104992,-114,75,-160,3408,-30,-7521,1745224222665085262
9105184,-127,87,-169,3294,123,-7712,1745224222665085262
9105376,-139,103,-171,3191,272,-7872,1745224222665085262
9105568,-153,129,-168,3182,420,-7911,1745224222665085262
9105760,-162,160,-160,3191,473,-7938,1745224222665085262
9105952,-175,193,-154,3224,476,-8058,1745224222718207746
9106144,-188,228,-148,3245,438,-8209,1745224222718207746
9106336,-203,274,-147,3210,428,-8248,1745224222718207746
9106528,-222,330,-157,3191,442,-8231,1745224222718207746
9106720,-235,391,-173,3202,480,-8220,1745224222718207746
9106912,-242,451,-185,3217,538,-8241,1745224222718207746
9107104,-247,506,-196,3224,626,-8241,1745224222718207746
9107296,-261,547,-201,3337,648,-8080,1745224222718207746
9107488,-284,558,-193,3608,509,-7796,1745224222718207746
9107680,-296,539,-171,4019,86,-7500,1745224222718207746
9107872,-263,502,-145,4292,-428,-7272,1745224222718207746
9108064,-177,468,-147,4331,-712,-7208,1745224222718207746
9108256,-85,461,-192,4063,-609,-7280,1745224222779876141
9108448,-45,493,-279,3686,-351,-7357,1745224222779876141
9108640,-55,522,-354,3607,26,-7821,1745224222779876141
9108832,-35,537,-407,3531,761,-7917,1745224222779876141
9109024,11,537,-417,3440,1421,-7848,1745224222779876141
9109216,96,563,-386,3389,1835,-7773,1745224222779876141
9109408,155,572,-335,3340,1946,-7758,1745224222779876141
9109600,184,576,-271,3241,1853,-7974,1745224222779876141
9109792,196,593,-207,3095,1662,-8172,1745224222779876141
9109984,201,617,-151,3031,1508,-8272,1745224222779876141
9110176,189,637,-120,3087,1339,-8249,1745224222779876141
9110368,134,634,-100,3316,1051,-7947,1745224222779876141
9110560,71,608,-72,3580,695,-7682,1745224222835544695
9110752,35,587,-44,3600,388,-7373,1745224222835544695
9110944,28,609,-25,3400,337,-7167,1745224222835544695
9111136,29,639,-38,3297,388,-7426,1745224222835544695
9111328,-21,623,-64,3435,447,-7327,1745224222835544695
9111520,-81,584,-93,3692,341,-7136,1745224222835544695
9111712,-62,552,-86,3874,390,-6744,1745224222835544695
9111904,34,542,-71,3810,524,-6638,1745224222835544695
9112096,121,558,-59,3726,594,-6865,1745224222835544695
9112288,159,547,-88,3648,1169,-7008,1745224222835544695
9112480,193,544,-138,3433,1558,-6994,1745224222835544695
9112672,254,574,-141,3313,1787,-6996,1745224222835544695
9112864,280,661,-94,3338,1594,-6530,1745224222897781262
9113056,355,724,-24,3859,1413,-6580,1745224222897781262
9113248,493,656,-39,4366,1491,-7163,1745224222897781262
9113440,514,613,-65,4297,1514,-7200,1745224222897781262
9113632,502,602,-56,4260,1537,-7183,1745224222897781262
9113824,448,605,-44,4159,1264,-7050,1745224222897781262
9114016,435,592,8,4491,893,-6660,1745224222897781262
9114208,456,540,57,5151,272,-6152,1745224222897781262
9114400,473,421,89,5923,-518,-5451,1745224222897781262
9114592,482,275,73,6222,-1577,-5437,1745224222897781262
9114784,613,102,64,6065,-2385,-4730,1745224222897781262
9114976,768,-2,17,5302,-2538,-5179,1745224222897781262
9115168,763,-16,-64,4287,-2225,-5417,1745224222952353888
9115360,684,-3,-199,4072,-2038,-6377,1745224222952353888
9115552,532,-27,-217,5240,-2601,-5748,1745224222952353888
9115744,499,-51,-135,6584,-3396,-5058,1745224222952353888
9115936,496,-226,-180,7131,-3211,-6125,1745224222952353888
9116128,489,-326,-295,5990,-2027,-6399,1745224222952353888
9116320,394,-268,-334,4826,-962,-6680,1745224222952353888
9116512,234,-229,-388,4255,-365,-7039,1745224222952353888
9116704,260,-211,-360,3899,683,-6685,1745224222952353888
9116896,211,152,-7,4662,2295,-4808,1745224222952353888
9117088,-88,1079,1523,8970,421,-2368,1745224222952353888
9117280,-20,1025,2669,10403,-2937,-3585,1745224222952353888
9117472,603,430,2824,6598,-4726,-4728,1745224223011042206
9117664,1024,37,2275,2844,-4919,-6533,1745224223011042206
9117856,867,99,1528,1469,-5024,-7125,1745224223011042206
9118048,349,201,786,1614,-5442,-7609,1745224223011042206
9118240,-189,101,113,2422,-5448,-8171,1745224223011042206
9118432,-620,24,-250,3988,-4378,-8413,1745224223011042206
9118624,-1003,237,7,6597,-2114,-8023,1745224223011042206
9118816,-1243,480,556,8274,559,-6934,1745224223011042206
9119008,-1259,509,879,8212,2745,-6254,1745224223011042206
9119200,-1045,369,849,7048,3795,-5935,1745224223011042206
9119392,-701,187,655,5880,3505,-5932,1745224223011042206
9119584,-332,26,500,5160,2525,-5960,1745224223011042206
9119776,-50,-92,452,4717,1253,-6110,1745224223073520281
9119968,100,-128,474,4278,91,-6019,1745224223073520281
9120160,129,-55,493,3590,-579,-6059,1745224223073520281
9120352,-9,108,459,2932,-621,-6735,1745224223073520281
9120544,-346,268,340,2849,-292,-7545,1745224223073520281
9120736,-715,353,114,2689,684,-7697,1745224223073520281
9120928,-946,427,-191,2248,2530,-7695,1745224223073520281
9121120,-1036,524,-553,1760,4805,-7933,1745224223073520281
9121312,-1025,611,-932,1364,7031,-8182,1745224223073520281
9121504,-976,648,-1215,1279,8622,-8340,1745224223073520281
9121696,-880,633,-1319,1746,9582,-8309,1745224223073520281
9121888,-726,544,-1241,2364,9824,-8394,1745224223073520281
9122080,-475,426,-1022,2891,9217,-8288,1745224223127677912
9122272,-201,309,-707,3489,7929,-7949,1745224223127677912
9122464,-3,203,-400,3804,6170,-7644,1745224223127677912
9122656,103,113,-156,3661,4326,-7245,1745224223127677912
9122848,126,40,11,3277,2683,-7002,1745224223127677912
9123040,86,-9,113,2771,1526,-6817,1745224223127677912
9123232,5,-27,188,2516,608,-6778,1745224223127677912
9123424,-100,-21,225,2450,68,-6822,1745224223127677912
9123616,-208,15,244,2625,-149,-6925,1745224223127677912
9123808,-302,63,260,2961,-108,-7014,1745224223127677912
9124000,-370,113,273,3357,123,-7039,1745224223127677912
9124192,-405,144,291,3769,369,-6991,1745224223127677912
9124384,-403,149,310,4196,597,-6901,1745224223187046848
9124576,-377,134,322,4479,714,-6845,1745224223187046848
9124768,-332,112,331,4597,734,-6806,1745224223187046848
9124960,-276,92,335,4619,681,-6772,1745224223187046848
9125152,-220,75,338,4662,554,-6665,1745224223187046848
9125344,-169,58,336,4731,379,-6476,1745224223187046848
9125536,-132,43,323,4771,222,-6398,1745224223187046848
9125728,-121,25,313,4798,108,-6336,1745224223187046848
9125920,-130,4,309,4733,40,-6285,1745224223187046848
9126112,-141,-5,322,4673,29,-6227,1745224223187046848
9126304,-145,-21,348,4744,53,-6187,1745224223187046848
9126496,-152,-49,368,4866,59,-6145,1745224223187046848
9126688,-171,-75,375,4884,84,-6198,1745224223246891562
9126880,-212,-91,364,4707,200,-6239,1745224223246891562
9127072,-274,-91,345,4425,419,-6336,1745224223246891562
9127264,-338,-82,318,4127,745,-6305,1745224223246891562
9127456,-386,-59,285,4004,1102,-6232,1745224223246891562
9127648,-400,-42,261,4101,1399,-6148,1745224223246891562
9127840,-365,-38,255,4318,1668,-6186,1745224223246891562
9128032,-292,-50,270,4611,1915,-6462,1745224223246891562
9128224,-238,-86,306,4761,1982,-6777,1745224223246891562
9128416,-230,-115,368,4735,1782,-7144,1745224223246891562
9128608,-242,-150,438,4580,1434,-7449,1745224223246891562
9128800,-267,-187,482,4348,1016,-7626,1745224223246891562
9128992,-297,-218,491,4105,559,-7661,1745224223304355048
9129184,-324,-239,478,3941,176,-7651,1745224223304355048
9129376,-353,-246,452,3887,-31,-7628,1745224223304355048
9129568,-397,-249,422,3942,-85,-7615,1745224223304355048
9129760,-450,-243,402,3990,-14,-7439,1745224223304355048
9129952,-468,-226,397,3937,137,-7210,1745224223304355048
9130144,-443,-218,400,4009,301,-7131,1745224223304355048
9130336,-398,-229,402,4098,423,-7139,1745224223304355048
9130528,-356,-237,398,4051,498,-7114,1745224223304355048
9130720,-309,-234,386,3954,490,-7168,1745224223304355048
9130912,-239,-221,374,3809,488,-7081,1745224223304355048
9131104,-168,-202,370,3735,494,-7030,1745224223304355048
9131296,-109,-183,377,3753,408,-6892,1745224223362375820
9131488,-47,-165,388,3898,221,-6630,1745224223362375820
9131680,34,-148,399,4139,23,-6406,1745224223362375820
9131872,111,-139,402,4413,-150,-6199,1745224223362375820
9132064,162,-135,394,4608,-301,-6173,1745224223362375820
9132256,179,-140,374,4770,-451,-6284,1745224223362375820
9132448,157,-162,344,4873,-578,-6493,1745224223362375820
9132640,112,-189,316,4841,-643,-6719,1745224223362375820
9132832,54,-203,296,4653,-657,-6889,1745224223362375820
9133024,1,-198,273,4440,-676,-6886,1745224223362375820
9133216,-17,-184,247,4371,-616,-6879,1745224223362375820
9133408,-20,-169,221,4408,-496,-6705,1745224223362375820
9133600,-7,-153,205,4575,-414,-6424,1745224223421782465
9133792,28,-142,199,4834,-363,-6134,1745224223421782465
9133984,59,-132,194,5076,-318,-5876,1745224223421782465
9134176,77,-138,188,5231,-238,-5683,1745224223421782465
9134368,84,-149,174,5280,-166,-5627,1745224223421782465
9134560,70,-166,151,5258,-148,-5691,1745224223421782465
9134752,35,-183,131,5156,-204,-5752,1745224223421782465
9134944,4,-188,119,5027,-290,-5892,1745224223421782465
9135136,-25,-192,109,5088,-349,-6058,1745224223421782465
9135328,-70,-200,96,5169,-397,-6114,1745224223421782465
9135520,-119,-204,80,5215,-388,-6264,1745224223421782465
9135712,-171,-213,58,5241,-328,-6337,1745224223421782465
9135904,-220,-225,40,5228,-206,-6385,1745224223480296722
9136096,-259,-218,29,5120,-10,-6507,1745224223480296722
9136288,-295,-200,25,5017,209,-6646,1745224223480296722
9136480,-331,-182,25,4889,382,-6746,1745224223480296722
9136672,-346,-166,17,4732,529,-6914,1745224223480296722
9136864,-340,-154,3,4628,646,-7109,1745224223480296722
9137056,-330,-134,-2,4588,696,-7125,1745224223480296722
9137248,-318,-106,11,4601,759,-7176,1745224223480296722
9137440,-308,-88,34,4675,835,-7255,1745224223480296722
9137632,-307,-81,51,4604,946,-7281,1745224223480296722
9137824,-293,-78,53,4504,1062,-7275,1745224223480296722
9138016,-265,-79,38,4561,1137,-7260,1745224223480296722
9138208,-244,-97,11,4678,1124,-7129,1745224223539297381
9138400,-226,-112,-11,4605,1058,-7003,1745224223539297381
9138592,-205,-114,-20,4438,999,-6969,1745224223539297381
9138784,-178,-106,-14,4218,942,-6827,1745224223539297381
9138976,-150,-94,3,4148,903,-6772,1745224223539297381
9139168,-131,-86,16,4192,877,-6734,1745224223539297381
9139360,-117,-79,14,4287,906,-6702,1745224223539297381
9139552,-100,-76,0,4415,1026,-6807,1745224223539297381
9139744,-88,-84,-27,4558,1221,-6968,1745224223539297381
9139936,-87,-106,-50,4508,1378,-7076,1745224223539297381
9140128,-80,-110,-59,4108,1519,-7160,1745224223539297381
9140320,-52,-64,-48,3665,1559,-7355,1745224223539297381
9140512,-26,-59,-47,4151,1530,-7568,1745224223596547795
9140704,-34,-98,-70,4398,1472,-7272,1745224223596547795
9140896,-20,-131,-103,4318,1531,-7375,1745224223596547795
9141088,32,-126,-153,4174,1645,-7689,1745224223596547795
9141280,81,-147,-213,4388,1744,-7779,1745224223596547795
9141472,121,-180,-246,4434,1644,-7981,1745224223596547795
9141664,155,-201,-219,3934,1351,-7991,1745224223596547795
9141856,174,-143,-132,3202,807,-7962,1745224223596547795
9142048,177,-56,-17,2810,107,-7592,1745224223596547795
9142240,170,38,91,3157,-600,-7352,1745224223596547795
9142432,133,82,163,4008,-1155,-7106,1745224223596547795
9142624,54,85,195,4687,-1422,-6851,1745224223596547795
9142816,-34,85,192,4892,-1260,-6950,1745224223656273291
9143008,-101,96,146,4724,-633,-7304,1745224223656273291
9143200,-156,112,56,4396,333,-7662,1745224223656273291
9143392,-200,131,-44,4023,1283,-7880,1745224223656273291
9143584,-207,151,-115,3836,2043,-8057,1745224223656273291
9143776,-183,169,-144,3864,2531,-7986,1745224223656273291
9143968,-151,172,-135,4121,2617,-7860,1745224223656273291
9144160,-105,153,-97,4357,2351,-7544,1745224223656273291
9144352,-27,128,-43,4450,1889,-7217,1745224223656273291
9144544,73,119,5,4317,1377,-6969,1745224223656273291
9144736,161,128,36,4212,893,-6774,1745224223656273291
9144928,213,145,54,4149,464,-6458,1745224223656273291
9145120,241,170,73,4200,96,-6252,1745224223713380947
9145312,241,183,82,4380,-153,-6254,1745224223713380947
9145504,195,171,71,4568,-353,-6328,1745224223713380947
9145696,126,149,52,4505,-402,-6392,1745224223713380947
9145888,67,142,37,4273,-240,-6593,1745224223713380947
9146080,8,148,26,4048,56,-6663,1745224223713380947
9146272,-44,163,20,3953,306,-6710,1745224223713380947
9146464,-74,164,23,4065,485,-6704,1745224223713380947
9146656,-81,164,37,4180,575,-6645,1745224223713380947
9146848,-67,196,75,4190,587,-6704,1745224223713380947
9147040,-68,246,141,4266,501,-6823,1745224223713380947
9147232,-101,275,214,4374,278,-6923,1745224223713380947
9147424,-140,260,268,4218,146,-6966,1745224223773163473
9147616,-160,244,293,3862,178,-7060,1745224223773163473
9147808,-169,256,286,3687,340,-7189,1745224223773163473
9148000,-195,270,264,3815,440,-7007,1745224223773163473
9148192,-225,255,257,4046,400,-6696,1745224223773163473
9148384,-227,220,263,4159,337,-6543,1745224223773163473
9148576,-209,191,267,4160,352,-6496,1745224223773163473
9148768,-193,176,252,4106,405,-6509,1745224223773163473
9148960,-186,163,216,4067,459,-6514,1745224223773163473
9149152,-178,148,173,4021,479,-6600,1745224223773163473
9149344,-157,129,144,3986,491,-6617,1745224223773163473
9149536,-118,112,143,4077,499,-6590,1745224223773163473
9149728,-71,103,162,4078,576,-6548,1745224223834601818
9149920,-25,121,192,4057,719,-6612,1745224223834601818
9150112,1,137,216,4169,838,-6633,1745224223834601818
9150304,12,117,221,4294,796,-6512,1745224223834601818
9150496,45,79,220,4398,669,-6435,1745224223834601818
9150688,90,54,224,4400,532,-6358,1745224223834601818
9150880,114,41,228,4390,421,-6272,1745224223834601818
9151072,115,10,226,4497,336,-6172,1745224223834601818
9151264,105,-34,216,4508,235,-6170,1745224223834601818
9151456,105,-36,211,4289,253,-6319,1745224223834601818
9151648,107,7,217,4159,342,-6676,1745224223834601818
9151840,85,22,221,4224,422,-6894,1745224223834601818
9152032,50,5,225,4362,409,-6995,1745224223899813202
9152224,16,-2,235,4451,379,-6984,1745224223899813202
9152416,7,18,242,4436,396,-6926,1745224223899813202
9152608,13,26,239,4788,403,-7239,1745224223899813202
9152800,17,-9,232,4771,490,-7088,1745224223899813202
9152992,32,11,258,4628,520,-7212,1745224223899813202
9153184,57,23,273,4534,462,-7146,1745224223899813202
9153376,74,44,249,4535,479,-7237,1745224223899813202
9153568,79,53,206,4640,596,-7210,1745224223899813202
9153760,85,39,165,4935,691,-7234,1745224223899813202
9153952,101,9,140,5102,790,-7363,1745224223899813202
9154144,114,-2,123,4834,980,-7277,1745224223899813202
9154336,107,9,98,4429,1082,-7210,1745224223946804596
9154528,105,9,57,4415,1113,-6967,1745224223946804596
9154720,146,-17,13,4970,1164,-7017,1745224223946804596
9154912,189,-62,-19,5358,1328,-7100,1745224223946804596
9155104,153,-90,-29,5043,1360,-7110,1745224223946804596
9155296,90,-87,-6,4210,1021,-6810,1745224223946804596
9155488,104,-44,48,3880,477,-6619,1745224223946804596
9155680,148,-12,104,4367,-106,-6648,1745224223946804596
9155872,132,-6,143,4922,-547,-6640,1745224223946804596
9156064,88,10,175,5089,-788,-6781,1745224223946804596
9156256,37,19,184,4941,-808,-6853,1745224223946804596
9156448,-17,22,172,4576,-679,-6766,1745224223946804596
9156640,-46,44,157,4392,-466,-6721,1745224224007283418
9156832,-50,60,137,4486,-98,-6807,1745224224007283418
9157024,-61,54,113,4627,292,-6816,1745224224007283418
9157216,-68,40,88,4683,607,-6787,1745224224007283418
9157408,-53,20,68,4691,823,-6606,1745224224007283418
9157600,-27,-11,51,4660,878,-6366,1745224224007283418
9157792,7,-36,43,4582,842,-6169,1745224224007283418
9157984,37,-52,47,4546,772,-6075,1745224224007283418
9158176,54,-71,43,4583,678,-6134,1745224224007283418
9158368,55,-88,36,4637,569,-6274,1745224224007283418
9158560,39,-111,37,4678,524,-6414,1745224224007283418
9158752,25,-125,46,4642,592,-6629,1745224224007283418
9158944,17,-136,52,4543,751,-6974,1745224224064402740
9159136,4,-144,57,4380,927,-7238,1745224224064402740
9159328,4,-138,75,4218,987,-7380,1745224224064402740
9159520,28,-126,101,4244,976,-7367,1745224224064402740
9159712,52,-124,116,4510,877,-7226,1745224224064402740
9159904,57,-144,113,4776,688,-7102,1745224224064402740
9160096,52,-165,109,4745,458,-7076,1745224224064402740
9160288,40,-161,122,4348,161,-7019,1745224224064402740
9160480,21,-127,154,3872,-180,-6909,1745224224064402740
9160672,2,-79,188,3808,-498,-6763,1745224224064402740
9160864,-22,-54,196,4257,-645,-6633,1745224224064402740
9161056,-44,-50,174,4839,-499,-6664,1745224224064402740
9161248,-53,-55,127,5037,-103,-6886,1745224224124001102
9161440,-65,-60,78,4733,288,-7041,1745224224124001102
9161632,-64,-64,53,4316,447,-6990,1745224224124001102
9161824,-38,-78,53,4304,386,-6835,1745224224124001102
9162016,-2,-102,69,4607,247,-6728,1745224224124001102
9162208,18,-121,86,4762,156,-6733,1745224224124001102
9162400,15,-131,88,4603,79,-6713,1745224224124001102
9162592,11,-133,79,4363,5,-6620,1745224224124001102
9162784,13,-129,68,4382,-31,-6502,1745224224124001102
9162976,7,-129,65,4595,-14,-6424,1745224224124001102
9163168,-6,-118,75,4642,115,-6557,1745224224124001102
9163360,-31,-75,89,4431,359,-6800,1745224224124001102
9163552,-80,-44,87,4301,504,-7027,1745224224180460742
9163744,-115,-33,89,4479,450,-7108,1745224224180460742
9163936,-134,-29,114,4769,284,-7108,1745224224180460742
9164128,-147,-17,156,4798,66,-7013,1745224224180460742
9164320,-149,6,185,4640,-75,-6961,1745224224180460742
9164512,-154,25,187,4566,-142,-7034,1745224224180460742
9164704,-176,45,174,4597,-167,-7148,1745224224180460742
9164896,-205,73,164,4604,-154,-7319,1745224224180460742
9165088,-227,98,157,4601,-45,-7361,1745224224180460742
9165280,-234,111,140,4603,111,-7396,1745224224180460742
9165472,-223,117,103,4716,313,-7530,1745224224180460742
9165664,-212,116,57,4879,495,-7648,1745224224180460742
9165856,-207,123,19,4927,556,-7683,1745224224238970052
9166048,-189,127,-4,4949,537,-7542,1745224224238970052
9166240,-185,132,-15,5003,367,-7267,1745224224238970052
9166432,-202,133,-14,4964,129,-6941,1745224224238970052
9166624,-221,146,-16,4847,-15,-6688,1745224224238970052
9166816,-256,149,-35,4763,-58,-6423,1745224224238970052
9167008,-302,122,-78,4865,-238,-6183,1745224224238970052
9167200,-325,132,-104,5071,-426,-6130,1745224224238970052
9167392,-329,116,-112,5101,-434,-6324,1745224224238970052
9167584,-321,103,-146,4998,-292,-6724,1745224224238970052
9167776,-331,95,-206,4840,-205,-7015,1745224224238970052
9167968,-345,99,-266,4707,-235,-7190,1745224224238970052
9168160,-344,110,-302,4682,-411,-7090,1745224224299393875
9168352,-326,106,-316,4824,-696,-6869,1745224224299393875
9168544,-304,85,-323,4981,-1026,-6801,1745224224299393875
9168736,-283,69,-330,5103,-1407,-6798,1745224224299393875
9168928,-248,42,-345,5152,-1742,-6634,1745224224299393875
9169120,-232,15,-398,5238,-1955,-6602,1745224224299393875
9169312,-244,3,-490,5254,-2108,-6432,1745224224299393875
9169504,-267,-3,-581,5274,-1958,-6173,1745224224299393875
9169696,-270,-17,-642,5278,-1458,-6008,1745224224299393875
9169888,-224,-25,-664,5334,-781,-6080,1745224224299393875
9170080,-118,-41,-655,5579,-179,-6126,1745224224299393875
9170272,38,-87,-635,5803,323,-6056,1745224224299393875
9170464,221,-135,-617,5892,614,-5898,1745224224356442520
9170656,410,-176,-620,5926,689,-5853,1745224224356442520
9170848,592,-225,-653,5958,535,-5759,1745224224356442520
9171040,762,-281,-706,5845,319,-5768,1745224224356442520
9171232,897,-318,-769,5471,4,-5934,1745224224356442520
9171424,974,-338,-824,5170,-463,-6499,1745224224356442520
9171616,1004,-382,-880,5005,-761,-6911,1745224224356442520
9171808,1008,-402,-964,4591,-716,-6616,1745224224356442520
9172000,931,-337,-1006,4005,-1026,-5246,1745224224356442520
9172192,607,118,-433,5843,-3413,-2774,1745224224356442520
9172384,167,196,593,9502,-7172,-4459,1745224224356442520
9172576,456,-187,1136,8912,-8522,-4317,1745224224356442520
9172768,659,-255,1256,6885,-8096,-5458,1745224224416293953
9172960,297,-57,1089,5809,-7707,-5649,1745224224416293953
9173152,-239,121,841,5386,-8169,-5231,1745224224416293953
9173344,-569,215,835,5731,-8586,-5067,1745224224416293953
9173536,-740,326,1104,6388,-8321,-4952,1745224224416293953
9173728,-966,474,1449,7017,-7694,-5004,1745224224416293953
9173920,-1234,582,1709,7532,-7115,-5221,1745224224416293953
9174112,-1392,645,1844,7671,-6440,-5077,1745224224416293953
9174304,-1438,677,1919,7817,-5715,-4889,1745224224416293953
9174496,-1474,692,1975,8105,-5227,-4625,1745224224416293953
9174688,-1517,681,2033,8480,-4965,-4413,1745224224416293953
9174880,-1530,645,2100,8824,-4826,-4308,1745224224416293953
9175072,-1509,603,2159,9070,-4606,-4242,1745224224473296140
9175264,-1472,569,2182,9121,-4258,-4166,1745224224473296140
9175456,-1428,540,2159,9071,-3817,-4123,1745224224473296140
9175648,-1372,518,2105,8948,-3388,-4134,1745224224473296140
9175840,-1291,503,2039,8884,-2961,-4135,1745224224473296140
9176032,-1186,495,1974,8856,-2522,-4108,1745224224473296140
9176224,-1065,494,1910,8966,-2160,-4030,1745224224473296140
9176416,-938,495,1831,9079,-1867,-3850,1745224224473296140
9176608,-815,496,1768,9209,-1562,-3617,1745224224473296140
9176800,-683,504,1748,9215,-1272,-3445,1745224224473296140
9176992,-512,530,1765,9139,-988,-3501,1745224224473296140
9177184,-298,573,1778,9093,-851,-3528,1745224224473296140
9177376,-69,636,1744,9105,-820,-3441,1745224224534574487
9177568,130,707,1675,9166,-901,-3245,1745224224534574487
9177760,283,782,1629,9225,-985,-3035,1745224224534574487
9177952,407,863,1642,9245,-1047,-2713,1745224224534574487
9178144,516,954,1699,9260,-1020,-2413,1745224224534574487
9178336,608,1058,1768,9352,-927,-2182,1745224224534574487
9178528,682,1161,1828,9547,-874,-2018,1745224224534574487
9178720,763,1259,1866,9735,-891,-1845,1745224224534574487
9178912,858,1349,1881,9942,-904,-1763,1745224224534574487
9179104,948,1438,1875,10139,-902,-1755,1745224224534574487
9179296,1015,1531,1853,10255,-878,-1751,1745224224534574487
9179488,1066,1637,1835,10304,-748,-1763,1745224224534574487
9179680,1115,1753,1827,10380,-553,-1768,1745224224591010898
9179872,1160,1867,1819,10490,-270,-1704,1745224224591010898
9180064,1194,1970,1799,10598,6,-1580,1745224224591010898
9180256,1215,2054,1765,10749,151,-1390,1745224224591010898
9180448,1228,2124,1724,10871,172,-1113,1745224224591010898
9180640,1240,2196,1684,10940,189,-806,1745224224591010898
9180832,1233,2277,1658,10945,331,-496,1745224224591010898
9181024,1181,2354,1636,10931,505,-260,1745224224591010898
9181216,1087,2418,1617,10927,579,-77,1745224224591010898
9181408,964,2464,1604,11019,528,167,1745224224591010898
9181600,828,2481,1599,11189,175,373,1745224224591010898
9181792,718,2485,1607,11268,-328,626,1745224224591010898
9181984,652,2498,1623,11222,-693,858,1745224224648699538
9182176,590,2546,1639,11070,-777,897,1745224224648699538
9182368,484,2625,1650,10944,-636,852,1745224224648699538
9182560,333,2712,1658,10868,-427,821,1745224224648699538
9182752,173,2796,1671,10861,-177,802,1745224224648699538
9182944,30,2893,1703,10924,120,842,1745224224648699538
9183136,-97,2999,1750,11113,390,888,1745224224648699538
9183328,-213,3107,1804,11420,649,849,1745224224648699538
9183520,-329,3226,1864,11647,827,831,1745224224648699538
9183712,-443,3334,1923,11747,906,767,1745224224648699538
9183904,-541,3437,1969,11700,960,791,1745224224648699538
9184096,-626,3532,2000,11613,1032,866,1745224224648699538
9184288,-711,3619,2006,11517,1111,979,1745224224714538364
9184480,-811,3703,1994,11510,1194,1083,1745224224714538364
9184672,-923,3778,1968,11575,1263,1256,1745224224714538364
9184864,-1031,3846,1930,11684,1330,1465,1745224224714538364
9185056,-1126,3908,1885,11867,1429,1633,1745224224714538364
9185248,-1194,3971,1835,12051,1619,1842,1745224224714538364
9185440,-1234,4023,1783,12231,1853,2048,1745224224714538364
9185632,-1237,4059,1717,12396,2201,2273,1745224224714538364
9185824,-1197,4094,1644,12588,2611,2507,1745224224714538364
9186016,-1115,4107,1572,12861,3063,2751,1745224224714538364
9186208,-993,4095,1497,13133,3538,2897,1745224224714538364
9186400,-848,4081,1421,13288,3970,2897,1745224224714538364
9186592,-700,4055,1332,13319,4358,2783,1745224224766556274
9186784,-539,4044,1238,13211,4681,2647,1745224224766556274
9186976,-372,4050,1145,13096,4938,2618,1745224224766556274
9187168,-220,4071,1056,13061,5098,2719,1745224224766556274
9187360,-101,4094,968,13091,5124,2921,1745224224766556274
9187552,-9,4132,879,13191,5100,3177,1745224224766556274
9187744,43,4179,784,13389,5061,3337,1745224224766556274
9187936,37,4229,674,13578,4966,3497,1745224224766556274
9188128,-5,4283,558,13658,4887,3724,1745224224766556274
9188320,-67,4335,444,13714,4871,3880,1745224224766556274
9188512,-150,4390,320,13776,5002,4026,1745224224766556274
9188704,-255,4443,178,13882,5302,4061,1745224224766556274
9188896,-358,4497,19,14068,5590,4108,1745224224827043065
9189088,-454,4545,-130,14280,5864,4074,1745224224827043065
9189280,-532,4591,-272,14449,6169,3964,1745224224827043065
9189472,-593,4627,-420,14590,6393,3898,1745224224827043065
9189664,-630,4657,-569,14748,6608,3992,1745224224827043065
9189856,-640,4681,-714,14947,6847,4284,1745224224827043065
9190048,-642,4689,-857,15168,7078,4600,1745224224827043065
9190240,-636,4679,-1006,15330,7310,4750,1745224224827043065
9190432,-621,4647,-1153,15428,7473,4831,1745224224827043065
9190624,-577,4613,-1292,15392,7650,4790,1745224224827043065
9190816,-507,4611,-1416,15282,7874,4882,1745224224827043065
9191008,-421,4607,-1537,15195,8206,4879,1745224224827043065
9191200,-324,4606,-1662,15279,8663,4771,1745224224883098438
9191392,-232,4628,-1789,15670,9163,4601,1745224224883098438
9191584,-176,4679,-1923,16278,9512,4398,1745224224883098438
9191776,-139,4725,-2055,16794,9580,4284,1745224224883098438
9191968,-67,4766,-2169,17109,9504,4099,1745224224883098438
9192160,40,4800,-2281,17171,9400,3921,1745224224883098438
9192352,160,4832,-2411,17014,9363,3748,1745224224883098438
9192544,287,4879,-2557,17051,9325,3552,1745224224883098438
9192736,416,4922,-2716,17219,9324,3527,1745224224883098438
9192928,564,4958,-2876,17375,9435,3304,1745224224883098438
9193120,721,4983,-3030,17393,9563,2896,1745224224883098438
9193312,915,5000,-3175,17266,9725,2725,1745224224883098438
9193504,1167,5006,-3310,17272,9898,2533,1745224224945400578
9193696,1462,4967,-3450,17319,10026,2285,1745224224945400578
9193888,1800,4923,-3587,17232,10132,1972,1745224224945400578
9194080,2171,4867,-3717,17141,10033,1661,1745224224945400578
9194272,2560,4809,-3836,17214,9894,1279,1745224224945400578
9194464,2914,4750,-3948,17650,9655,758,1745224224945400578
9194656,3212,4697,-4065,18296,9319,570,1745224224945400578
9194848,3477,4609,-4186,19031,8906,725,1745224224945400578
9195040,3715,4477,-4315,19588,8509,788,1745224224945400578
9195232,3921,4319,-4445,19903,8155,500,1745224224945400578
9195424,4074,4155,-4556,20002,7452,-108,1745224224945400578
9195616,4172,3981,-4638,19868,6658,-651,1745224224945400578
9195808,4250,3776,-4727,19536,5810,-1026,1745224225014919942
9196000,4332,3555,-4818,19158,4892,-954,1745224225014919942
9196192,4399,3310,-4873,19094,3993,-1030,1745224225014919942
9196384,4427,2996,-4911,19285,2910,-1112,1745224225014919942
9196576,4434,2647,-4945,19502,1855,-1143,1745224225014919942
9196768,4404,2283,-4979,19541,938,-1169,1745224225014919942
9196960,4308,1917,-5003,19303,223,-1372,1745224225014919942
9197152,4143,1550,-4988,18894,-587,-1780,1745224225014919942
9197344,3956,1190,-4910,18309,-1504,-2075,1745224225014919942
9197536,3801,837,-4798,17617,-2494,-2307,1745224225014919942
9197728,3668,502,-4680,17038,-3496,-2470,1745224225014919942
9197920,3512,189,-4558,16612,-4636,-2540,1745224225014919942
9198112,3319,-93,-4419,16325,-5719,-2543,1745224225057329763
9198304,3085,-329,-4279,16051,-6678,-2911,1745224225057329763
9198496,2808,-514,-4152,15621,-7466,-3173,1745224225057329763
9198688,2537,-637,-4019,15322,-7927,-2816,1745224225057329763
9198880,2291,-781,-3870,15326,-8186,-2180,1745224225057329763
9199072,2060,-929,-3682,15262,-8101,-1544,1745224225057329763
9199264,1847,-1094,-3467,15054,-7781,-1268,1745224225057329763
9199456,1670,-1274,-3257,14637,-7338,-995,1745224225057329763
9199648,1552,-1432,-3060,14064,-6942,-461,1745224225057329763
9199840,1513,-1585,-2855,13420,-6716,489,1745224225057329763
9200032,1544,-1764,-2627,12883,-6691,1627,1745224225057329763
9200224,1599,-1955,-2380,12348,-6728,2375,1745224225057329763
9200416,1625,-2117,-2128,11796,-6688,2856,1745224225130392794
9200608,1606,-2250,-1892,11210,-6647,3453,1745224225130392794
9200800,1555,-2364,-1679,10624,-6710,4100,1745224225130392794
9200992,1491,-2418,-1453,9799,-6598,4717,1745224225130392794
9201184,1306,-2410,-1191,9057,-6030,7496,1745224225130392794
9201376,1294,-2515,-992,7913,-4553,6639,1745224225130392794
9201568,1308,-2475,-767,7152,-3319,7346,1745224225130392794
9201760,1153,-2422,-811,6573,-3912,7394,1745224225130392794
9201952,1030,-2261,-931,5496,-3253,8065,1745224225130392794
9202144,977,-2069,-649,4715,-2588,8774,1745224225130392794
9202336,914,-1865,-207,4324,-1540,9337,1745224225130392794
9202528,805,-1662,93,3876,-189,9521,1745224225130392794
9202720,690,-1445,207,3610,748,10023,1745224225175500767
9202912,609,-1187,216,2859,1044,10688,1745224225175500767
9203104,538,-900,275,2282,1430,10702,1745224225175500767
9203296,480,-632,406,1829,2511,11191,1745224225175500767
9203488,418,-371,532,1708,3927,11270,1745224225175500767
9203680,334,-171,611,1963,5287,11467,1745224225175500767
9203872,274,-6,640,2373,6643,11421,1745224225175500767
9204064,309,118,620,2394,8133,11558,1745224225175500767
9204256,422,182,602,2562,9007,11455,1745224225175500767
9204448,503,214,601,2304,9286,10699,1745224225175500767
9204640,508,243,624,1971,8703,10271,1745224225175500767
9204832,455,297,600,2578,7355,9583,1745224225175500767
9205024,283,368,409,2673,6658,9340,1745224225235988235
9205216,115,471,208,2106,7180,8646,1745224225235988235
9205408,-66,562,179,1863,8203,7972,1745224225235988235
9205600,-257,653,201,2092,9349,6997,1745224225235988235
9205792,-411,702,163,2414,10335,6230,1745224225235988235
9205984,-488,697,102,2694,11080,5798,1745224225235988235
9206176,-479,646,83,3008,11253,5196,1745224225235988235
9206368,-430,600,94,3086,11020,4628,1745224225235988235
9206560,-362,568,107,2916,10511,4287,1745224225235988235
9206752,-310,552,109,2576,9960,3792,1745224225235988235
9206944,-311,539,107,2310,9347,3766,1745224225235988235
9207136,-349,537,87,2210,8698,3685,1745224225235988235
9207328,-403,538,46,2307,8406,3483,1745224225299186929
9207520,-438,534,-12,2413,8400,3553,1745224225299186929
9207712,-442,516,-75,2632,8417,3495,1745224225299186929
9207904,-420,469,-129,2878,8386,3463,1745224225299186929
9208096,-375,400,-163,3244,8280,3366,1745224225299186929
9208288,-300,313,-176,3306,8086,3324,1745224225299186929
9208480,-229,229,-172,3282,7654,3215,1745224225299186929
9208672,-168,131,-175,3314,6986,3170,1745224225299186929
9208864,-123,15,-186,3418,6212,3105,1745224225299186929
9209056,-95,-101,-206,3471,5387,3050,1745224225299186929
9209248,-106,-192,-216,3323,4746,2969,1745224225299186929
9209440,-158,-252,-189,3106,4304,3088,1745224225299186929
9209632,-241,-283,-140,2914,3986,3093,1745224225349755790
9209824,-334,-297,-88,2663,3849,3119,1745224225349755790
9210016,-400,-290,-26,2491,3915,3211,1745224225349755790
9210208,-441,-277,38,2585,4010,3250,1745224225349755790
9210400,-460,-258,78,2796,4224,3297,1745224225349755790
9210592,-444,-248,99,3057,4421,3635,1745224225349755790
9210784,-381,-263,120,3347,4616,3947,1745224225349755790
9210976,-294,-285,146,3571,4788,4228,1745224225349755790
9211168,-203,-303,171,3585,4873,4517,1745224225349755790
9211360,-118,-314,200,3383,4892,4841,1745224225349755790
9211552,-44,-313,241,3156,4902,5085,1745224225349755790
9211744,7,-300,285,2998,4882,5288,1745224225349755790
9211936,45,-297,319,2999,4779,5508,1745224225411427935
9212128,93,-287,338,2916,4825,5703,1745224225411427935
9212320,144,-269,354,3088,4735,5796,1745224225411427935
9212512,210,-229,366,2994,4913,6053,1745224225411427935
9212704,270,-179,376,3148,4977,6176,1745224225411427935
9212896,291,-130,359,3004,5167,6370,1745224225411427935
9213088,301,-86,363,2826,5521,6590,1745224225411427935
9213280,323,-56,380,2914,5493,6585,1745224225411427935
9213472,330,-16,377,2787,5421,6672,1745224225411427935
9213664,353,44,369,2420,5804,6663,1745224225411427935
9213856,394,98,370,2438,6218,6451,1745224225411427935
9214048,400,112,342,2663,6171,6488,1745224225411427935
9214240,392,124,312,2597,5873,6314,1745224225471755405
9214432,347,133,398,2400,5995,6458,1745224225471755405
9214624,331,242,462,2210,6642,5868,1745224225471755405
9214816,311,294,441,2311,7203,5597,1745224225471755405
9215008,291,316,395,2453,7449,5406,1745224225471755405
9215200,287,296,403,2909,6855,5191,1745224225471755405
9215392,214,289,492,3088,6248,5385,1745224225471755405
9215584,151,369,509,3039,6560,5020,1745224225471755405
9215776,92,372,424,3084,6846,5106,1745224225471755405
9215968,19,325,369,3198,6900,5445,1745224225471755405
9216160,-11,286,332,3203,7239,5431,1745224225471755405
9216352,-35,234,288,3115,7345,5384,1745224225471755405
9216544,-100,188,274,3028,7274,5017,1745224225533434268
9216736,-201,156,269,2733,7309,4928,1745224225533434268
9216928,-257,163,211,2478,7263,4668,1745224225533434268
9217120,-273,138,149,2175,7341,4630,1745224225533434268
9217312,-279,121,140,2149,7120,4574,1745224225533434268
9217504,-251,122,136,2190,7019,4540,1745224225533434268
9217696,-210,96,104,2238,6878,4622,1745224225533434268
9217888,-177,58,77,2195,6726,4873,1745224225533434268
9218080,-152,8,82,2133,6610,5022,1745224225533434268
9218272,-132,-24,104,2036,6431,5036,1745224225533434268
9218464,-101,-51,106,1930,6330,4959,1745224225533434268
9218656,-80,-62,87,1900,6258,4912,1745224225533434268
9218848,-69,-66,77,1923,6251,5034,1745224225589358080
9219040,-58,-67,81,2098,6259,5066,1745224225589358080
9219232,-50,-63,68,2209,6203,5048,1745224225589358080
9219424,-30,-51,36,2297,6235,4925,1745224225589358080
9219616,-6,-41,10,2483,6140,4846,1745224225589358080
9219808,12,-37,-10,2655,5920,5011,1745224225589358080
9220000,31,-36,-27,2689,5802,5112,1745224225589358080
9220192,46,-24,-37,2575,5680,5039,1745224225589358080
9220384,54,-10,-29,2485,5614,5035,1745224225589358080
9220576,53,5,-12,2556,5493,5020,1745224225589358080
9220768,42,20,-11,2675,5375,5024,1745224225589358080
9220960,31,38,-13,2719,5338,4973,1745224225589358080
9221152,33,39,7,2861,5382,5057,1745224225653421766
9221344,47,25,47,3109,5381,5207,1745224225653421766
9221536,62,2,60,3255,5421,5263,1745224225653421766
9221728,81,-29,47,3287,5215,5134,1745224225653421766
9221920,99,-43,58,3222,5117,4918,1745224225653421766
9222112,108,-42,89,3158,5157,4745,1745224225653421766
9222304,103,-38,117,3179,5361,4659,1745224225653421766
9222496,86,-30,126,3191,5687,4667,1745224225653421766
9222688,67,-18,130,3193,6021,4668,1745224225653421766
9222880,47,0,129,3404,6213,4529,1745224225653421766
9223072,36,-1,115,3594,6204,4584,1745224225653421766
9223264,52,-6,101,3617,6121,4560,1745224225653421766
9223456,74,-14,97,3496,6050,4561,1745224225708996519
9223648,84,-10,99,3338,5973,4543,1745224225708996519
9223840,77,-1,93,3228,5879,4510,1745224225708996519
9224032,68,7,82,3122,5762,4716,1745224225708996519
9224224,75,19,83,3039,5717,4809,1745224225708996519
9224416,78,34,92,2998,5734,4912,1745224225708996519
9224608,73,57,99,2977,5816,4930,1745224225708996519
9224800,57,78,97,3060,5858,4878,1745224225708996519
9224992,54,86,87,3243,5838,5023,1745224225708996519
9225184,78,88,82,3361,5829,5067,1745224225708996519
9225376,102,92,76,3353,5831,4987,1745224225708996519
9225568,129,92,63,3260,5776,4960,1745224225708996519
9225760,171,86,51,3236,5615,4903,1745224225765017569
9225952,217,70,43,3181,5419,4884,1745224225765017569
9226144,258,66,43,3076,5308,4785,1745224225765017569
9226336,289,76,52,2885,5330,4636,1745224225765017569
9226528,296,103,70,2772,5444,4477,1745224225765017569
9226720,278,130,93,2851,5525,4494,1745224225765017569
9226912,248,140,117,3086,5560,4672,1745224225765017569
9227104,221,134,139,3268,5585,4966,1745224225765017569
9227296,201,128,154,3297,5731,5053,1745224225765017569
9227488,171,123,159,3211,5987,5076,1745224225765017569
9227680,129,123,152,3174,6237,5043,1745224225765017569
9227872,88,120,139,3180,6561,5082,1745224225765017569
9228064,71,124,131,3245,6906,5095,1745224225836018848
9228256,69,113,125,3420,7134,5165,1745224225836018848
9228448,81,91,109,3510,7231,5266,1745224225836018848
9228640,103,59,87,3459,7173,5282,1745224225836018848
9228832,127,31,68,3213,6915,5393,1745224225836018848
9229024,134,18,62,2898,6540,5413,1745224225836018848
9229216,111,24,64,2656,6349,5419,1745224225836018848
9229408,74,53,67,2484,6443,5293,1745224225836018848
9229600,29,88,71,2418,6676,5203,1745224225836018848
9229792,-13,109,64,2725,6735,5147,1745224225836018848
9229984,-46,97,54,3188,6615,5317,1745224225836018848
9230176,-50,96,54,3367,6501,5399,1745224225836018848
9230368,-35,94,64,3380,6448,5401,1745224225882460715
9230560,-28,92,68,3238,6537,5360,1745224225882460715
9230752,-33,97,60,3109,6643,5250,1745224225882460715
9230944,-44,91,44,3157,6633,5276,1745224225882460715
9231136,-41,78,28,3223,6636,5276,1745224225882460715
9231328,-22,53,17,3331,6496,5229,1745224225882460715
9231520,18,19,-4,3362,6296,5208,1745224225882460715
9231712,58,-13,-28,3221,6026,4972,1745224225882460715
9231904,86,-43,-46,3029,5765,4746,1745224225882460715
9232096,113,-73,-50,2916,5524,4619,1745224225882460715
9232288,121,-97,-39,2808,5346,4577,1745224225882460715
9232480,93,-105,-17,2725,5318,4446,1745224225882460715
9232672,30,-103,9,2616,5370,4385,1745224225942026838
9232864,-34,-92,37,2593,5512,4411,1745224225942026838
9233056,-86,-81,59,2702,5613,4553,1745224225942026838
9233248,-119,-76,66,2874,5745,4779,1745224225942026838
9233440,-127,-68,62,3010,5869,4905,1745224225942026838
9233632,-112,-62,53,3083,6080,4946,1745224225942026838
9233824,-86,-54,34,3045,6306,4796,1745224225942026838
9234016,-57,-56,6,3042,6378,4647,1745224225942026838
9234208,-10,-75,-27,3131,6188,4473,1745224225942026838
9234400,56,-99,-52,3197,5837,4318,1745224225942026838
9234592,137,-107,-63,3113,5512,4229,1745224225942026838
9234784,206,-92,-56,2915,5363,4198,1745224225942026838
9234976,240,-63,-40,2696,5468,4295,1745224225999355845
9235168,235,-23,-22,2554,5660,4340,1745224225999355845
9235360,205,16,-10,2540,5882,4374,1745224225999355845
9235552,171,49,-7,2713,5997,4358,1745224225999355845
9235744,135,67,-14,3013,5992,4487,1745224225999355845
9235936,108,78,-30,3236,5918,4523,1745224225999355845
9236128,98,88,-48,3277,5875,4562,1745224225999355845
9236320,114,106,-59,3132,5998,4538,1745224225999355845
9236512,132,138,-58,2995,6236,4394,1745224225999355845
9236704,125,168,-59,3005,6459,4375,1745224225999355845
9236896,110,193,-67,3111,6641,4412,1745224225999355845
9237088,115,201,-68,3295,6825,4465,1745224225999355845
9237280,132,187,-66,3553,6872,4557,1745224226064982329
9237472,151,156,-77,3746,6779,4624,1745224226064982329
9237664,177,125,-98,3732,6579,4719,1745224226064982329
9237856,208,100,-109,3653,6394,4679,1745224226064982329
9238048,219,88,-113,3405,6334,4599,1745224226064982329
9238240,205,89,-108,3127,6383,4667,1745224226064982329
9238432,181,98,-101,3016,6481,4778,1745224226064982329
9238624,157,107,-100,3013,6556,4763,1745224226064982329
9238816,133,114,-103,3081,6524,4781,1745224226064982329
9239008,128,126,-102,3124,6455,4617,1745224226064982329
9239200,128,131,-96,3248,6279,4511,1745224226064982329
9239392,129,138,-94,3288,6118,4476,1745224226064982329
9239584,131,138,-92,3301,5992,4501,1745224226116888209
9239776,129,133,-88,3302,5853,4510,1745224226116888209
9239968,120,121,-83,3249,5728,4655,1745224226116888209
9240160,100,126,-74,3074,5657,4655,1745224226116888209
9240352,62,140,-55,2901,5616,4728,1745224226116888209
9240544,16,163,-37,2792,5649,4772,1745224226116888209
9240736,-31,179,-23,2874,5663,4912,1745224226116888209
9240928,-74,197,-13,2948,5788,5058,1745224226116888209
9241120,-112,219,3,2968,6005,5064,1745224226116888209
9241312,-132,246,15,2997,6282,4951,1745224226116888209
9241504,-133,270,14,3150,6469,4786,1745224226116888209
9241696,-110,279,-6,3404,6504,4808,1745224226116888209
9241888,-63,279,-32,3554,6468,4721,1745224226174502943
9242080,1,270,-51,3721,6375,4690,1745224226174502943
9242272,69,258,-72,3719,6289,4663,1745224226174502943
9242464,131,237,-83,3568,6241,4753,1745224226174502943
9242656,174,209,-82,3335,6206,4726,1745224226174502943
9242848,194,183,-75,3076,6106,4580,1745224226174502943
9243040,205,155,-68,2888,5965,4503,1745224226174502943
9243232,200,137,-53,2803,5835,4366,1745224226174502943
9243424,172,124,-29,2827,5699,4288,1745224226174502943
9243616,132,108,-5,2910,5657,4315,1745224226174502943
9243808,85,98,18,2876,5718,4353,1745224226174502943
9244000,29,99,38,2775,5855,4430,1745224226174502943
9244192,-26,99,51,2711,6033,4542,1745224226242691071
9244384,-78,91,50,2737,6183,4771,1745224226242691071
9244576,-113,79,40,2797,6289,4900,1745224226242691071
9244768,-121,66,25,2842,6301,4924,1745224226242691071
9244960,-104,57,8,2794,6300,4926,1745224226242691071
9245152,-65,49,-8,2656,6450,4950,1745224226242691071
9245344,-21,37,-23,2598,6654,4955,1745224226242691071
9245536,8,19,-36,2616,6797,4934,1745224226242691071
9245728,31,-8,-48,2701,6825,4890,1745224226242691071
9245920,54,-25,-62,2725,6762,4704,1745224226242691071
9246112,63,-35,-79,2699,6615,4514,1745224226242691071
9246304,64,-38,-95,2616,6493,4411,1745224226242691071
9246496,59,-42,-106,2589,6463,4562,1745224226290367875
9246688,37,-43,-111,2604,6515,4684,1745224226290367875
9246880,-4,-49,-121,2620,6555,4721,1745224226290367875
9247072,-45,-66,-136,2651,6505,4710,1745224226290367875
9247264,-75,-89,-151,2621,6459,4702,1745224226290367875
9247456,-102,-101,-156,2539,6377,4624,1745224226290367875
9247648,-135,-107,-157,2461,6355,4697,1745224226290367875
9247840,-159,-108,-159,2382,6399,4780,1745224226290367875
9248032,-180,-103,-161,2416,6489,4772,1745224226290367875
9248224,-193,-99,-161,2509,6520,4777,1745224226290367875
9248416,-190,-100,-161,2640,6522,4885,1745224226290367875
9248608,-177,-102,-161,2764,6513,5004,1745224226290367875
9248800,-163,-104,-161,2792,6554,5124,1745224226350682844
9248992,-142,-100,-166,2790,6558,5147,1745224226350682844
9249184,-111,-84,-175,2679,6605,5068,1745224226350682844
9249376,-81,-66,-185,2740,6644,4986,1745224226350682844
9249568,-59,-65,-206,2968,6572,5022,1745224226350682844
9249760,-37,-71,-237,3068,6468,5083,1745224226350682844
9249952,-22,-80,-261,3113,6341,5100,1745224226350682844
9250144,-5,-87,-278,2996,6295,5066,1745224226350682844
9250336,12,-94,-287,2840,6244,4980,1745224226350682844
9250528,20,-100,-292,2678,6170,4827,1745224226350682844
9250720,17,-98,-291,2531,6130,4718,1745224226350682844
9250912,13,-88,-276,2500,6128,4685,1745224226350682844
9251104,-6,-78,-254,2571,6149,4627,1745224226409285903
9251296,-43,-79,-235,2716,6055,4604,1745224226409285903
9251488,-71,-82,-219,2706,5997,4685,1745224226409285903
9251680,-96,-89,-194,2637,5948,4855,1745224226409285903
9251872,-139,-78,-168,2453,6028,4869,1745224226409285903
9252064,-187,-61,-149,2315,6128,5014,1745224226409285903
9252256,-225,-44,-141,2371,6264,5128,1745224226409285903
9252448,-250,-28,-145,2487,6348,5119,1745224226409285903
9252640,-262,-19,-151,2769,6392,5152,1745224226409285903
9252832,-259,-12,-160,2926,6483,5150,1745224226409285903
9253024,-245,-3,-173,2972,6564,5015,1745224226409285903
9253216,-209,3,-195,3005,6605,4853,1745224226409285903
9253408,-160,-3,-221,3024,6610,4845,1745224226466084134
9253600,-115,-9,-244,2980,6544,4801,1745224226466084134
9253792,-76,-19,-257,2934,6440,4871,1745224226466084134
9253984,-37,-28,-263,2856,6349,4801,1745224226466084134
9254176,-24,-35,-271,2730,6254,4634,1745224226466084134
9254368,-30,-39,-282,2627,6173,4601,1745224226466084134
9254560,-42,-34,-287,2530,6102,4565,1745224226466084134
9254752,-67,-21,-281,2430,6125,4590,1745224226466084134
9254944,-93,-4,-270,2358,6293,4581,1745224226466084134
9255136,-113,10,-260,2424,6418,4431,1745224226466084134
9255328,-125,14,-260,2586,6482,4398,1745224226466084134
9255520,-133,22,-259,2732,6481,4356,1745224226466084134
9255712,-133,17,-256,2870,6466,4489,1745224226524246155
9255904,-120,9,-255,2902,6495,4581,1745224226524246155
9256096,-103,-6,-257,2864,6514,4530,1745224226524246155
9256288,-83,-30,-263,2864,6375,4502,1745224226524246155
9256480,-66,-58,-275,2877,6106,4415,1745224226524246155
9256672,-55,-84,-286,2868,5799,4297,1745224226524246155
9256864,-46,-105,-284,2839,5582,4309,1745224226524246155
9257056,-43,-117,-272,2752,5541,4374,1745224226524246155
9257248,-58,-126,-255,2687,5655,4481,1745224226524246155
9257440,-79,-139,-237,2697,5816,4623,1745224226524246155
9257632,-104,-157,-225,2753,5997,4725,1745224226524246155
9257824,-134,-180,-221,2833,6088,4779,1745224226524246155
9258016,-166,-197,-219,2893,6126,4715,1745224226585924654
9258208,-195,-215,-219,3008,6118,4702,1745224226585924654
9258400,-212,-232,-220,3078,6110,4698,1745224226585924654
9258592,-223,-245,-226,3126,6077,4591,1745224226585924654
9258784,-218,-253,-233,3025,6076,4625,1745224226585924654
9258976,-196,-243,-232,2815,6152,4529,1745224226585924654
9259168,-181,-223,-228,2670,6240,4466,1745224226585924654
9259360,-159,-204,-229,2688,6285,4524,1745224226585924654
9259552,-128,-189,-227,2775,6294,4624,1745224226585924654
9259744,-97,-176,-216,2906,6301,4814,1745224226585924654
9259936,-73,-166,-200,2978,6325,4987,1745224226585924654
9260128,-58,-156,-185,2940,6306,5028,1745224226585924654
9260320,-53,-152,-179,2917,6227,4989,1745224226662458538
9260512,-54,-152,-179,2888,6017,4965,1745224226662458538
9260704,-56,-154,-178,2838,5859,5009,1745224226662458538
9260896,-59,-144,-170,2750,5840,4987,1745224226662458538
9261088,-69,-124,-156,2708,5970,4906,1745224226662458538
9261280,-81,-107,-146,2782,6120,4856,1745224226662458538
9261472,-85,-95,-140,2914,6180,4840,1745224226662458538
9261664,-77,-88,-129,3044,6142,4895,1745224226662458538
9261856,-62,-80,-112,3069,6117,5000,1745224226662458538
9262048,-53,-67,-98,3051,6101,5029,1745224226662458538
9262240,-43,-60,-95,3069,6024,4985,1745224226662458538
9262432,-28,-63,-102,3129,5882,5007,1745224226662458538
9262624,-17,-68,-106,3115,5771,5139,1745224226700647929
9262816,-23,-71,-103,3034,5754,5216,1745224226700647929
9263008,-33,-78,-96,2865,5827,5334,1745224226700647929
9263200,-44,-87,-94,2679,5936,5328,1745224226700647929
9263392,-69,-87,-97,2524,6024,5246,1745224226700647929
9263584,-100,-80,-94,2504,6113,5214,1745224226700647929
9263776,-126,-58,-88,2526,6274,5166,1745224226700647929
9263968,-149,-30,-78,2625,6528,5110,1745224226700647929
9264160,-161,-1,-68,2708,6753,5064,1745224226700647929
9264352,-147,22,-63,2816,6943,4906,1745224226700647929
9264544,-117,33,-65,2945,6974,4821,1745224226700647929
9264736,-75,39,-77,3040,6908,4782,1745224226700647929
9264928,-31,40,-88,3063,6765,4800,1745224226760405247
9265120,15,38,-97,3007,6675,4847,1745224226760405247
9265312,48,39,-104,2844,6552,4842,1745224226760405247
9265504,68,34,-113,2694,6414,4884,1745224226760405247
9265696,78,30,-118,2599,6248,4892,1745224226760405247
9265888,69,27,-120,2552,6096,4936,1745224226760405247
9266080,42,27,-120,2505,6013,4951,1745224226760405247
9266272,4,32,-117,2454,6011,4927,1745224226760405247
9266464,-33,38,-111,2425,6083,4976,1745224226760405247
9266656,-65,47,-103,2445,6215,4963,1745224226760405247
9266848,-94,54,-99,2479,6365,4992,1745224226760405247
9267040,-109,59,-95,2525,6486,4964,1745224226760405247
9267232,-115,61,-94,2592,6534,4848,1745224226819099243
9267424,-107,62,-97,2635,6496,4764,1745224226819099243
9267616,-83,64,-107,2670,6396,4688,1745224226819099243
9267808,-49,66,-115,2660,6290,4678,1745224226819099243
9268000,-19,73,-117,2620,6210,4660,1745224226819099243
9268192,0,86,-111,2597,6165,4679,1745224226819099243
9268384,14,97,-103,2624,6162,4780,1745224226819099243
9268576,24,97,-97,2700,6168,4905,1745224226819099243
9268768,12,92,-94,2769,6198,5003,1745224226819099243
9268960,-10,82,-91,2807,6202,5108,1745224226819099243
9269152,-34,67,-89,2777,6200,5175,1745224226819099243
9269344,-59,52,-89,2701,6197,5278,1745224226819099243
9269536,-80,36,-90,2599,6155,5370,1745224226872515213
9269728,-101,24,-96,2448,6097,5375,1745224226872515213
9269920,-118,24,-104,2321,6013,5352,1745224226872515213
9270112,-122,40,-110,2250,5962,5266,1745224226872515213
9270304,-116,61,-114,2272,5966,5174,1745224226872515213
9270496,-104,82,-116,2327,5983,5106,1745224226872515213
9270688,-91,105,-112,2371,6090,5000,1745224226872515213
9270880,-73,120,-101,2323,6225,5007,1745224226872515213
9271072,-47,134,-89,2256,6407,5034,1745224226872515213
9271264,-26,146,-80,2173,6534,5001,1745224226872515213
9271456,-9,153,-78,2159,6562,5011,1745224226872515213
9271648,9,158,-75,2232,6512,5029,1745224226872515213
9271840,16,162,-70,2347,6439,4984,1745224226933091066
9272032,15,162,-62,2484,6364,4978,1745224226933091066
9272224,12,156,-59,2572,6340,5024,1745224226933091066
9272416,-1,142,-62,2565,6388,5085,1745224226933091066
9272608,-21,126,-70,2459,6446,5056,1745224226933091066
9272800,-46,112,-82,2358,6503,4922,1745224226933091066
9272992,-71,96,-99,2371,6499,4814,1745224226933091066
9273184,-95,76,-121,2438,6439,4822,1745224226933091066
9273376,-113,59,-137,2428,6427,4874,1745224226933091066
9273568,-134,49,-145,2369,6489,4852,1745224226933091066
9273760,-150,42,-152,2279,6593,4870,1745224226933091066
9273952,-159,40,-159,2143,6676,4786,1745224226933091066
9274144,-164,41,-165,2062,6712,4691,1745224226989488884
9274336,-160,49,-165,2074,6676,4570,1745224226989488884
9274528,-147,56,-160,2145,6583,4438,1745224226989488884
9274720,-119,55,-153,2235,6438,4468,1745224226989488884
9274912,-83,51,-147,2259,6332,4509,1745224226989488884
9275104,-56,47,-137,2229,6213,4560,1745224226989488884
9275296,-31,37,-126,2154,6113,4613,1745224226989488884
9275488,-15,24,-117,2065,6033,4657,1745224226989488884
9275680,-13,18,-110,1993,5999,4760,1745224226989488884
9275872,-28,17,-102,1983,6003,4800,1745224226989488884
9276064,-51,13,-95,2059,5948,4859,1745224226989488884
9276256,-66,4,-96,2149,5894,4832,1745224226989488884
9276448,-69,-4,-101,2161,5842,4776,1745224227049451930
9276640,-62,-9,-104,2161,5858,4794,1745224227049451930
9276832,-48,-11,-105,2122,5927,4821,1745224227049451930
9277024,-41,-8,-108,2061,6015,4755,1745224227049451930
9277216,-29,-4,-113,2049,6038,4736,1745224227049451930
9277408,-7,-4,-112,2115,6062,4729,1745224227049451930
9277600,14,-10,-105,2200,6079,4846,1745224227049451930
9277792,21,-15,-98,2170,6141,4860,1745224227049451930
9277984,17,-20,-94,2102,6136,4914,1745224227049451930
9278176,17,-34,-93,2039,6119,5136,1745224227049451930
9278368,12,-36,-89,1890,6137,5215,1745224227049451930
9278560,-4,-30,-78,1807,6107,5192,1745224227049451930
9278752,-19,-20,-67,1814,6056,5111,1745224227106420732
9278944,-29,-11,-59,1942,5991,4999,1745224227106420732
9279136,-35,-11,-48,2110,5908,5021,1745224227106420732
9279328,-31,-10,-31,2136,5956,5040,1745224227106420732
9279520,-24,-5,-8,2068,6103,4999,1745224227106420732
9279712,-19,-5,12,2010,6251,5110,1745224227106420732
9279904,-17,-9,17,1968,6355,5217,1745224227106420732
9280096,-16,-17,21,1975,6382,5322,1745224227106420732
9280288,-18,-23,29,2023,6363,5354,1745224227106420732
9280480,-28,-24,37,2095,6315,5312,1745224227106420732
9280672,-40,-25,37,2154,6284,5300,1745224227106420732
9280864,-47,-22,29,2178,6302,5324,1745224227106420732
9281056,-53,-20,19,2197,6377,5362,1745224227166786535
9281248,-61,-24,7,2211,6408,5381,1745224227166786535
9281440,-69,-38,-9,2213,6405,5496,1745224227166786535
9281632,-69,-50,-26,2112,6408,5548,1745224227166786535
9281824,-74,-50,-38,1949,6425,5464,1745224227166786535
9282016,-81,-40,-48,1772,6458,5374,1745224227166786535
9282208,-86,-21,-56,1715,6470,5207,1745224227166786535
9282400,-88,-1,-64,1759,6464,5087,1745224227166786535
9282592,-75,21,-65,1891,6469,5031,1745224227166786535
9282784,-54,43,-59,2056,6521,4950,1745224227166786535
9282976,-34,53,-54,2190,6565,4953,1745224227166786535
9283168,-11,58,-51,2154,6572,4983,1745224227166786535
9283360,16,58,-47,2060,6564,4944,1745224227231387091
9283552,41,59,-43,1981,6457,4883,1745224227231387091
9283744,57,58,-40,1970,6297,4890,1745224227231387091
9283936,63,58,-35,2039,6115,4867,1745224227231387091
9284128,57,58,-28,2141,5994,4899,1745224227231387091
9284320,41,61,-21,2194,5955,4926,1745224227231387091
9284512,18,63,-14,2174,6062,4972,1745224227231387091
9284704,-6,64,-14,2157,6132,4932,1745224227231387091
9284896,-23,56,-22,2163,6156,4890,1745224227231387091
9285088,-30,43,-32,2210,6116,4862,1745224227231387091
9285280,-34,35,-38,2278,6009,4741,1745224227231387091
9285472,-39,32,-40,2306,5940,4698,1745224227231387091
9285664,-39,39,-40,2295,5978,4654,1745224227287374131
9286048,-34,46,-33,2208,6328,4758,1745224227287374131
9286240,-28,45,-33,2155,6506,4802,1745224227287374131
9286432,-10,37,-34,2156,6599,4867,1745224227287374131
9286624,14,26,-33,2210,6609,4886,1745224227287374131
9286816,35,9,-31,2246,6531,4964,1745224227287374131
9287008,56,-4,-28,2198,6417,4945,1745224227287374131
9287200,78,-8,-15,2070,6325,4842,1745224227287374131
9287392,100,-2,-1,1908,6267,4742,1745224227287374131
9287584,121,11,13,1869,6222,4635,1745224227287374131
9287776,136,18,25,1923,6219,4662,1745224227287374131
9287968,145,26,39,2007,6243,4712,1745224227287374131
9288160,144,30,55,2124,6313,4742,1745224227346987181
9288352,141,25,68,2245,6318,4885,1745224227346987181
9288544,131,15,73,2323,6310,4962,1745224227346987181
9288736,112,1,73,2397,6236,5023,1745224227346987181
9288928,94,-17,68,2471,6161,5129,1745224227346987181
9289120,72,-33,61,2506,6121,5186,1745224227346987181
9289312,39,-50,53,2521,6149,5259,1745224227346987181
9289504,1,-71,41,2521,6112,5294,1745224227346987181
9289696,-29,-92,28,2494,6027,5318,1745224227346987181
9289888,-44,-105,19,2365,6019,5294,1745224227346987181
9290080,-50,-99,18,2122,6126,5283,1745224227346987181
9290272,-50,-84,20,1919,6305,5212,1745224227346987181
9290464,-45,-62,25,1831,6462,5145,1745224227404483999
9290656,-29,-38,28,1892,6549,5080,1745224227404483999
9290848,-2,-15,35,2013,6564,5070,1745224227404483999
9291040,35,3,44,2139,6530,5145,1745224227404483999
9291232,65,22,50,2158,6472,5245,1745224227404483999
9291424,84,41,54,2101,6441,5357,1745224227404483999
9291616,100,64,56,1971,6481,5451,1745224227404483999
9291808,109,89,57,1908,6502,5419,1745224227404483999
9292000,108,106,51,1979,6444,5401,1745224227404483999
9292192,105,117,40,2088,6324,5348,1745224227404483999
9292384,103,124,31,2177,6237,5378,1745224227404483999
9292576,86,134,27,2187,6067,5373,1745224227404483999
9292768,61,152,25,2094,6187,5400,1745224227479320816
9292960,47,165,17,2051,6376,5398,1745224227479320816
9293152,29,169,2,2120,6493,5411,1745224227479320816
9293344,20,168,-15,2202,6602,5461,1745224227479320816
9293536,11,170,-24,2272,6592,5391,1745224227479320816
9293728,-4,171,-25,2318,6527,5425,1745224227479320816
9293920,-11,182,-23,2284,6517,5496,1745224227479320816
9294112,-20,201,-19,2226,6534,5421,1745224227479320816
9294304,-25,213,-19,2209,6492,5354,1745224227479320816
9294496,-12,221,-26,2217,6413,5301,1745224227479320816
9294688,10,229,-26,2221,6308,5224,1745224227479320816
9294880,32,235,-14,2194,6186,5222,1745224227479320816
9295072,57,242,5,2134,6084,5170,1745224227525868880
9295264,77,242,26,2088,6002,5218,1745224227525868880
9295456,94,244,45,1962,6010,5230,1745224227525868880
9295648,99,247,67,1928,5998,5152,1745224227525868880
9295840,93,249,90,1949,6043,5181,1745224227525868880
9296032,78,256,109,2024,6092,5107,1745224227525868880
9296224,58,254,122,2174,6093,5080,1745224227525868880
9296416,47,243,127,2304,6052,5115,1745224227525868880
9296608,46,234,127,2322,6078,5111,1745224227525868880
9296800,47,228,130,2319,6100,5050,1745224227525868880
9296992,45,219,129,2331,6132,4979,1745224227525868880
9297184,47,204,123,2391,6115,4941,1745224227525868880
9297376,52,188,116,2414,6126,4922,1745224227580711348
9297568,57,170,115,2322,6201,4982,1745224227580711348
9297760,62,161,119,2180,6310,4889,1745224227580711348
9297952,62,160,123,1935,6389,4777,1745224227580711348
9298144,64,166,126,1910,6381,4643,1745224227580711348
9298336,71,167,135,2011,6325,4627,1745224227580711348
9298528,79,166,153,2168,6274,4657,1745224227580711348
9298720,85,161,176,2236,6290,4698,1745224227580711348
9298912,91,154,197,2202,6348,4736,1745224227580711348
9299104,97,150,212,2124,6421,4756,1745224227580711348
9299296,96,141,222,2106,6398,4791,1745224227580711348
9299488,92,129,228,2167,6324,4884,1745224227580711348
9299680,82,117,232,2252,6254,4978,1745224227641140848
9299872,62,107,229,2292,6204,5020,1745224227641140848
9300064,43,101,219,2275,6164,5064,1745224227641140848
9300256,27,95,203,2269,6150,5112,1745224227641140848
9300448,9,92,190,2246,6168,5171,1745224227641140848
9300640,-9,98,182,2264,6226,5193,1745224227641140848
9300832,-16,110,181,2290,6321,5246,1745224227641140848
9301024,-16,129,185,2331,6412,5178,1745224227641140848
9301216,-9,150,186,2405,6381,5113,1745224227641140848
9301408,14,166,187,2505,6287,5106,1745224227641140848
9301600,45,173,191,2643,6132,5174,1745224227641140848
9301792,72,175,203,2683,6055,5417,1745224227641140848
9301984,83,184,218,2579,5990,5472,1745224227704248605
9302176,78,196,234,2439,5919,5473,1745224227704248605
9302368,72,211,248,2346,5847,5417,1745224227704248605
9302560,66,228,260,2273,5807,5422,1745224227704248605
9302752,55,248,278,2309,5757,5501,1745224227704248605
9302944,39,276,300,2365,5752,5478,1745224227704248605
9303136,29,305,323,2479,5745,5431,1745224227704248605
9303328,30,327,341,2614,5749,5521,1745224227704248605
9303520,36,341,351,2701,5725,5607,1745224227704248605
9303712,48,355,366,2646,5725,5624,1745224227704248605
9303904,64,376,386,2519,5707,5523,1745224227704248605
9304096,76,407,405,2375,5648,5375,1745224227704248605
9304288,91,452,421,2345,5572,5177,1745224227760138875
9304480,111,500,437,2457,5541,5057,1745224227760138875
9304672,130,544,449,2684,5559,5050,1745224227760138875
9304864,151,579,469,2897,5662,5183,1745224227760138875
9305056,173,614,496,2978,5812,5111,1745224227760138875
9305248,202,647,525,3012,6015,4915,1745224227760138875
9305440,245,663,540,3103,6168,4784,1745224227760138875
9305632,290,657,543,3228,6251,4764,1745224227760138875
9305824,320,628,545,3387,6292,4847,1745224227760138875
9306016,328,585,549,3428,6196,4848,1745224227760138875
9306208,320,536,550,3281,6109,4810,1745224227760138875
9306400,301,498,549,2914,6110,4775,1745224227760138875
9306592,261,471,545,2519,6233,4684,1745224227821604251
9306784,200,456,540,2230,6401,4544,1745224227821604251
9306976,140,441,533,2147,6563,4543,1745224227821604251
9307168,80,425,523,2176,6782,4472,1745224227821604251
9307360,19,410,515,2241,6971,4350,1745224227821604251
9307552,-19,396,511,2278,7115,4156,1745224227821604251
9307744,-28,376,504,2250,7259,4084,1745224227821604251
9307936,-9,353,493,2100,7442,4195,1745224227821604251
9308128,24,337,485,1835,7686,4176,1745224227821604251
9308320,62,321,476,1649,7826,4135,1745224227821604251
9308512,104,302,454,1601,7830,4055,1745224227821604251
9308704,141,275,430,1693,7710,4093,1745224227821604251
9308896,168,243,416,1759,7513,4163,1745224227881863388
9309088,187,210,403,1745,7365,4250,1745224227881863388
9309280,189,176,384,1622,7295,4397,1745224227881863388
9309472,169,148,360,1405,7221,4471,1745224227881863388
9309664,138,128,335,1242,7138,4472,1745224227881863388
9309856,105,112,306,1209,7043,4453,1745224227881863388
9310048,69,96,273,1231,7027,4495,1745224227881863388
9310240,29,82,242,1275,7099,4566,1745224227881863388
9310432,-8,64,212,1341,7195,4659,1745224227881863388
9310624,-27,34,183,1440,7244,4804,1745224227881863388
9310816,-39,1,149,1506,7213,4834,1745224227881863388
9311008,-47,-32,118,1509,7122,4891,1745224227881863388
9311200,-47,-57,94,1471,6997,4901,1745224227930309404
9311392,-47,-71,68,1383,6902,4830,1745224227930309404
9311584,-45,-79,42,1325,6774,4889,1745224227930309404
9311776,-36,-82,19,1253,6694,5043,1745224227930309404
9311968,-37,-75,3,1216,6610,5084,1745224227930309404
9312160,-42,-66,-11,1275,6489,5139,1745224227930309404
9312352,-40,-53,-28,1400,6302,5182,1745224227930309404
9312544,-35,-37,-38,1559,6105,5220,1745224227930309404
9312736,-28,-21,-37,1670,5953,5244,1745224227930309404
9312928,-15,-9,-32,1758,5888,5373,1745224227930309404
9313120,-6,-4,-32,1751,5924,5627,1745224227930309404
9313312,-5,3,-36,1673,5994,5703,1745224227930309404
9313504,-4,9,-41,1592,6010,5841,1745224227996997389
9313696,-1,14,-52,1657,5924,5837,1745224227996997389
9313888,-5,14,-70,1782,5769,5871,1745224227996997389
9314080,-7,19,-86,1824,5660,5886,1745224227996997389
9314272,-6,28,-94,1877,5600,5885,1745224227996997389
9314464,-8,29,-99,1978,5609,6003,1745224227996997389
9314656,-16,29,-105,2023,5621,5957,1745224227996997389
9314848,-24,32,-107,1977,5647,5857,1745224227996997389
9315040,-26,48,-101,1856,5716,5627,1745224227996997389
9315232,-32,69,-91,1828,5805,5449,1745224227996997389
9315424,-41,86,-79,1886,5880,5368,1745224227996997389
9315616,-51,100,-67,1948,5954,5429,1745224227996997389
9315808,-61,111,-49,1950,6040,5445,1745224228052099906
9316000,-73,122,-32,1929,6115,5432,1745224228052099906
9316192,-83,132,-20,1944,6142,5450,1745224228052099906
9316384,-92,147,-9,1986,6129,5439,1745224228052099906
9316576,-97,163,2,2057,6142,5397,1745224228052099906
9316768,-88,179,10,2173,6175,5315,1745224228052099906
9316960,-75,185,7,2311,6200,5173,1745224228052099906
9317152,-62,178,-4,2464,6144,5116,1745224228052099906
9317344,-51,163,-13,2576,6085,5118,1745224228052099906
9317536,-49,149,-18,2569,6025,5035,1745224228052099906
9317728,-49,136,-18,2465,5994,4931,1745224228052099906
9317920,-51,119,-21,2407,5991,4891,1745224228052099906
9318112,-61,101,-26,2386,5951,4999,1745224228113743770
9318304,-89,86,-27,2363,5883,4991,1745224228113743770
9318496,-127,75,-23,2333,5800,5021,1745224228113743770
9318688,-157,74,-16,2257,5758,4943,1745224228113743770
9318880,-181,81,-10,2169,5785,4827,1745224228113743770
9319072,-198,93,-5,2125,5888,4792,1745224228113743770
9319264,-202,106,3,2174,6065,4835,1745224228113743770
9319456,-200,117,15,2302,6223,4854,1745224228113743770
9319648,-189,123,27,2448,6338,4859,1745224228113743770
9319840,-166,122,40,2582,6392,4885,1745224228113743770
9320032,-136,114,50,2626,6342,4877,1745224228113743770
9320224,-99,99,60,2619,6207,4993,1745224228113743770
9320416,-61,82,72,2533,6066,5140,1745224228170525439
9320608,-41,71,87,2392,5919,5240,1745224228170525439
9320800,-35,67,101,2289,5808,5352,1745224228170525439
9320992,-45,68,108,2227,5749,5477,1745224228170525439
9321184,-72,69,111,2272,5696,5513,1745224228170525439
9321376,-106,66,110,2382,5686,5558,1745224228170525439
9321568,-137,60,112,2497,5748,5655,1745224228170525439
9321760,-163,55,116,2537,5886,5647,1745224228170525439
9321952,-175,51,118,2561,6035,5623,1745224228170525439
9322144,-175,44,115,2635,6106,5532,1745224228170525439
9322336,-165,36,108,2756,6056,5434,1745224228170525439
9322528,-144,27,107,2855,5953,5395,1745224228170525439
9322720,-124,25,116,2910,5846,5274,1745224228229720679
9322912,-106,26,129,2879,5791,5244,1745224228229720679
9323104,-90,26,140,2828,5773,5256,1745224228229720679
9323296,-85,22,152,2803,5693,5336,1745224228229720679
9323488,-89,15,163,2808,5566,5523,1745224228229720679
9323680,-102,17,175,2784,5442,5554,1745224228229720679
9323872,-119,29,187,2789,5338,5473,1745224228229720679
9324064,-131,44,190,2824,5274,5398,1745224228229720679
9324256,-145,54,191,2919,5225,5354,1745224228229720679
9324448,-166,56,198,3002,5209,5383,1745224228229720679
9324640,-181,60,215,2971,5279,5441,1745224228229720679
9324832,-191,65,238,2869,5402,5366,1745224228229720679
9325024,-198,76,255,2757,5506,5219,1745224228292125422
9325216,-198,93,264,2718,5591,5080,1745224228292125422
9325408,-184,107,274,2796,5644,5057,1745224228292125422
9325600,-163,117,291,2868,5718,5075,1745224228292125422
9325792,-146,120,311,2894,5764,5046,1745224228292125422
9325984,-128,117,333,2832,5839,5028,1745224228292125422
9326176,-108,110,351,2768,5870,5102,1745224228292125422
9326368,-102,104,363,2714,5854,5143,1745224228292125422
9326560,-105,99,370,2684,5781,5147,1745224228292125422
9326752,-106,93,370,2695,5729,5110,1745224228292125422
9326944,-111,81,360,2707,5721,5169,1745224228292125422
9327136,-131,68,346,2663,5769,5258,1745224228292125422
9327328,-162,53,336,2665,5839,5305,1745224228345783890
9327520,-192,37,329,2651,5902,5308,1745224228345783890
9327712,-219,19,318,2642,5981,5294,1745224228345783890
9327904,-243,5,305,2539,6070,5312,1745224228345783890
9328096,-256,-7,299,2437,6195,5297,1745224228345783890
9328288,-266,-19,294,2375,6308,5339,1745224228345783890
9328480,-274,-29,290,2368,6357,5350,1745224228345783890
9328672,-277,-38,292,2437,6303,5302,1745224228345783890
9328864,-273,-44,296,2497,6217,5316,1745224228345783890
9329056,-267,-43,302,2494,6190,5354,1745224228345783890
9329248,-260,-38,310,2465,6194,5438,1745224228345783890
9329440,-249,-37,316,2478,6190,5526,1745224228345783890
9329632,-242,-41,319,2527,6160,5696,1745224228404539603
9329824,-237,-38,324,2561,6069,5823,1745224228404539603
9330016,-235,-31,332,2659,5916,5826,1745224228404539603
9330208,-231,-24,332,2802,5693,5838,1745224228404539603
9330400,-223,-21,327,2946,5487,5907,1745224228404539603
9330592,-214,-17,329,3020,5378,6027,1745224228404539603
9330784,-211,-12,341,3100,5316,6064,1745224228404539603
9330976,-214,-12,352,3171,5252,6149,1745224228404539603
9331168,-220,-16,355,3237,5187,6272,1745224228404539603
9331360,-235,-24,355,3244,5069,6380,1745224228404539603
9331552,-259,-26,362,3170,5016,6549,1745224228404539603
9331744,-289,-18,375,3087,4997,6605,1745224228404539603
9331936,-321,-4,383,3085,4945,6579,1745224228457754117
9332128,-346,16,389,3165,4860,6544,1745224228457754117
9332320,-360,38,395,3360,4772,6569,1745224228457754117
9332512,-369,60,403,3587,4704,6565,1745224228457754117
9332704,-376,82,418,3758,4637,6547,1745224228457754117
9332896,-380,110,442,3900,4591,6481,1745224228457754117
9333088,-380,143,465,4028,4510,6397,1745224228457754117
9333280,-374,180,489,4193,4442,6354,1745224228457754117
9333472,-363,219,520,4427,4361,6332,1745224228457754117
9333664,-356,262,556,4709,4266,6231,1745224228457754117
9333856,-348,298,592,5058,4121,6151,1745224228457754117
9334048,-331,324,631,5356,3968,6083,1745224228457754117
9334240,-311,346,674,5601,3805,5971,1745224228516275978
9334432,-295,362,716,5862,3659,5796,1745224228516275978
9334624,-289,376,763,6109,3433,5637,1745224228516275978
9334816,-287,391,820,6372,3240,5373,1745224228516275978
9335008,-292,401,878,6704,3051,5176,1745224228516275978
9335200,-301,403,936,7031,2894,5103,1745224228516275978
9335392,-313,397,996,7350,2770,4957,1745224228516275978
9335584,-330,382,1056,7682,2619,4752,1745224228516275978
9335776,-342,357,1114,7966,2466,4644,1745224228516275978
9335968,-358,327,1171,8242,2305,4447,1745224228516275978
9336160,-387,293,1229,8457,2155,4304,1745224228516275978
9336352,-409,267,1283,8601,2039,4121,1745224228516275978
9336544,-418,237,1339,8702,2030,3908,1745224228580748150
9336736,-418,196,1419,8917,2000,3753,1745224228580748150
9336928,-405,154,1505,9046,1986,3611,1745224228580748150
9337120,-386,107,1597,9052,2030,3535,1745224228580748150
9337312,-365,65,1699,8962,2165,3466,1745224228580748150
9337504,-340,29,1803,8841,2165,3224,1745224228580748150
9337696,-304,3,1925,8809,2168,2888,1745224228580748150
9337888,-259,-18,2030,8847,2092,2424,1745224228580748150
9338080,-208,-32,2134,8956,1890,1943,1745224228580748150
9338272,-149,-46,2252,9129,1602,1415,1745224228580748150
9338464,-88,-56,2377,9262,1307,818,1745224228580748150
9338656,-23,-68,2509,9337,1041,209,1745224228580748150
9338848,52,-84,2643,9403,809,-521,1745224228638967306
9339040,129,-106,2778,9520,599,-1128,1745224228638967306
9339232,200,-133,2924,9637,451,-1571,1745224228638967306
9339424,258,-170,3086,9817,377,-1808,1745224228638967306
9339616,302,-229,3253,10072,349,-1983,1745224228638967306
9339808,338,-316,3402,10375,396,-2185,1745224228638967306
9340000,356,-427,3523,10674,554,-2168,1745224228638967306
9340192,342,-545,3636,10849,876,-1736,1745224228638967306
9340384,278,-670,3757,10997,1278,-1411,1745224228638967306
9340576,176,-814,3871,11219,1631,-1469,1745224228638967306
9340768,92,-969,3955,11526,1960,-1602,1745224228638967306
9340960,41,-1125,4006,11818,2374,-1435,1745224228638967306
9341152,-21,-1278,4037,11976,2917,-660,1745224228700037373
9341344,-123,-1420,4059,11995,3523,44,1745224228700037373
9341536,-259,-1560,4080,12099,4091,310,1745224228700037373
9341728,-367,-1697,4091,12322,4671,336,1745224228700037373
9341920,-416,-1835,4072,12540,5219,242,1745224228700037373
9342112,-429,-1979,4027,12674,5717,120,1745224228700037373
9342304,-421,-2121,3980,12747,6018,-136,1745224228700037373
9342496,-413,-2271,3922,12666,6136,-293,1745224228700037373
9342688,-367,-2355,3876,12397,6265,-1150,1745224228700037373
9342880,-284,-2424,3879,12173,6705,-1176,1745224228700037373
9343072,-213,-2469,3863,12056,7125,-1466,1745224228700037373
9343264,-112,-2538,3813,11994,7686,-1520,1745224228700037373
9343456,13,-2629,3754,12109,8319,-1607,1745224228753713705
9343648,157,-2759,3692,12340,8762,-1702,1745224228753713705
9343840,309,-2904,3603,12383,9075,-1781,1745224228753713705
9344032,455,-3070,3528,12292,9248,-1825,1745224228753713705
9344224,583,-3237,3482,12063,9204,-1748,1745224228753713705
9344416,685,-3400,3451,11871,9047,-1779,1745224228753713705
9344608,761,-3557,3416,11670,8807,-1725,1745224228753713705
9344800,809,-3691,3376,11548,8464,-1589,1745224228753713705
9344992,830,-3815,3344,11543,8234,-1529,1745224228753713705
9345184,835,-3937,3303,11720,8027,-1357,1745224228753713705
9345376,845,-4062,3248,12013,7748,-1341,1745224228753713705
9345568,870,-4208,3182,12317,7516,-1379,1745224228753713705
9345760,908,-4358,3110,12449,7354,-1441,1745224228820422315
9345952,955,-4495,3037,12437,7259,-1552,1745224228820422315
9346144,1007,-4617,2961,12292,7261,-1693,1745224228820422315
9346336,1055,-4730,2887,12222,7319,-1811,1745224228820422315
9346528,1096,-4835,2815,12245,7333,-1887,1745224228820422315
9346720,1135,-4947,2742,12346,7291,-1835,1745224228820422315
9346912,1160,-5065,2659,12506,7142,-1741,1745224228820422315
9347104,1156,-5193,2568,12597,6947,-1580,1745224228820422315
9347296,1119,-5334,2474,12682,6704,-1428,1745224228820422315
9347488,1051,-5497,2362,12799,6455,-1269,1745224228820422315
9347680,957,-5675,2219,12896,6264,-1115,1745224228820422315
9347872,827,-5853,2044,12986,6124,-1039,1745224228820422315
9348064,638,-6031,1840,13019,6024,-1141,1745224228871513723
9348256,367,-6195,1613,12922,5897,-1370,1745224228871513723
9348448,29,-6327,1393,12583,5818,-2357,1745224228871513723
9348640,-330,-6414,1201,12348,5947,-2142,1745224228871513723
9348832,-699,-6508,983,12253,6309,-2410,1745224228871513723
9349024,-1110,-6559,740,12267,6821,-2446,1745224228871513723
9349216,-1504,-6568,512,12307,7459,-2142,1745224228871513723
9349408,-1823,-6563,312,12355,8261,-2200,1745224228871513723
9349600,-2061,-6560,110,12295,9183,-2186,1745224228871513723
9349792,-2223,-6569,-107,12205,9994,-2049,1745224228871513723
9349984,-2288,-6588,-333,12053,10666,-2019,1745224228871513723
9350176,-2290,-6592,-552,11991,11116,-2180,1745224228871513723
9350368,-2230,-6576,-738,11956,11397,-2158,1745224228930791931
9350560,-2088,-6516,-898,11845,11715,-2062,1745224228930791931
9350752,-1852,-6416,-1043,11687,11950,-2034,1745224228930791931
9350944,-1558,-6298,-1179,11420,12050,-2134,1745224228930791931
9351136,-1255,-6186,-1306,11118,11886,-2372,1745224228930791931
9351328,-978,-6062,-1406,10823,11354,-2474,1745224228930791931
9351520,-749,-5906,-1468,10523,10604,-2504,1745224228930791931
9351712,-566,-5735,-1523,10260,9691,-2526,1745224228930791931
9351904,-438,-5553,-1598,9832,8745,-2525,1745224228930791931
9352096,-347,-5348,-1672,9394,7900,-2540,1745224228930791931
9352288,-299,-5125,-1741,9126,7146,-2459,1745224228930791931
9352480,-295,-4889,-1815,9000,6517,-2242,1745224228930791931
9352672,-310,-4645,-1887,9005,6011,-1981,1745224228990110556
9352864,-328,-4395,-1948,8982,5646,-1558,1745224228990110556
9353056,-325,-4143,-1990,8992,5378,-1084,1745224228990110556
9353248,-302,-3910,-2020,9027,5144,-618,1745224228990110556
9353440,-280,-3702,-2050,8952,4765,-379,1745224228990110556
9353632,-250,-3516,-2062,8786,4228,-88,1745224228990110556
9353824,-202,-3348,-2057,8549,3652,32,1745224228990110556
9354016,-148,-3184,-2044,8216,3052,-9,1745224228990110556
9354208,-91,-3013,-2012,7781,2519,-206,1745224228990110556
9354400,-49,-2829,-1966,7351,2029,-449,1745224228990110556
9354592,-27,-2621,-1907,6751,1531,-809,1745224228990110556
9354784,-7,-2379,-1830,6292,1120,-1046,1745224228990110556
9354976,13,-2117,-1763,5998,768,-1217,1745224229046332907
9355168,25,-1838,-1713,5911,395,-1356,1745224229046332907
9355360,22,-1559,-1672,6006,42,-1476,1745224229046332907
9355552,20,-1278,-1639,6227,-321,-1579,1745224229046332907
9355744,23,-1003,-1609,6486,-565,-1541,1745224229046332907
9355936,31,-733,-1582,6752,-739,-1665,1745224229046332907
9356128,29,-471,-1555,7006,-818,-1893,1745224229046332907
9356320,31,-223,-1517,7434,-798,-2174,1745224229046332907
9356512,75,-7,-1467,7988,-680,-2407,1745224229046332907
9356704,178,175,-1406,8568,-504,-2648,1745224229046332907
9356896,318,317,-1344,9063,-405,-2970,1745224229046332907
9357088,482,421,-1283,9433,-465,-3328,1745224229046332907
9357280,657,496,-1219,9635,-664,-3688,1745224229109463424
9357472,813,552,-1155,9682,-1037,-3935,1745224229109463424
9357664,944,598,-1093,9587,-1418,-4117,1745224229109463424
9357856,1051,641,-1046,9457,-1777,-4309,1745224229109463424
9358048,1121,671,-1014,9311,-2165,-4458,1745224229109463424
9358240,1154,704,-1007,9183,-2600,-4665,1745224229109463424
9358432,1144,728,-1006,9060,-2977,-4675,1745224229109463424
9358624,1097,742,-1003,8947,-3348,-4722,1745224229109463424
9358816,1029,759,-989,8736,-3527,-4791,1745224229109463424
9359008,955,770,-954,8599,-3559,-4846,1745224229109463424
9359200,884,769,-915,8563,-3546,-4932,1745224229109463424
9359392,827,762,-884,8505,-3485,-4965,1745224229109463424
9359584,797,745,-876,8281,-3364,-4995,1745224229162746583
9359776,781,736,-853,8102,-3192,-4968,1745224229162746583
9359968,779,705,-805,8022,-3022,-4949,1745224229162746583
9360160,784,668,-750,8093,-2928,-4889,1745224229162746583
9360352,800,611,-690,8216,-2862,-5030,1745224229162746583
9360544,830,555,-632,8280,-3010,-5128,1745224229162746583
9360736,865,502,-621,8037,-3221,-5417,1745224229162746583
9360928,887,457,-597,7682,-3292,-5836,1745224229162746583
9361120,890,399,-566,7399,-3167,-5523,1745224229162746583
9361312,860,366,-546,7130,-3166,-5695,1745224229162746583
9361504,800,340,-579,6698,-3340,-6237,1745224229162746583
9361696,774,326,-655,6452,-2673,-4979,1745224229162746583
9361888,877,424,-365,7046,-1963,-6072,1745224229223220458
9362080,952,316,-215,7977,-2950,-5790,1745224229223220458
9362272,941,329,-604,6284,-3484,-5998,1745224229223220458
9362464,925,351,-513,5613,-2976,-6001,1745224229223220458
9362656,911,433,-279,6113,-2390,-6254,1745224229223220458
9362848,910,455,-298,6490,-2083,-6275,1745224229223220458
9363040,912,449,-432,6598,-2120,-6373,1745224229223220458
9363232,879,455,-489,6636,-2326,-6380,1745224229223220458
9363424,806,495,-437,6707,-2286,-6333,1745224229223220458
9363616,724,534,-357,6828,-1972,-6356,1745224229223220458
9363808,651,555,-307,6821,-1467,-6340,1745224229223220458
9364000,591,555,-281,6881,-1101,-6380,1745224229223220458
9364192,526,542,-284,7016,-1110,-6393,1745224229281413364
9364384,443,526,-301,6980,-1251,-6336,1745224229281413364
9364576,361,532,-313,6767,-1323,-6242,1745224229281413364
9364768,284,548,-333,6610,-1284,-6144,1745224229281413364
9364960,201,555,-370,6447,-1124,-6135,1745224229281413364
9365152,119,573,-394,6385,-904,-6097,1745224229281413364
9365344,62,598,-396,6417,-607,-5977,1745224229281413364
9365536,79,616,-395,6514,-143,-5847,1745224229281413364
9365728,156,611,-371,6529,363,-5756,1745224229281413364
9365920,266,584,-326,6501,672,-5648,1745224229281413364
9366112,393,543,-281,6351,657,-5654,1745224229281413364
9366304,506,506,-238,6150,386,-5664,1745224229281413364
9366496,569,473,-200,6066,-131,-5659,1745224229340054859
9366688,577,458,-178,5875,-707,-5635,1745224229340054859
9366880,537,463,-157,5532,-1085,-5603,1745224229340054859
9367072,455,481,-141,5219,-1294,-5681,1745224229340054859
9367264,341,501,-121,5058,-1396,-5846,1745224229340054859
9367456,232,535,-107,5050,-1399,-5992,1745224229340054859
9367648,157,588,-95,5101,-1213,-6046,1745224229340054859
9367840,119,637,-89,5170,-896,-6062,1745224229340054859
9368032,100,672,-91,5155,-659,-6042,1745224229340054859
9368224,87,704,-87,5034,-558,-6021,1745224229340054859
9368416,74,745,-73,4914,-544,-6062,1745224229340054859
9368608,61,794,-71,4789,-506,-6032,1745224229340054859
9368800,54,837,-82,4785,-413,-5915,1745224229399323485
9368992,70,876,-106,4874,-239,-5730,1745224229399323485
9369184,107,924,-132,4875,-30,-5520,1745224229399323485
9369376,161,973,-153,4866,175,-5416,1745224229399323485
9369568,208,1011,-174,4819,334,-5361,1745224229399323485
9369760,245,1042,-188,4792,412,-5356,1745224229399323485
9369952,277,1072,-200,4790,393,-5397,1745224229399323485
9370144,295,1093,-205,4857,283,-5427,1745224229399323485
9370336,298,1106,-196,4940,151,-5423,1745224229399323485
9370528,288,1113,-171,5067,13,-5034,1745224229399323485
9370720,253,1095,-129,5513,-244,-5446,1745224229399323485
9370912,191,1050,-77,5329,-404,-5518,1745224229399323485
9371104,125,1009,-17,5372,-303,-5392,1745224229455392868
9371296,91,920,35,5887,65,-5384,1745224229455392868
9371488,89,819,82,6181,542,-5335,1745224229455392868
9371680,98,725,141,6050,664,-5367,1745224229455392868
9371872,79,626,196,5679,392,-5501,1745224229455392868
9372064,25,543,233,5468,27,-5632,1745224229455392868
9372256,-25,497,230,5617,-66,-5694,1745224229455392868
9372448,-49,466,192,5837,91,-5869,1745224229455392868
9372640,-72,428,144,5932,274,-6058,1745224229455392868
9372832,-105,380,107,5962,294,-6116,1745224229455392868
9373024,-154,315,71,5893,4,-6330,1745224229455392868
9373216,-255,203,5,5753,-420,-7160,1745224229455392868
9373408,-384,67,-45,6222,-206,-8521,1745224229520129152
9373600,-497,-107,-37,7446,389,-9919,1745224229520129152
9373792,-580,-325,9,8513,873,-10996,1745224229520129152
9373984,-568,-538,94,8718,1102,-11232,1745224229520129152
9374176,-463,-695,178,8020,1000,-10879,1745224229520129152
9374368,-329,-770,216,6738,579,-10015,1745224229520129152
9374560,-231,-755,211,5550,-31,-8878,1745224229520129152
9374752,-186,-677,166,4879,-694,-7944,1745224229520129152
9374944,-190,-556,92,4663,-1123,-7167,1745224229520129152
9375136,-233,-416,27,4780,-1274,-6586,1745224229520129152
9375328,-280,-298,1,5151,-1051,-6145,1745224229520129152
9375520,-296,-232,-9,5717,-747,-5864,1745224229520129152
9375712,-288,-224,-24,6158,-632,-5699,1745224229571992897
9375904,-283,-235,-35,6181,-811,-5665,1745224229571992897
9376096,-295,-236,-37,5842,-923,-5718,1745224229571992897
9376288,-329,-219,-44,5471,-801,-5930,1745224229571992897
9376480,-367,-196,-62,5268,-418,-6207,1745224229571992897
9376672,-384,-176,-86,5227,98,-6482,1745224229571992897
9376864,-380,-161,-95,5285,651,-6701,1745224229571992897
9377056,-353,-158,-91,5317,1045,-6792,1745224229571992897
9377248,-310,-173,-74,5275,1185,-6850,1745224229571992897
9377440,-257,-198,-50,5145,1138,-6938,1745224229571992897
9377632,-199,-229,-18,5061,1110,-6913,1745224229571992897
9377824,-137,-268,20,5137,1062,-6666,1745224229571992897
9378016,-61,-324,56,5371,934,-6150,1745224229632507657
9378208,42,-405,67,5621,589,-5789,1745224229632507657
9378400,123,-497,37,5394,-152,-5953,1745224229632507657
9378592,139,-557,2,4588,-895,-6655,1745224229632507657
9378784,99,-566,10,3747,-1202,-7290,1745224229632507657
9378976,53,-526,36,3392,-1038,-7644,1745224229632507657
9379168,28,-474,44,3453,-736,-7817,1745224229632507657
9379360,9,-416,33,3559,-545,-7904,1745224229632507657
9379552,10,-363,40,3687,-451,-7910,1745224229632507657
9379744,29,-342,67,3884,-516,-7714,1745224229632507657
9379936,37,-348,80,3961,-724,-7351,1745224229632507657
9380128,33,-366,77,4055,-932,-7022,1745224229632507657
9380320,36,-400,71,4329,-960,-6783,1745224229689389793
9380512,37,-458,58,4635,-880,-6657,1745224229689389793
9380704,30,-505,47,4629,-759,-6627,1745224229689389793
9380896,32,-521,54,4514,-439,-6692,1745224229689389793
9381088,66,-536,69,4622,-111,-6788,1745224229689389793
9381280,118,-555,80,4756,13,-6761,1745224229689389793
9381472,177,-553,95,4714,115,-7052,1745224229689389793
9381664,210,-556,140,4583,49,-7186,1745224229689389793
9381856,212,-519,194,4178,-228,-7208,1745224229689389793
9382048,152,-455,207,3944,-754,-7529,1745224229689389793
9382240,51,-405,208,4302,-683,-7506,1745224229689389793
9382432,-90,-410,232,4883,-175,-7668,1745224229689389793
9382624,-151,-425,284,5100,706,-7545,1745224229749451745
9382816,-43,-422,295,4864,1230,-7182,1745224229749451745
9383008,83,-420,272,4581,768,-6839,1745224229749451745
9383200,140,-414,260,4671,144,-6692,1745224229749451745
9383392,171,-401,240,4667,211,-6620,1745224229749451745
9383584,215,-396,209,4665,594,-6686,1745224229749451745
9383776,264,-423,183,4797,657,-6858,1745224229749451745
9383968,305,-461,178,4809,316,-6868,1745224229749451745
9384160,321,-481,179,4684,-139,-6928,1745224229749451745
9384352,319,-490,168,4584,-404,-6867,1745224229749451745
9384544,295,-493,145,4521,-400,-6929,1745224229749451745
9384736,252,-494,127,4509,-217,-7148,1745224229749451745
9384928,216,-493,116,4532,60,-7252,1745224229806646951
9385120,196,-494,100,4549,157,-7268,1745224229806646951
9385312,160,-508,85,4510,-119,-7086,1745224229806646951
9385504,105,-522,83,4553,-471,-7044,1745224229806646951
9385696,50,-552,78,4738,-650,-7028,1745224229806646951
9385888,-4,-599,71,4854,-837,-6791,1745224229806646951
9386080,-43,-637,71,4707,-1009,-6426,1745224229806646951
9386272,-70,-645,67,4366,-976,-6317,1745224229806646951
9386464,-103,-631,57,4147,-577,-6534,1745224229806646951
9386656,-122,-605,45,4171,-79,-6599,1745224229806646951
9386848,-121,-583,38,4163,103,-6567,1745224229806646951
9387040,-118,-557,44,4164,-116,-6773,1745224229806646951
9387232,-133,-543,61,4070,-336,-6955,1745224229866661038
9387424,-148,-526,77,3798,-457,-7025,1745224229866661038
9387616,-152,-504,81,3601,-667,-6994,1745224229866661038
9387808,-159,-480,72,3588,-948,-7228,1745224229866661038
9388000,-174,-451,72,3478,-1143,-7400,1745224229866661038
9388192,-199,-410,76,3394,-1095,-7334,1745224229866661038
9388384,-207,-359,70,3341,-778,-7241,1745224229866661038
9388576,-194,-326,51,3486,-475,-7545,1745224229866661038
9388768,-192,-324,35,3614,-281,-7829,1745224229866661038
9388960,-189,-311,34,3566,74,-7894,1745224229866661038
9389152,-159,-281,24,3505,449,-7827,1745224229866661038
9389344,-110,-243,22,3673,352,-7574,1745224229866661038
9389536,-66,-188,46,3667,-77,-7185,1745224229928858335
9389728,-43,-152,25,3199,-386,-7154,1745224229928858335
9389920,-75,-124,2,3653,-815,-7397,1745224229928858335
9390112,-164,-158,-1,4169,-1184,-7374,1745224229928858335
9390304,-188,-172,31,4053,-697,-7143,1745224229928858335
9390496,-188,-166,41,3555,-240,-6865,1745224229928858335
9390688,-175,-163,25,3651,-15,-6959,1745224229928858335
9390880,-169,-183,26,3828,144,-7019,1745224229928858335
9391072,-157,-180,39,4034,420,-7547,1745224229928858335
9391264,-131,-262,39,4506,516,-8250,1745224229928858335
9391456,-77,-348,45,3534,494,-8267,1745224229928858335
9391648,-68,-224,99,2140,464,-8113,1745224229928858335
9391840,-21,-76,78,2127,1053,-7386,1745224229981563062
9392032,57,38,43,3539,1390,-7022,1745224229981563062
9392224,122,83,101,4586,1424,-7059,1745224229981563062
9392416,180,9,94,4129,918,-7058,1745224229981563062
9392608,217,-57,81,4189,-18,-7374,1745224229981563062
9392800,195,-121,87,4349,-523,-7571,1745224229981563062
9392992,133,-178,100,4218,-342,-7843,1745224229981563062
9393184,76,-221,106,3873,68,-7940,1745224229981563062
9393376,44,-225,97,3456,387,-7720,1745224229981563062
9393568,48,-190,81,3251,539,-7449,1745224229981563062
9393760,83,-148,66,3336,446,-7394,1745224229981563062
9393952,129,-113,59,3604,163,-7477,1745224229981563062
9394144,159,-89,57,3714,-206,-7394,1745224230042021832
9394336,156,-63,60,3644,-559,-7147,1745224230042021832
9394528,127,-40,56,3613,-748,-6887,1745224230042021832
9394720,85,-36,47,3662,-694,-7103,1745224230042021832
9394912,48,-40,35,3705,-262,-7630,1745224230042021832
9395104,31,-40,18,3659,47,-7831,1745224230042021832
9395296,32,-26,5,3544,-62,-7491,1745224230042021832
9395488,36,-19,1,3596,-496,-7333,1745224230042021832
9395680,25,-16,3,3693,-878,-7347,1745224230042021832
9395872,-2,-13,3,3647,-1043,-7363,1745224230042021832
9396064,-41,8,2,3407,-1080,-7022,1745224230042021832
9396256,-79,45,0,3259,-1016,-6846,1745224230042021832
9396448,-110,80,-8,3401,-726,-7107,1745224230098935167
9396640,-121,105,-19,3628,-357,-7472,1745224230098935167
9396832,-115,130,-30,3637,-230,-7236,1745224230098935167
9397024,-101,145,-30,3590,-346,-6816,1745224230098935167
9397216,-88,158,-27,3693,-402,-6777,1745224230098935167
9397408,-70,161,-24,3944,-301,-7092,1745224230098935167
9397600,-46,161,-21,3940,-226,-7026,1745224230098935167
9397792,-19,163,-11,3774,-425,-6693,1745224230098935167
9397984,-3,163,-2,3747,-684,-6621,1745224230098935167
9398176,-3,149,1,3891,-650,-7074,1745224230098935167
9398368,-7,129,2,3892,-408,-7327,1745224230098935167
9398560,-4,109,5,3770,-269,-7203,1745224230098935167
9398752,0,88,1,3743,-182,-7290,1745224230157025001
9398944,10,62,-4,3890,-8,-7590,1745224230157025001
9399136,31,39,-10,3884,-26,-7470,1745224230157025001
9399328,55,23,-8,3718,-283,-7058,1745224230157025001
9399520,59,9,-6,3711,-507,-6865,1745224230157025001
9399712,53,-6,-5,3845,-487,-6998,1745224230157025001
9399904,42,-20,-2,3799,-392,-7181,1745224230157025001
9400096,26,-20,1,3673,-410,-7165,1745224230157025001
9400288,1,-23,3,3613,-463,-7168,1745224230157025001
9400480,-32,-24,1,3731,-323,-7296,1745224230157025001
9400672,-61,-23,-2,3800,-146,-7280,1745224230157025001
9400864,-69,-25,-4,3783,-110,-7200,1745224230157025001
9401056,-67,-33,0,3872,-117,-7364,1745224230218293243
9401248,-55,-45,3,3919,-13,-7476,1745224230218293243
9401440,-32,-41,7,3787,7,-7351,1745224230218293243
9401632,-7,-31,20,3626,-302,-6977,1745224230218293243
9401824,-5,-19,31,3681,-623,-7144,1745224230218293243
9402016,-15,-13,39,3720,-631,-7253,1745224230218293243
9402208,-5,-6,34,3517,-410,-7160,1745224230218293243
9402400,1,8,28,3433,-415,-7093,1745224230218293243
9402592,1,15,26,3582,-437,-7315,1745224230218293243
9402784,2,20,24,3712,-340,-7455,1745224230218293243
9402976,15,24,27,3656,-403,-7251,1745224230218293243
9403168,25,21,36,3690,-676,-7034,1745224230218293243
9403360,21,16,42,3749,-780,-6879,1745224230275433919
9403552,14,11,46,3869,-666,-7013,1745224230275433919
9403744,6,-23,50,3727,-512,-7344,1745224230275433919
9403936,-11,-46,57,3515,-375,-7445,1745224230275433919
9404128,-6,-45,54,3488,-217,-7195,1745224230275433919
9404320,15,-38,46,3685,-207,-7144,1745224230275433919
9404512,35,-31,50,3658,-393,-6727,1745224230275433919
9404704,46,-25,55,3747,-575,-6795,1745224230275433919
9404896,49,-12,49,3695,-511,-6833,1745224230275433919
9405088,51,-9,46,3675,-453,-7070,1745224230275433919
9405280,56,-1,39,3728,-409,-7167,1745224230275433919
9405472,57,-10,38,3857,-533,-7360,1745224230275433919
9405664,36,-17,33,3877,-381,-7526,1745224230338500999
9405856,9,-22,34,3836,-293,-7739,1745224230338500999
9406048,-13,-37,17,3803,228,-7624,1745224230338500999
9406240,-38,-35,-6,3475,399,-7469,1745224230338500999
9406432,-5,-69,-4,4149,750,-7941,1745224230338500999
9406624,61,-52,-11,3896,358,-7338,1745224230338500999
9406816,115,-82,20,3856,-381,-6837,1745224230338500999
9407008,107,-72,25,3668,-1140,-6553,1745224230338500999
9407200,80,-102,43,3816,-1213,-6865,1745224230338500999
9407392,38,-113,37,3667,-1027,-7160,1745224230338500999
9407584,0,-123,62,3779,-711,-7303,1745224230338500999
9407776,-20,-105,100,3735,-284,-7392,1745224230338500999
9407968,-3,-152,60,3216,112,-7500,1745224230390891041
9408160,50,-166,15,3591,77,-7563,1745224230390891041
9408352,101,-174,16,3814,-196,-7272,1745224230390891041
9408544,119,-185,39,3720,-559,-7236,1745224230390891041
9408736,112,-198,50,3416,-777,-7214,1745224230390891041
9408928,89,-206,46,3334,-805,-7616,1745224230390891041
9409120,64,-212,32,3115,-644,-7877,1745224230390891041
9409312,44,-197,17,3125,-336,-8124,1745224230390891041
9409504,42,-186,-2,3101,-101,-8105,1745224230390891041
9409696,50,-167,-13,3211,9,-8007,1745224230390891041
9409888,69,-153,-20,3212,69,-7871,1745224230390891041
9410080,95,-139,-19,3317,-29,-7818,1745224230390891041
9410272,125,-122,-9,3430,-236,-7618,1745224230449422590
9410464,142,-104,3,3407,-556,-7380,1745224230449422590
9410656,135,-95,22,3328,-750,-7180,1745224230449422590
9410848,111,-104,15,3218,-687,-7210,1745224230449422590
9411040,108,-97,11,3366,-408,-7441,1745224230449422590
9411232,113,-88,17,3523,-295,-7540,1745224230449422590
9411424,122,-71,26,3459,-301,-7405,1745224230449422590
9411616,130,-52,31,3329,-204,-7254,1745224230449422590
9411808,149,-31,33,3380,-96,-7305,1745224230449422590
9412000,180,-13,34,3546,-120,-7473,1745224230449422590
9412192,206,0,42,3659,-330,-7486,1745224230449422590
9412384,205,5,53,3595,-507,-7201,1745224230449422590
9412576,181,6,57,3550,-439,-7151,1745224230509560947
9412768,157,-5,59,3629,-235,-7274,1745224230509560947
9412960,156,-9,60,3760,-126,-7404,1745224230509560947
9413152,165,-2,62,3641,-134,-7307,1745224230509560947
9413344,168,3,61,3517,-185,-7174,1745224230509560947
9413536,172,18,55,3462,-207,-7007,1745224230509560947
9413728,188,24,52,3549,-346,-7073,1745224230509560947
9413920,200,29,55,3648,-503,-7115,1745224230509560947
9414112,205,32,58,3699,-710,-7015,1745224230509560947
9414304,191,26,63,3715,-876,-6925,1745224230509560947
9414496,162,18,65,3804,-851,-6902,1745224230509560947
9414688,137,5,67,3890,-719,-6878,1745224230509560947
9414880,119,-8,69,3978,-634,-6838,1745224230567581094
9415072,104,-26,69,4020,-602,-6821,1745224230567581094
9415264,90,-49,71,4072,-623,-6780,1745224230567581094
9415456,82,-72,77,4100,-666,-6694,1745224230567581094
9415648,70,-91,85,4088,-644,-6745,1745224230567581094
9415840,61,-115,93,4049,-522,-6816,1745224230567581094
9416032,64,-139,97,3956,-351,-6926,1745224230567581094
9416224,70,-156,101,3720,-442,-7018,1745224230567581094
9416416,66,-164,94,3615,-561,-7168,1745224230567581094
9416608,58,-166,80,3609,-496,-7220,1745224230567581094
9416800,47,-173,67,3709,-449,-7352,1745224230567581094
9416992,36,-182,54,3838,-306,-7414,1745224230567581094
9417184,29,-197,44,3871,-209,-7459,1745224230625700459
9417376,23,-214,38,3869,-200,-7359,1745224230625700459
9417568,19,-225,34,3872,-260,-7329,1745224230625700459
9417760,21,-235,28,3781,-420,-7372,1745224230625700459
9417952,20,-241,25,3627,-722,-7330,1745224230625700459
9418144,7,-243,20,3535,-940,-7211,1745224230625700459
9418336,-14,-243,15,3470,-984,-7158,1745224230625700459
9418528,-35,-235,11,3382,-964,-7163,1745224230625700459
9418720,-50,-231,5,3318,-905,-7236,1745224230625700459
9418912,-54,-226,-6,3285,-924,-7221,1745224230625700459
9419104,-52,-226,-15,3378,-992,-7193,1745224230625700459
9419296,-57,-230,-22,3393,-1039,-7203,1745224230625700459
9419488,-71,-243,-25,3350,-934,-7372,1745224230684462057
9419680,-78,-250,-31,3327,-787,-7453,1745224230684462057
9419872,-73,-254,-40,3264,-739,-7390,1745224230684462057
9420064,-71,-259,-44,3177,-740,-7315,1745224230684462057
9420256,-71,-261,-48,3071,-737,-7337,1745224230684462057
9420448,-72,-262,-54,2992,-683,-7443,1745224230684462057
9420640,-68,-257,-65,2989,-540,-7577,1745224230684462057
9420832,-54,-250,-75,3068,-481,-7553,1745224230684462057
9421024,-37,-248,-79,3113,-533,-7444,1745224230684462057
9421216,-33,-251,-80,3224,-625,-7391,1745224230684462057
9421408,-42,-263,-78,3229,-653,-7426,1745224230684462057
9421600,-60,-275,-74,3173,-600,-7514,1745224230684462057
9421792,-74,-282,-70,3157,-467,-7574,1745224230747564866
9421984,-76,-286,-70,3168,-388,-7568,1745224230747564866
9422176,-68,-285,-68,3139,-450,-7517,1745224230747564866
9422368,-55,-276,-60,3061,-538,-7437,1745224230747564866
9422560,-43,-261,-53,3016,-630,-7472,1745224230747564866
9422752,-28,-243,-45,2904,-799,-7522,1745224230747564866
9422944,-22,-224,-39,2835,-937,-7693,1745224230747564866
9423136,-25,-204,-37,2766,-927,-7815,1745224230747564866
9423328,-27,-183,-39,2763,-805,-7848,1745224230747564866
9423520,-22,-166,-41,2768,-748,-7764,1745224230747564866
9423712,-12,-154,-39,2863,-817,-7656,1745224230747564866
9423904,-2,-141,-34,2885,-951,-7490,1745224230747564866
9424096,-3,-127,-28,2882,-1011,-7426,1745224230799269759
9424288,-16,-111,-26,2852,-926,-7475,1745224230799269759
9424480,-26,-96,-28,2870,-696,-7654,1745224230799269759
9424672,-24,-83,-34,2671,-999,-7566,1745224230799269759
9424864,30,-77,-46,2983,-559,-7383,1745224230799269759
9425056,-50,-79,-35,3189,-329,-7614,1745224230799269759
9425248,-5,-72,3,2818,-443,-7453,1745224230799269759
9425440,34,-61,-9,2822,-695,-7229,1745224230799269759
9425632,49,-47,-8,3102,-895,-7125,1745224230799269759
9425824,36,-38,4,3022,-961,-7263,1745224230799269759
9426016,24,-31,1,2804,-891,-7505,1745224230799269759
9426208,20,-24,-8,2779,-730,-7794,1745224230799269759
9426400,12,-18,-13,2787,-601,-8101,1745224230859676394
9426592,7,-7,-17,2825,-348,-8133,1745224230859676394
9426784,30,-2,-32,2914,-141,-8044,1745224230859676394
9426976,55,2,-37,2934,-282,-7792,1745224230859676394
9427168,72,3,-32,2978,-582,-7626,1745224230859676394
9427360,81,6,-32,2890,-903,-7473,1745224230859676394
9427552,74,10,-35,2799,-1146,-7408,1745224230859676394
9427744,57,21,-41,2787,-1253,-7308,1745224230859676394
9427936,32,24,-51,2867,-1240,-7323,1745224230859676394
9428128,7,20,-56,2962,-1054,-7471,1745224230859676394
9428320,-13,16,-55,2928,-977,-7545,1745224230859676394
9428512,-11,15,-58,3091,-548,-7556,1745224230859676394
9428704,-6,12,-64,3109,-344,-7567,1745224230917888831
9428896,24,10,-52,3148,-340,-7441,1745224230917888831
9429088,61,14,-46,3176,-560,-7296,1745224230917888831
9429280,79,20,-35,3178,-894,-7201,1745224230917888831
9429472,54,35,-19,3048,-1275,-7240,1745224230917888831
9429664,28,54,-22,3064,-1012,-7258,1745224230917888831
9429856,25,72,-24,3169,-851,-7208,1745224230917888831
9430048,30,87,-17,3219,-792,-7241,1745224230917888831
9430240,19,93,-11,3172,-795,-7339,1745224230917888831
9430432,14,86,-3,3115,-642,-7439,1745224230917888831
9430624,12,77,-1,3068,-599,-7474,1745224230917888831
9430816,14,65,5,3043,-536,-7544,1745224230917888831
9431008,20,56,10,2999,-497,-7580,1745224230974974091
9431200,26,54,11,2915,-716,-7621,1745224230974974091
9431392,16,50,20,2891,-906,-7690,1745224230974974091
9431584,-15,52,12,3066,-593,-7698,1745224230974974091
9431776,-34,55,-13,3093,-256,-7752,1745224230974974091
9431968,-37,51,-20,3001,275,-7748,1745224230974974091
9432160,21,35,-2,3145,416,-7876,1745224230974974091
9432352,48,37,-27,2950,-191,-7999,1745224230974974091
9432544,65,23,12,2884,-293,-7855,1745224230974974091
9432736,81,26,-5,3154,-38,-7751,1745224230974974091
9432928,99,28,-19,3023,-250,-7580,1745224230974974091
9433120,121,20,12,2948,-601,-7652,1745224230974974091
9433312,107,22,7,2986,-780,-7588,1745224231034965522
9433504,77,21,-1,3039,-842,-7525,1745224231034965522
9433696,44,22,3,3125,-721,-7491,1745224231034965522
9433888,15,28,-8,3180,-661,-7627,1745224231034965522
9434080,-2,33,-13,3194,-467,-7780,1745224231034965522
9434272,-7,39,-14,3181,-301,-7829,1745224231034965522
9434464,-2,48,-18,3116,-281,-7669,1745224231034965522
9434656,3,50,-14,3134,-427,-7584,1745224231034965522
9434848,-3,52,-8,3080,-757,-7511,1745224231034965522
9435040,-15,57,-8,3037,-825,-7579,1745224231034965522
9435232,-23,61,-21,2898,-822,-7487,1745224231034965522
9435424,-39,62,-33,2879,-769,-7571,1745224231034965522
9435616,-53,67,-41,2906,-528,-7684,1745224231093633945
9435808,-54,58,-54,2979,-401,-7836,1745224231093633945
9436000,-40,53,-62,3045,-316,-7912,1745224231093633945
9436192,-24,42,-67,3066,-338,-7786,1745224231093633945
9436384,-9,33,-70,3099,-482,-7664,1745224231093633945
9436576,1,22,-62,3274,-570,-7547,1745224231093633945
9436768,11,22,-50,3126,-732,-7536,1745224231093633945
9436960,19,19,-42,3043,-877,-7327,1745224231093633945
9437152,4,44,-39,2903,-1110,-7124,1745224231093633945
9437344,-15,50,-49,3032,-916,-7134,1745224231093633945
9437536,-40,62,-58,3059,-783,-7381,1745224231093633945
9437728,-36,57,-67,3244,-305,-7690,1745224231093633945
9437920,-17,67,-62,3166,-208,-7649,1745224231155259215
9438112,24,49,-49,3435,86,-7391,1745224231155259215
9438304,77,38,-15,3520,-21,-7334,1745224231155259215
9438496,109,46,11,3192,-625,-7324,1745224231155259215
9438688,105,54,16,3028,-1195,-7324,1745224231155259215
9438880,72,68,11,3026,-1287,-7174,1745224231155259215
9439072,32,85,10,2978,-1089,-7063,1745224231155259215
9439264,9,106,6,3041,-765,-7159,1745224231155259215
9439456,10,115,-9,3167,-598,-7401,1745224231155259215
9439648,18,111,-17,3238,-493,-7611,1745224231155259215
9439840,9,90,-15,3328,-737,-7502,1745224231155259215
9440032,-31,52,-6,3440,-862,-7448,1745224231155259215
9440224,-54,35,15,3306,-579,-7546,1745224231208648363
9440416,-34,23,19,3287,-337,-7564,1745224231208648363
9440608,-13,-1,26,3155,-439,-7534,1745224231208648363
9440800,-2,-12,51,2953,-670,-7370,1745224231208648363
9440992,-4,23,40,2991,-743,-7416,1745224231208648363
9441184,5,70,9,3009,-632,-7343,1745224231208648363
9441376,19,79,-5,3170,-726,-7424,1745224231208648363
9441568,21,81,-10,3230,-760,-7433,1745224231208648363
9441760,19,74,-7,3190,-671,-7332,1745224231208648363
9441952,16,68,-2,3224,-688,-7231,1745224231208648363
9442144,10,64,2,3236,-838,-7293,1745224231208648363
9442336,0,58,7,3150,-950,-7421,1745224231208648363
9442528,-14,55,6,3133,-863,-7499,1745224231268927760
9442720,-22,52,8,3069,-706,-7476,1745224231268927760
9442912,-24,54,9,3112,-616,-7451,1745224231268927760
9443104,-34,52,1,3165,-571,-7597,1745224231268927760
9443296,-38,51,3,3112,-545,-7759,1745224231268927760
9443488,-34,53,1,3101,-546,-7833,1745224231268927760
9443680,-26,52,-3,3071,-572,-7799,1745224231268927760
9443872,-30,46,-1,3111,-562,-7827,1745224231268927760
9444064,-27,41,1,3030,-639,-7727,1745224231268927760
9444256,-18,46,6,3017,-796,-7654,1745224231268927760
9444448,-16,58,7,2919,-922,-7503,1745224231268927760
9444640,-17,77,6,2873,-873,-7475,1745224231268927760
9444832,-19,95,-6,2911,-704,-7581,1745224231327831961
9445024,-14,102,-19,3003,-463,-7759,1745224231327831961
9445216,7,105,-30,3089,-340,-7811,1745224231327831961
9445408,37,98,-32,3160,-333,-7731,1745224231327831961
9445600,62,91,-27,3204,-446,-7601,1745224231327831961
9445792,80,87,-17,3206,-599,-7478,1745224231327831961
9445984,94,84,-8,3140,-675,-7485,1745224231327831961
9446176,108,80,-1,3109,-626,-7407,1745224231327831961
9446368,125,71,2,3186,-484,-7434,1745224231327831961
9446560,149,67,7,3125,-394,-7459,1745224231327831961
9446752,160,62,8,3099,-339,-7560,1745224231327831961
9446944,180,66,6,3092,-355,-7614,1745224231327831961
9595744,-47,-79,53,3410,-1026,-7484,1745224235164018376
9595936,403,-173,42,2859,-2239,-7085,1745224235164018376
9596128,-147,-75,63,2999,-2037,-7365,1745224235164018376
9596320,-133,-87,45,3005,-2036,-7358,1745224235164018376
9596512,-213,-63,39,2921,-1805,-7436,1745224235164018376
9596704,-238,-9,29,2881,-1755,-7497,1745224235164018376
9596896,-256,-45,18,2966,-1500,-7698,1745224235164018376
9597088,-309,-32,4,2966,-1115,-7776,1745224235164018376
9597280,-288,-29,-4,3074,-987,-7891,1745224235164018376
9597472,-269,-59,-6,2996,-1035,-7920,1745224235164018376
9597664,-244,-36,1,3062,-967,-7891,1745224235164018376
9597856,-182,-15,1,2981,-865,-7706,1745224235164018376
9598048,-133,12,1,2971,-329,-7793,1745224235221825244
9598240,-42,58,-9,3086,168,-7875,1745224235221825244
9598432,112,93,-8,3156,559,-7923,1745224235221825244
9598624,281,135,-1,2972,463,-7879,1745224235221825244
9598816,434,172,-5,2827,-133,-7508,1745224235221825244
9599008,427,181,-24,3150,-1057,-7718,1745224235221825244
9599200,560,170,7,2886,-154,-7259,1745224235221825244
9599392,520,189,-22,2671,-1659,-7700,1745224235221825244
9599584,442,234,-59,1939,-3710,-7396,1745224235221825244
9599776,245,323,-116,2573,-3656,-7454,1745224235221825244
9599968,51,354,-138,3980,-2867,-6806,1745224235221825244
9600160,-34,164,-100,4196,-1240,-7060,1745224235221825244
9600352,-75,184,-34,3258,-676,-7013,1745224235280786997
9600544,-60,175,-54,3251,-599,-7320,1745224235280786997
9600736,-23,190,-70,3525,-578,-7304,1745224235280786997
9600928,22,186,-13,3092,-397,-7246,1745224235280786997
9601120,73,169,40,3075,-529,-7420,1745224235280786997
9601312,83,156,69,3979,-639,-7644,1745224235280786997
9601504,93,179,-7,3942,-1145,-7452,1745224235280786997
9601696,96,161,14,3413,-1481,-7142,1745224235280786997
9601888,69,153,10,3323,-1438,-7011,1745224235280786997
9602080,52,148,1,3460,-1209,-7002,1745224235280786997
9602272,39,146,2,3366,-1059,-7177,1745224235280786997
9602464,33,147,-7,3315,-907,-7285,1745224235280786997
9602656,48,143,-19,3554,-828,-7313,1745224235337813820
9602848,63,129,-24,3725,-896,-7413,1745224235337813820
9603040,53,112,-13,3492,-933,-7189,1745224235337813820
9603232,36,94,-12,3626,-917,-7267,1745224235337813820
9603424,37,78,-12,3735,-967,-7384,1745224235337813820
9603616,33,55,-10,3869,-1041,-7730,1745224235337813820
9603808,33,45,-5,3458,-1010,-7337,1745224235337813820
9604000,21,51,0,3378,-948,-6913,1745224235337813820
9604192,6,58,-1,3525,-907,-6918,1745224235337813820
9604384,1,60,1,3666,-1000,-7413,1745224235337813820
9604576,-4,55,-2,3488,-987,-7635,1745224235337813820
9604768,-7,48,-7,3492,-762,-7491,1745224235337813820
9604960,-2,36,-5,3413,-682,-7075,1745224235398894824
9605152,4,33,9,3462,-981,-6891,1745224235398894824
9605344,4,29,12,3560,-1366,-7260,1745224235398894824
9605536,-9,28,6,3377,-1464,-7528,1745224235398894824
9605728,-25,30,-2,3281,-1260,-7358,1745224235398894824
9605920,-25,32,-7,3415,-1075,-7023,1745224235398894824
9606112,-15,24,3,3701,-1251,-7102,1745224235398894824
9606304,-15,17,18,3585,-1513,-7259,1745224235398894824
9606496,-37,9,21,3442,-1390,-7400,1745224235398894824
9606688,-46,9,14,3372,-1079,-7240,1745224235398894824
9606880,-34,13,12,3601,-1111,-7130,1745224235398894824
9607072,-14,16,22,3682,-1470,-7154,1745224235398894824
9607264,-9,27,30,3568,-1796,-7133,1745224235455994772
9607456,-29,37,30,3373,-1778,-7067,1745224235455994772
9607648,-58,48,27,3258,-1460,-7029,1745224235455994772
9607840,-70,52,18,3278,-1198,-7150,1745224235455994772
9608032,-66,50,8,3230,-1218,-7348,1745224235455994772
9608224,-67,38,-4,3185,-1242,-7559,1745224235455994772
9608416,-69,23,-16,3149,-1152,-7570,1745224235455994772
9608608,-66,13,-29,3268,-1081,-7525,1745224235455994772
9608800,-63,8,-37,3355,-1047,-7536,1745224235455994772
9608992,-60,10,-46,3384,-1027,-7539,1745224235455994772
9609184,-55,20,-60,3462,-1030,-7482,1745224235455994772
9609376,-50,26,-69,3578,-1054,-7376,1745224235455994772
9609568,-45,34,-67,3652,-1149,-7219,1745224235515197668
9609760,-46,38,-57,3627,-1255,-7156,1745224235515197668
9609952,-55,38,-49,3517,-1260,-7218,1745224235515197668
9610144,-66,32,-46,3489,-1180,-7270,1745224235515197668
9610336,-72,25,-47,3471,-1091,-7169,1745224235515197668
9610528,-81,10,-43,3520,-958,-7130,1745224235515197668
9610720,-82,-6,-36,3563,-846,-7100,1745224235515197668
9610912,-69,-19,-25,3619,-910,-7028,1745224235515197668
9611104,-60,-29,-13,3610,-1076,-6957,1745224235515197668
9611296,-66,-39,0,3604,-1159,-6969,1745224235515197668
9611488,-73,-41,10,3617,-1165,-7044,1745224235515197668
9611680,-80,-40,18,3591,-1137,-7148,1745224235515197668
9611872,-85,-34,24,3556,-1097,-7219,1745224235573770258
9612064,-87,-30,25,3550,-995,-7371,1745224235573770258
9612256,-80,-25,26,3490,-943,-7540,1745224235573770258
9612448,-65,-25,31,3476,-951,-7634,1745224235573770258
9612640,-43,-17,31,3401,-1072,-7656,1745224235573770258
9612832,-31,-16,34,3352,-1174,-7405,1745224235573770258
9613024,-28,-9,36,3330,-1292,-7279,1745224235573770258
9613216,-37,4,38,3270,-1287,-6983,1745224235573770258
9613408,-45,15,42,3373,-1262,-6999,1745224235573770258
9613600,-57,24,39,3330,-1120,-7075,1745224235573770258
9613792,-64,28,44,3499,-895,-7255,1745224235573770258
9613984,-59,26,45,3481,-698,-7231,1745224235573770258
9614176,-49,22,53,3587,-597,-7328,1745224235631349003
9614368,-36,16,59,3571,-586,-7400,1745224235631349003
9614560,-27,11,59,3588,-601,-7599,1745224235631349003
9614752,-24,4,56,3558,-529,-7727,1745224235631349003
9614944,-16,0,50,3505,-481,-7754,1745224235631349003
9615136,2,0,50,3520,-585,-7651,1745224235631349003
9615328,27,2,53,3522,-920,-7456,1745224235631349003
9615520,32,5,58,3425,-1287,-7383,1745224235631349003
9615712,10,10,57,3326,-1385,-7371,1745224235631349003
9615904,-18,18,50,3271,-1206,-7328,1745224235631349003
9616096,-37,29,41,3291,-969,-7226,1745224235631349003
9616288,-37,41,36,3437,-827,-7254,1745224235631349003
9616480,-29,47,32,3518,-781,-7371,1745224235690265756
9616672,-27,41,33,3531,-765,-7548,1745224235690265756
9616864,-25,34,30,3503,-664,-7569,1745224235690265756
9617056,-12,27,30,3542,-647,-7475,1745224235690265756
9617248,6,21,38,3612,-866,-7403,1745224235690265756
9617440,20,21,48,3574,-1142,-7301,1745224235690265756
9617632,22,28,52,3529,-1359,-7250,1745224235690265756
9617824,11,39,51,3344,-1353,-7057,1745224235690265756
9618016,-4,53,51,3322,-1266,-6969,1745224235690265756
9618208,-8,68,51,3439,-1253,-6917,1745224235690265756
9618400,-7,72,53,3635,-1234,-7137,1745224235690265756
9618592,-15,63,52,3516,-1092,-7258,1745224235690265756
9618784,-27,50,50,3382,-879,-7294,1745224235749166937
9618976,-31,37,42,3425,-659,-7306,1745224235749166937
9619168,-15,23,39,3637,-750,-7483,1745224235749166937
9619360,6,11,41,3668,-1014,-7507,1745224235749166937
9619552,9,2,41,3587,-1209,-7530,1745224235749166937
9619744,-10,-12,41,3345,-1105,-7309,1745224235749166937
9619936,-18,-20,36,3605,-1039,-7627,1745224235749166937
9620128,-9,-45,35,3624,-1077,-7907,1745224235749166937
9620320,-21,-69,40,3378,-1065,-8052,1745224235749166937
9620512,-44,-80,28,3137,-630,-7797,1745224235749166937
9620704,-44,-80,3,3148,-149,-7796,1745224235749166937
9620896,-24,-60,-13,3332,18,-7597,1745224235749166937
9621088,57,1,-24,3214,-474,-6436,1745224235810624449
9621280,102,78,-16,3783,-1581,-5916,1745224235810624449
9621472,93,141,6,3853,-2334,-5407,1745224235810624449
9621664,38,198,37,4033,-2648,-5339,1745224235810624449
9621856,-37,239,52,4077,-2405,-5459,1745224235810624449
9622048,-101,246,69,4170,-1773,-6026,1745224235810624449
9622240,-125,242,81,4183,-1199,-6302,1745224235810624449
9622432,-119,217,93,4283,-956,-6441,1745224235810624449
9622624,-115,180,106,4306,-886,-6660,1745224235810624449
9622816,-119,126,121,4239,-836,-7099,1745224235810624449
9623008,-117,72,131,4089,-852,-7390,1745224235810624449
9623200,-112,10,147,4000,-939,-7579,1745224235810624449
9623392,-106,-45,162,3869,-1101,-7724,1745224235865600561
9623584,-100,-98,176,3597,-1218,-7809,1745224235865600561
9623776,-111,-134,179,3078,-1283,-7813,1745224235865600561
9623968,-138,-160,173,2762,-1116,-8024,1745224235865600561
9624160,-138,-167,154,2719,-776,-8204,1745224235865600561
9624352,-102,-158,132,2744,-630,-8284,1745224235865600561
9624544,-69,-140,114,2563,-674,-8108,1745224235865600561
9624736,-56,-115,94,2449,-684,-7985,1745224235865600561
9624928,-40,-89,72,2663,-652,-8111,1745224235865600561
9625120,-6,-65,53,2936,-758,-8253,1745224235865600561
9625312,21,-39,45,3014,-1027,-8081,1745224235865600561
9625504,26,-14,45,2960,-1211,-7717,1745224235865600561
9625696,27,10,47,3098,-1313,-7563,1745224235923763519
9625888,36,35,53,3283,-1452,-7555,1745224235923763519
9626080,45,62,62,3211,-1533,-7345,1745224235923763519
9626272,43,92,71,3077,-1554,-7059,1745224235923763519
9626464,34,119,77,3169,-1443,-7122,1745224235923763519
9626656,42,138,78,3356,-1290,-7393,1745224235923763519
9626848,58,144,78,3363,-1239,-7526,1745224235923763519
9627040,65,146,77,3242,-1215,-7377,1745224235923763519
9627232,65,145,74,3219,-1109,-7273,1745224235923763519
9627424,73,145,67,3414,-1019,-7362,1745224235923763519
9627616,95,146,61,3505,-1050,-7372,1745224235923763519
9627808,109,155,54,3376,-1114,-7051,1745224235923763519
9628000,103,163,50,3356,-1132,-6845,1745224235982283349
9628192,96,167,43,3585,-1185,-6967,1745224235982283349
9628384,95,166,41,3751,-1232,-7178,1745224235982283349
9628576,83,155,43,3691,-1224,-7215,1745224235982283349
9628768,57,137,46,3589,-1080,-7145,1745224235982283349
9628960,41,126,48,3603,-875,-7144,1745224235982283349
9629152,48,118,46,3740,-809,-7324,1745224235982283349
9629344,70,116,44,3771,-939,-7344,1745224235982283349
9629536,89,125,46,3588,-1201,-7095,1745224235982283349
9629728,84,135,50,3602,-1403,-6900,1745224235982283349
9629920,74,146,49,3739,-1498,-7023,1745224235982283349
9630112,67,153,51,3781,-1585,-7094,1745224235982283349
9630304,44,158,51,3639,-1593,-6997,1745224236040364746
9630496,12,158,51,3577,-1396,-6950,1745224236040364746
9630688,-6,157,41,3687,-1157,-7065,1745224236040364746
9630880,-8,144,35,3816,-996,-7204,1745224236040364746
9631072,-4,135,33,3762,-997,-7085,1745224236040364746
9631264,0,125,33,3679,-1056,-6904,1745224236040364746
9631456,5,115,31,3744,-1173,-6914,1745224236040364746
9631648,16,104,32,3848,-1353,-6983,1745224236040364746
9631840,17,98,36,3769,-1552,-6825,1745224236040364746
9632032,-5,95,37,3626,-1570,-6633,1745224236040364746
9632224,-34,91,34,3616,-1424,-6678,1745224236040364746
9632416,-47,86,29,3739,-1240,-6971,1745224236040364746
9632608,-39,75,24,3839,-1137,-7229,1745224236099169729
9632800,-24,61,19,3810,-1110,-7249,1745224236099169729
9632992,-18,45,20,3687,-1116,-7156,1745224236099169729
9633184,-18,25,23,3729,-1192,-7313,1745224236099169729
9633376,-2,10,25,3750,-1424,-7457,1745224236099169729
9633568,13,4,29,3643,-1744,-7350,1745224236099169729
9633760,2,6,24,3457,-1839,-7127,1745224236099169729
9633952,-29,2,19,3400,-1703,-7070,1745224236099169729
9634144,-51,-2,12,3454,-1529,-7166,1745224236099169729
9634336,-53,-2,8,3487,-1444,-7221,1745224236099169729
