timestamp,gyr_x,gyr_y,gyr_z,acc_x,acc_y,acc_z,pkt_time_ns
54112,-137,-127,-26,2253,438,-7511,1745225352028307249
54304,-87,-65,-23,2449,293,-7993,1745225352028307249
54496,20,-92,-8,2563,605,-7528,1745225352028307249
54688,32,-43,-10,2338,425,-7941,1745225352028307249
54880,30,-40,-19,2276,191,-8087,1745225352028307249
55072,-10,-23,-19,2313,70,-8241,1745225352028307249
55264,-15,3,-17,2385,111,-8164,1745225352028307249
55456,-34,-6,-23,2550,177,-8099,1745225352028307249
55648,-56,4,-33,2489,-57,-7937,1745225352028307249
55840,-74,18,-33,2367,-242,-7832,1745225352028307249
56032,-98,22,-36,2456,-31,-7811,1745225352028307249
56224,-88,40,-47,2566,362,-8056,1745225352028307249
56416,-60,53,-57,2474,599,-8191,1745225352089925905
56608,-15,64,-56,2488,735,-8249,1745225352089925905
56800,54,70,-39,2570,829,-8147,1745225352089925905
56992,126,70,-16,2571,906,-8013,1745225352089925905
57184,196,78,-4,2514,781,-7669,1745225352089925905
57376,158,146,-24,2725,-167,-8256,1745225352089925905
57568,241,208,-12,2579,799,-6658,1745225352089925905
57760,256,173,-22,2468,199,-7612,1745225352089925905
57952,264,154,-41,2856,282,-7165,1745225352089925905
58144,199,186,-39,2018,-1413,-7126,1745225352089925905
58336,-91,301,-66,3150,-2606,-7142,1745225352089925905
58528,-148,169,-27,3953,-167,-7203,1745225352089925905
58720,-174,190,-31,2989,1559,-7809,1745225352138455618
58912,-130,206,-82,2378,2159,-7997,1745225352138455618
59104,-25,203,-90,2267,1788,-8094,1745225352138455618
59296,17,229,-20,2333,1240,-7824,1745225352138455618
59488,10,210,113,2401,978,-7598,1745225352138455618
59680,-11,185,235,2839,1141,-7674,1745225352138455618
59872,-30,195,209,3218,1367,-8043,1745225352138455618
60064,0,178,141,3025,1401,-8178,1745225352138455618
60256,28,180,102,2808,1001,-8408,1745225352138455618
60448,35,181,108,2629,371,-8405,1745225352138455618
60640,-1,185,124,2551,-235,-8577,1745225352138455618
60832,-88,183,177,2192,-1060,-8962,1745225352138455618
61024,-267,203,263,2461,-1163,-7465,1745225352198992304
61216,-295,220,282,3124,-817,-7326,1745225352198992304
61408,-302,207,190,3102,-129,-7462,1745225352198992304
61600,-339,218,112,2905,563,-7234,1745225352198992304
61792,-302,229,67,2907,1558,-7354,1745225352198992304
61984,-204,238,5,2763,2465,-7514,1745225352198992304
62176,-105,250,-42,2693,2665,-7736,1745225352198992304
62368,-5,247,-36,2776,2281,-7899,1745225352198992304
62560,82,239,-12,2854,1685,-7818,1745225352198992304
62752,124,230,-8,2871,1131,-7774,1745225352198992304
62944,131,223,-18,2771,729,-7686,1745225352198992304
63136,115,220,-31,2748,595,-7599,1745225352198992304
63328,89,213,-47,2770,666,-7449,1745225352261591055
63520,69,205,-62,2810,831,-7499,1745225352261591055
63712,61,190,-78,2879,1138,-7596,1745225352261591055
63904,59,170,-93,2925,1384,-7649,1745225352261591055
64096,67,147,-102,2755,1422,-7602,1745225352261591055
64288,93,138,-103,2657,1318,-7722,1745225352261591055
64480,130,130,-104,2644,1257,-7668,1745225352261591055
64672,163,127,-115,2651,1232,-7514,1745225352261591055
64864,187,127,-122,2669,1058,-7439,1745225352261591055
65056,218,122,-116,2725,801,-7351,1745225352261591055
65248,257,118,-111,2747,574,-7329,1745225352261591055
65440,288,118,-116,2704,353,-7529,1745225352261591055
65632,305,120,-122,2622,160,-7698,1745225352313799224
65824,304,129,-130,2638,80,-7711,1745225352313799224
66016,281,124,-142,2884,139,-8168,1745225352313799224
66208,264,119,-140,2660,264,-7919,1745225352313799224
66400,245,132,-133,2571,317,-7612,1745225352313799224
66592,229,173,-125,2366,278,-6439,1745225352313799224
66784,196,187,-142,3636,564,-7338,1745225352313799224
66976,204,100,-177,3772,1193,-8177,1745225352313799224
67168,264,27,-197,3114,1508,-8608,1745225352313799224
67360,320,-27,-208,2283,972,-7884,1745225352313799224
67552,382,-12,-173,1938,-103,-6270,1745225352313799224
67744,375,21,-136,2771,-1264,-6280,1745225352313799224
67936,321,21,-118,3195,-1660,-6608,1745225352380140962
68128,232,15,-115,3435,-1413,-7311,1745225352380140962
68320,167,-20,-130,3383,-876,-7491,1745225352380140962
68512,130,-49,-134,3352,-639,-7346,1745225352380140962
68704,129,-66,-106,3307,-766,-7251,1745225352380140962
68896,125,-72,-81,3225,-885,-7743,1745225352380140962
69088,91,-70,-80,2865,-744,-8012,1745225352380140962
69280,36,-41,-70,2837,-512,-7912,1745225352380140962
69472,11,-18,-42,3101,-358,-7721,1745225352380140962
69664,10,4,-22,3301,-251,-7820,1745225352380140962
69856,2,23,-16,3145,-191,-7910,1745225352380140962
70048,-17,47,1,2975,-256,-7767,1745225352380140962
70240,-31,65,33,2969,-392,-7660,1745225352431894916
70432,-54,83,45,2894,-452,-7712,1745225352431894916
70624,-98,104,28,2816,-166,-7742,1745225352431894916
70816,-145,118,3,2902,288,-7346,1745225352431894916
71008,-150,123,-4,3007,624,-7123,1745225352431894916
71200,-119,120,-1,3028,696,-7260,1745225352431894916
71392,-79,113,4,2972,541,-7561,1745225352431894916
71584,-52,103,18,2942,280,-7732,1745225352431894916
71776,-51,102,41,2905,0,-7833,1745225352431894916
71968,-81,113,67,2780,-187,-7757,1745225352431894916
72160,-114,130,85,2858,-209,-7605,1745225352431894916
72352,-120,134,95,3094,-161,-7200,1745225352431894916
72544,-107,133,97,3203,-251,-7081,1745225352496043966
72736,-99,133,101,3043,-462,-7141,1745225352496043966
72928,-101,138,107,2997,-576,-7372,1745225352496043966
73120,-108,134,105,3095,-483,-7503,1745225352496043966
73312,-121,130,98,3124,-400,-7709,1745225352496043966
73504,-129,129,102,2952,-376,-7680,1745225352496043966
73696,-133,127,104,3099,-255,-7856,1745225352496043966
73888,-127,94,83,3519,364,-8695,1745225352496043966
74080,-127,33,22,2232,1094,-9626,1745225352496043966
74272,-150,47,-21,1190,1501,-9899,1745225352496043966
74464,-90,76,-14,1752,2331,-7306,1745225352496043966
74656,-48,161,-2,2779,2270,-4960,1745225352496043966
74848,-25,256,105,4058,1079,-4298,1745225352552368868
75040,56,299,245,4735,-266,-5205,1745225352552368868
75232,101,315,310,4447,-1414,-6128,1745225352552368868
75424,43,340,326,3926,-2410,-6907,1745225352552368868
75616,-86,366,337,3806,-2481,-7380,1745225352552368868
75808,-217,384,330,3890,-1517,-7622,1745225352552368868
76000,-281,390,310,3747,-463,-7425,1745225352552368868
76192,-276,389,295,3868,85,-7254,1745225352552368868
76384,-250,365,280,4196,265,-7460,1745225352552368868
76576,-219,327,266,3922,155,-8381,1745225352552368868
76768,-182,295,261,2984,-96,-9476,1745225352552368868
76960,-175,278,244,2494,74,-9995,1745225352552368868
77152,-207,264,205,2620,848,-9743,1745225352605506612
77344,-251,264,168,2914,1767,-9219,1745225352605506612
77536,-267,277,155,3158,2375,-8910,1745225352605506612
77728,-257,306,158,3324,2569,-8690,1745225352605506612
77920,-236,366,173,3489,2399,-8276,1745225352605506612
78112,-221,455,197,3827,1950,-7806,1745225352605506612
78304,-228,555,226,4244,1376,-7461,1745225352605506612
78496,-253,654,248,4690,882,-7377,1745225352605506612
78688,-304,741,254,5117,506,-7517,1745225352605506612
78880,-369,813,248,5414,128,-7831,1745225352605506612
79072,-425,880,242,5589,-323,-8244,1745225352605506612
79264,-467,935,231,5812,-832,-8643,1745225352605506612
79456,-497,971,199,6012,-1251,-8777,1745225352685334945
79648,-525,994,134,6133,-1598,-8758,1745225352685334945
79840,-564,1009,28,6352,-1964,-8837,1745225352685334945
80032,-616,1023,-95,6685,-2166,-9111,1745225352685334945
80224,-697,1020,-221,7051,-2214,-9450,1745225352685334945
80416,-809,971,-317,7394,-2183,-9676,1745225352685334945
80608,-909,927,-379,7769,-2176,-9509,1745225352685334945
80800,-959,857,-411,8183,-2013,-8776,1745225352685334945
80992,-930,765,-456,8495,-1670,-8391,1745225352685334945
81184,-877,635,-557,8739,-1088,-8487,1745225352685334945
81376,-837,472,-705,8741,-576,-8772,1745225352685334945
81568,-777,287,-906,8908,-164,-9397,1745225352685334945
81760,-738,50,-1124,8919,68,-8608,1745225352727560340
81952,-550,-60,-1144,10036,379,-6609,1745225352727560340
82144,-225,-375,-1309,11820,173,-5959,1745225352727560340
82336,115,-926,-1619,12352,103,-5829,1745225352727560340
82528,293,-1262,-1896,12236,98,-6608,1745225352727560340
82720,456,-1465,-2103,11278,160,-6885,1745225352727560340
82912,587,-1053,-1614,10197,324,-4735,1745225352727560340
83104,409,-43,-145,12878,454,-2680,1745225352727560340
83296,129,-512,389,15185,-778,-2985,1745225352727560340
83488,345,-1740,-51,12749,-2145,-1643,1745225352727560340
83680,725,-2122,-494,10513,-3675,-3956,1745225352727560340
83872,908,-1876,-617,8999,-4660,-4331,1745225352727560340
84064,789,-1641,-479,8835,-5801,-3666,1745225352782405204
84256,602,-1578,-202,9500,-6977,-3503,1745225352782405204
84448,434,-1567,121,10184,-7803,-3451,1745225352782405204
84640,266,-1520,396,10425,-8097,-3334,1745225352782405204
84832,123,-1432,541,9872,-7316,-3622,1745225352782405204
85024,58,-1327,485,9029,-6616,-2894,1745225352782405204
85216,-76,-1155,521,9100,-6709,-2629,1745225352782405204
85408,-167,-971,743,9237,-6482,-1976,1745225352782405204
85600,-258,-808,1177,9312,-6111,-1350,1745225352782405204
85792,-321,-633,1537,8892,-6101,-697,1745225352782405204
85984,-328,-462,1722,8254,-6581,-166,1745225352782405204
86176,-377,-263,1880,7945,-7311,544,1745225352782405204
86368,-486,-88,2064,7709,-7825,1166,1745225352846287016
86560,-607,85,2291,7575,-8007,1683,1745225352846287016
86752,-761,296,2512,7483,-7897,1979,1745225352846287016
86944,-937,544,2725,7345,-7514,2138,1745225352846287016
87136,-1088,825,2926,7269,-6768,2282,1745225352846287016
87328,-1181,1141,3151,7455,-5678,2138,1745225352846287016
87520,-1182,1482,3416,7771,-4117,2019,1745225352846287016
87712,-1152,1840,3675,8297,-2735,1879,1745225352846287016
87904,-1099,2197,3899,8907,-1585,1816,1745225352846287016
88096,-1006,2553,4120,9465,-538,1898,1745225352846287016
88288,-859,2920,4346,9942,345,1893,1745225352846287016
88480,-677,3272,4529,10298,1197,1903,1745225352846287016
88672,-507,3626,4680,10627,1871,2019,1745225352913560308
88864,-354,3968,4803,10926,2410,2228,1745225352913560308
89056,-223,4301,4904,11437,2670,2466,1745225352913560308
89248,-128,4632,5060,12112,2634,2789,1745225352913560308
89440,-24,4903,5180,12623,2822,3129,1745225352913560308
89632,97,5222,5214,13192,3068,3379,1745225352913560308
89824,215,5477,5214,13870,3412,4075,1745225352913560308
90016,360,5693,5187,14846,3769,4695,1745225352913560308
90208,533,5899,5122,16021,4245,5297,1745225352913560308
90400,714,6053,5025,17237,4794,5951,1745225352913560308
90592,942,6156,4891,18555,5346,6374,1745225352913560308
90784,1233,6238,4717,19839,6001,6863,1745225352913560308
90976,1554,6323,4488,20797,6788,7326,1745225352963343447
91168,1848,6389,4192,21513,7784,7390,1745225352963343447
91360,2084,6436,3842,22006,8845,7136,1745225352963343447
91552,2265,6485,3442,22380,9931,6712,1745225352963343447
91744,2398,6537,3009,22820,11027,6321,1745225352963343447
91936,2485,6587,2550,23332,11954,5897,1745225352963343447
92128,2528,6616,2079,23755,12860,5440,1745225352963343447
92320,2540,6627,1619,23945,13856,4979,1745225352963343447
92512,2523,6633,1185,23865,14895,4496,1745225352963343447
92704,2472,6634,783,23578,15737,3908,1745225352963343447
92896,2410,6624,417,23172,16055,3524,1745225352963343447
93088,2367,6608,72,22875,15864,3072,1745225352963343447
93280,2313,6583,-278,22743,15549,2585,1745225353019635224
93472,2220,6571,-653,22714,15312,2164,1745225353019635224
93664,2074,6575,-1071,22812,15321,1696,1745225353019635224
93856,1858,6593,-1533,23004,15528,1060,1745225353019635224
94048,1585,6624,-2007,23204,15656,513,1745225353019635224
94240,1302,6660,-2455,23424,15722,251,1745225353019635224
94432,1029,6678,-2865,23678,15935,320,1745225353019635224
94624,780,6687,-3249,23872,16498,437,1745225353019635224
94816,558,6687,-3610,24039,17275,421,1745225353019635224
95008,368,6655,-3944,24182,17922,69,1745225353019635224
95200,249,6607,-4232,24291,18322,-225,1745225353019635224
95392,254,6545,-4459,24390,18782,-384,1745225353019635224
95584,355,6448,-4647,24584,19041,-761,1745225353089578856
95776,511,6327,-4855,24607,18955,-1344,1745225353089578856
95968,725,6191,-5088,24503,18467,-1802,1745225353089578856
96160,972,6030,-5323,24459,17688,-1939,1745225353089578856
96352,1198,5858,-5557,24362,16841,-2123,1745225353089578856
96544,1363,5671,-5780,24160,15954,-2499,1745225353089578856
96736,1492,5480,-5965,23831,15049,-2979,1745225353089578856
96928,1613,5291,-6102,23524,14055,-3625,1745225353089578856
97120,1715,5086,-6214,23188,12930,-3928,1745225353089578856
97312,1782,4852,-6310,22877,11803,-3912,1745225353089578856
97504,1802,4634,-6401,22586,10813,-4234,1745225353089578856
97696,1777,4426,-6462,22437,9851,-4636,1745225353089578856
97888,1739,4219,-6480,22397,8990,-4994,1745225353135946870
98080,1704,4024,-6470,22432,8248,-5579,1745225353135946870
98272,1655,3830,-6441,22523,7266,-6338,1745225353135946870
98464,1612,3606,-6398,22530,6090,-6795,1745225353135946870
98656,1590,3367,-6349,22390,4923,-7099,1745225353135946870
98848,1582,3120,-6299,22099,4028,-7429,1745225353135946870
99040,1583,2866,-6238,21809,3255,-8038,1745225353135946870
99232,1600,2604,-6151,21500,2476,-8835,1745225353135946870
99424,1636,2370,-6015,21238,1583,-9396,1745225353135946870
99616,1696,2135,-5855,21035,813,-9601,1745225353135946870
99808,1772,1865,-5685,20929,97,-9474,1745225353135946870
100000,1867,1545,-5519,20874,-771,-9276,1745225353135946870
100192,1967,1218,-5361,20942,-1866,-9128,1745225353196400016
100384,2058,885,-5207,21162,-2919,-8642,1745225353196400016
100576,2111,536,-5047,21603,-3894,-8173,1745225353196400016
100768,2100,191,-4880,22114,-4732,-7678,1745225353196400016
100960,2039,-133,-4689,22479,-5619,-7071,1745225353196400016
101152,1963,-455,-4487,22686,-6508,-6029,1745225353196400016
101344,1877,-829,-4308,22551,-7310,-5276,1745225353196400016
101536,1751,-1176,-4115,21989,-8046,-4582,1745225353196400016
101728,1585,-1545,-3897,21250,-8766,-4326,1745225353196400016
101920,1375,-1904,-3667,20258,-9403,-4293,1745225353196400016
102112,1162,-2209,-3446,19115,-9970,-4156,1745225353196400016
102304,966,-2437,-3242,17798,-10035,-3773,1745225353196400016
102496,676,-2624,-3149,16454,-8171,-3213,1745225353252920229
102688,422,-2698,-2967,14424,-11699,-3348,1745225353252920229
102880,-166,-2430,-2475,14221,-13042,424,1745225353252920229
103072,-76,-3023,-2101,14528,-8778,2527,1745225353252920229
103264,509,-3696,-1633,11858,-8240,162,1745225353252920229
103456,537,-3137,-1738,8982,-8383,-1416,1745225353252920229
103648,315,-2816,-1856,6986,-7998,1632,1745225353252920229
103840,187,-2618,-1543,7109,-7842,2487,1745225353252920229
104032,158,-2486,-866,7575,-7254,3515,1745225353252920229
104224,128,-2575,-504,6993,-5984,4073,1745225353252920229
104416,85,-2540,-419,6398,-5166,3905,1745225353252920229
104608,9,-2455,-295,6511,-4198,4297,1745225353252920229
104800,-78,-2547,-321,6140,-2946,5322,1745225353313130668
104992,-85,-2543,-337,5330,-1932,5344,1745225353313130668
105184,5,-2441,-192,4263,-758,5170,1745225353313130668
105376,123,-2203,7,3283,208,4895,1745225353313130668
105568,249,-1938,197,2675,1008,4897,1745225353313130668
105760,378,-1678,388,2541,1691,4936,1745225353313130668
105952,464,-1444,513,2670,2231,5233,1745225353313130668
106144,511,-1247,531,2839,2756,5624,1745225353313130668
106336,522,-1079,476,3060,3367,5984,1745225353313130668
106528,516,-942,400,3222,4145,6478,1745225353313130668
106720,505,-816,338,3352,5103,6590,1745225353313130668
106912,456,-679,291,3370,6248,6388,1745225353313130668
107104,376,-562,261,3406,7497,6335,1745225353369748745
107296,312,-463,233,3337,8777,6429,1745225353369748745
107488,282,-380,233,3263,9950,6135,1745225353369748745
107680,279,-323,258,3280,10757,5869,1745225353369748745
107872,314,-291,292,3393,11134,5754,1745225353369748745
108064,394,-279,333,3639,11038,5869,1745225353369748745
108256,487,-278,350,3725,10621,5962,1745225353369748745
108448,557,-265,333,3530,10152,5922,1745225353369748745
108640,584,-220,294,3185,9775,5895,1745225353369748745
108832,572,-158,240,2875,9616,5987,1745225353369748745
109024,506,-80,171,2753,9592,5972,1745225353369748745
109216,403,-12,105,2733,9747,6079,1745225353369748745
109408,301,51,43,2850,9815,5983,1745225353429967049
109600,230,105,-33,2961,9916,5666,1745225353429967049
109792,200,181,-140,3149,9575,5507,1745225353429967049
109984,159,211,-320,3270,8878,5177,1745225353429967049
110176,104,229,-511,3159,8235,5054,1745225353429967049
110368,82,254,-589,3018,8628,5165,1745225353429967049
110560,107,240,-409,3589,9815,5099,1745225353429967049
110752,150,234,-135,4411,10406,5073,1745225353429967049
110944,184,168,-30,4847,10092,4934,1745225353429967049
111136,196,75,-137,4757,9146,4748,1745225353429967049
111328,177,1,-287,4108,8232,4555,1745225353429967049
111520,130,-1,-343,3522,7735,4394,1745225353429967049
111712,51,23,-310,3440,7503,4185,1745225353488959270
111904,-29,21,-276,3661,7447,3997,1745225353488959270
112096,-68,-4,-274,3793,7498,3868,1745225353488959270
112288,-72,-32,-280,3781,7527,3606,1745225353488959270
112480,-71,-40,-281,3663,7453,3296,1745225353488959270
112672,-79,-31,-269,3540,7255,3103,1745225353488959270
112864,-93,-26,-238,3554,7010,3200,1745225353488959270
113056,-108,-22,-202,3560,6894,3398,1745225353488959270
113248,-126,-8,-165,3606,6734,3425,1745225353488959270
113440,-131,14,-139,3669,6512,3378,1745225353488959270
113632,-127,32,-122,3717,6258,3297,1745225353488959270
113824,-112,53,-110,3712,6107,3315,1745225353488959270
114016,-98,81,-95,3698,5988,3219,1745225353543587730
114208,-100,111,-81,3671,5859,3081,1745225353543587730
114400,-96,131,-65,3747,5728,2976,1745225353543587730
114592,-76,148,-38,3940,5579,2899,1745225353543587730
114784,-64,160,-14,4185,5461,2949,1745225353543587730
114976,-57,163,11,4407,5413,3206,1745225353543587730
115168,-50,160,32,4470,5481,3289,1745225353543587730
115360,-52,155,44,4399,5594,3191,1745225353543587730
115552,-53,142,55,4273,5656,3183,1745225353543587730
115744,-35,124,76,4184,5657,3198,1745225353543587730
115936,-6,103,102,4132,5603,3185,1745225353543587730
116128,18,91,119,4005,5541,3065,1745225353543587730
116320,35,93,127,3894,5530,2801,1745225353602728179
116512,44,109,135,3812,5563,2612,1745225353602728179
116704,50,131,139,3762,5727,2618,1745225353602728179
116896,54,157,140,3763,6044,2640,1745225353602728179
117088,51,181,137,3792,6429,2564,1745225353602728179
117280,55,189,133,3894,6750,2529,1745225353602728179
117472,85,190,134,4023,6976,2527,1745225353602728179
117664,129,180,134,4166,7018,2557,1745225353602728179
117856,175,155,138,4214,6921,2697,1745225353602728179
118048,218,119,150,4091,6735,2911,1745225353602728179
118240,243,88,163,3780,6583,3005,1745225353602728179
118432,236,74,168,3319,6472,2875,1745225353602728179
118624,203,74,169,2956,6441,2760,1745225353661487486
118816,157,79,178,2814,6445,2761,1745225353661487486
119008,102,85,193,2844,6520,2869,1745225353661487486
119200,41,97,203,2954,6754,3102,1745225353661487486
119392,-31,107,202,3125,6949,3204,1745225353661487486
119584,-90,108,190,3306,7126,3348,1745225353661487486
119776,-109,102,173,3391,7316,3395,1745225353661487486
119968,-103,95,149,3343,7543,3391,1745225353661487486
120160,-82,92,121,3269,7765,3448,1745225353661487486
120352,-43,87,94,3202,7945,3522,1745225353661487486
120544,11,81,75,3125,8043,3510,1745225353661487486
120736,60,77,57,3102,8068,3367,1745225353661487486
120928,94,76,34,3043,8014,3330,1745225353723512961
121120,113,78,14,3015,7930,3444,1745225353723512961
121312,122,81,3,2997,7841,3678,1745225353723512961
121504,112,82,-9,2998,7749,3775,1745225353723512961
121696,86,84,-23,2949,7694,3826,1745225353723512961
121888,63,86,-31,2923,7697,3927,1745225353723512961
122080,32,88,-38,2943,7726,4065,1745225353723512961
122272,-8,93,-37,2935,7810,4297,1745225353723512961
122464,-39,102,-32,2934,7863,4326,1745225353723512961
122656,-63,102,-31,2951,7852,4318,1745225353723512961
122848,-74,99,-37,2972,7800,4323,1745225353723512961
123040,-81,98,-49,2985,7618,4286,1745225353723512961
123232,-80,104,-67,2972,7397,4340,1745225353778164233
123424,-63,119,-90,2926,7252,4237,1745225353778164233
123616,-36,141,-112,2891,7172,4144,1745225353778164233
123808,-12,161,-137,2896,7070,4060,1745225353778164233
124000,18,180,-165,2868,6997,4095,1745225353778164233
124192,49,201,-186,2878,6967,4032,1745225353778164233
124384,73,212,-195,2903,6912,4128,1745225353778164233
124576,86,221,-198,2902,6842,4162,1745225353778164233
124768,76,227,-195,2911,6647,4116,1745225353778164233
124960,63,227,-189,2887,6370,4150,1745225353778164233
125152,58,231,-181,2803,6175,4160,1745225353778164233
125344,43,243,-176,2720,6062,4095,1745225353778164233
125536,10,258,-172,2687,5981,4006,1745225353837714939
125728,-22,272,-170,2783,5970,3984,1745225353837714939
125920,-42,279,-162,2923,6008,3877,1745225353837714939
126112,-61,278,-154,3059,6042,3778,1745225353837714939
126304,-68,271,-149,3180,6116,3726,1745225353837714939
126496,-65,267,-147,3215,6273,3718,1745225353837714939
126688,-70,272,-149,3246,6424,3684,1745225353837714939
126880,-79,281,-148,3314,6500,3647,1745225353837714939
127072,-68,282,-139,3414,6490,3671,1745225353837714939
127264,-44,276,-129,3442,6475,3750,1745225353837714939
127456,-32,274,-124,3371,6484,3791,1745225353837714939
127648,-31,281,-116,3268,6403,3759,1745225353837714939
127840,-27,292,-109,3138,6250,3751,1745225353898203032
128032,-21,311,-106,2941,6162,3769,1745225353898203032
128224,-20,352,-106,2686,6222,3803,1745225353898203032
128416,-16,409,-101,2554,6343,3837,1745225353898203032
128608,-3,466,-92,2565,6444,3908,1745225353898203032
128800,24,515,-90,2656,6630,3992,1745225353898203032
128992,62,558,-87,2763,6831,4195,1745225353898203032
129184,97,598,-98,2875,7116,4325,1745225353898203032
129376,110,630,-111,2983,7324,4235,1745225353898203032
129568,122,652,-122,3164,7356,4199,1745225353898203032
129760,155,658,-136,3376,7327,4195,1745225353898203032
129952,196,646,-144,3522,7268,4280,1745225353898203032
130144,229,620,-154,3418,7297,4281,1745225353952537432
130336,257,611,-152,3205,7319,4307,1745225353952537432
130528,271,579,-161,2980,7317,4169,1745225353952537432
130720,278,563,-169,2723,7316,4056,1745225353952537432
130912,272,538,-165,2578,7209,4012,1745225353952537432
131104,247,522,-164,2483,7080,3944,1745225353952537432
131296,208,516,-161,2464,6969,3870,1745225353952537432
131488,160,512,-155,2491,6909,3746,1745225353952537432
131680,114,506,-146,2497,6899,3626,1745225353952537432
131872,79,502,-132,2510,6911,3528,1745225353952537432
132064,60,486,-113,2551,6889,3532,1745225353952537432
132256,58,457,-96,2543,6914,3627,1745225353952537432
132448,54,430,-79,2456,6973,3690,1745225354011525799
132640,42,407,-66,2354,7065,3802,1745225354011525799
132832,17,393,-54,2286,7089,3752,1745225354011525799
133024,-11,376,-43,2306,6985,3826,1745225354011525799
133216,-25,353,-34,2319,6764,3939,1745225354011525799
133408,-26,332,-28,2271,6534,4022,1745225354011525799
133600,-31,307,-29,2221,6390,3920,1745225354011525799
133792,-37,278,-39,2141,6357,3940,1745225354011525799
133984,-32,256,-46,2031,6445,3899,1745225354011525799
134176,-19,241,-40,1974,6564,3830,1745225354011525799
134368,-2,235,-24,1958,6654,3761,1745225354011525799
134560,6,233,-10,2017,6678,3683,1745225354011525799
134752,8,222,-1,2139,6669,3687,1745225354074004916
134944,4,203,7,2275,6577,3678,1745225354074004916
135136,-2,176,15,2373,6494,3832,1745225354074004916
135328,-9,150,20,2369,6479,3989,1745225354074004916
135520,-23,132,23,2280,6514,4118,1745225354074004916
135712,-39,118,26,2150,6542,4052,1745225354074004916
135904,-40,102,33,2076,6571,3999,1745225354074004916
136096,-25,82,43,2061,6604,3977,1745225354074004916
136288,-19,71,54,2010,6685,3887,1745225354074004916
136480,-30,68,63,2033,6731,3825,1745225354074004916
136672,-35,68,69,2084,6743,3785,1745225354074004916
136864,-32,65,75,2183,6732,3795,1745225354074004916
137056,-29,61,78,2294,6713,3856,1745225354133685412
137248,-27,61,77,2397,6742,3944,1745225354133685412
137440,-25,60,70,2460,6748,3948,1745225354133685412
137632,-28,58,57,2530,6743,3918,1745225354133685412
137824,-20,52,40,2547,6726,3962,1745225354133685412
138016,3,47,27,2480,6741,3849,1745225354133685412
138208,34,40,21,2419,6692,3818,1745225354133685412
138400,69,35,22,2342,6630,3838,1745225354133685412
138592,103,31,34,2294,6496,3796,1745225354133685412
138784,134,27,52,2193,6373,3821,1745225354133685412
138976,155,24,74,2125,6325,3888,1745225354133685412
139168,151,26,96,2063,6363,3966,1745225354133685412
139360,128,28,115,2053,6467,4066,1745225354186568314
139552,90,27,132,2085,6615,4143,1745225354186568314
139744,53,24,150,2144,6789,4121,1745225354186568314
139936,21,20,160,2231,6941,3973,1745225354186568314
140128,4,19,162,2269,7104,3828,1745225354186568314
140320,-7,23,156,2322,7252,3639,1745225354186568314
140512,-8,24,145,2363,7298,3664,1745225354186568314
140704,9,22,134,2342,7320,3696,1745225354186568314
140896,38,19,124,2266,7311,3678,1745225354186568314
141088,80,13,112,2170,7252,3604,1745225354186568314
141280,127,2,99,2076,7167,3617,1745225354186568314
141472,164,-11,91,1963,7130,3626,1745225354186568314
141664,175,-14,90,1840,7126,3590,1745225354247015262
141856,176,-14,94,1776,7137,3595,1745225354247015262
142048,169,-20,105,1813,7148,3595,1745225354247015262
142240,152,-37,120,1902,7164,3782,1745225354247015262
142432,124,-53,135,1986,7247,3988,1745225354247015262
142624,73,-67,145,2056,7275,4025,1745225354247015262
142816,18,-87,148,2136,7263,4065,1745225354247015262
143008,-20,-108,141,2180,7299,4063,1745225354247015262
143200,-46,-125,128,2230,7406,3976,1745225354247015262
143392,-59,-138,109,2288,7553,3935,1745225354247015262
143584,-58,-148,86,2291,7712,3842,1745225354247015262
143776,-45,-158,61,2323,7765,3686,1745225354247015262
143968,-6,-168,41,2343,7755,3595,1745225354304601663
144160,53,-178,28,2313,7720,3597,1745225354304601663
144352,104,-184,18,2267,7716,3689,1745225354304601663
144544,131,-183,6,2201,7616,3747,1745225354304601663
144736,147,-186,-1,2240,7417,3866,1745225354304601663
144928,157,-201,-1,2286,7177,3985,1745225354304601663
145120,147,-216,-1,2294,6948,4087,1745225354304601663
145312,121,-225,0,2207,6805,4174,1745225354304601663
145504,82,-227,5,2106,6754,4148,1745225354304601663
145696,39,-229,7,2026,6690,4144,1745225354304601663
145888,11,-230,6,2006,6626,4183,1745225354304601663
146080,-8,-234,4,2081,6608,4285,1745225354304601663
146272,-28,-230,6,2132,6704,4370,1745225354363938778
146464,-57,-216,10,2203,6827,4260,1745225354363938778
146656,-75,-206,13,2333,6948,4204,1745225354363938778
146848,-70,-197,12,2414,7052,4070,1745225354363938778
147040,-56,-185,4,2475,7134,3979,1745225354363938778
147232,-33,-167,-6,2537,7145,4023,1745225354363938778
147424,-7,-144,-17,2595,7154,4077,1745225354363938778
147616,21,-121,-30,2629,7096,4105,1745225354363938778
147808,49,-100,-44,2660,6999,4161,1745225354363938778
148000,79,-84,-57,2678,6898,4230,1745225354363938778
148192,107,-69,-68,2688,6802,4326,1745225354363938778
148384,124,-54,-72,2639,6742,4398,1745225354363938778
148576,132,-40,-74,2550,6675,4467,1745225354423023759
148768,139,-24,-75,2463,6651,4431,1745225354423023759
148960,147,-4,-68,2437,6577,4353,1745225354423023759
149152,155,12,-56,2461,6456,4304,1745225354423023759
149344,159,27,-45,2512,6349,4196,1745225354423023759
149536,164,47,-31,2581,6247,4065,1745225354423023759
149728,170,67,-15,2710,6155,3935,1745225354423023759
149920,183,82,0,2822,6108,3860,1745225354423023759
150112,204,95,13,2911,6152,3799,1745225354423023759
150304,228,105,22,2993,6271,3822,1745225354423023759
150496,240,109,32,3057,6393,3781,1745225354423023759
150688,247,105,43,3133,6459,3693,1745225354423023759
150880,267,93,60,3154,6488,3600,1745225354486356930
151072,294,78,86,3172,6506,3512,1745225354486356930
151264,316,59,114,3193,6489,3449,1745225354486356930
151456,328,33,146,3181,6426,3368,1745225354486356930
151648,329,3,181,3139,6365,3443,1745225354486356930
151840,320,-22,218,3047,6421,3541,1745225354486356930
152032,282,-41,260,2912,6549,3546,1745225354486356930
152224,222,-52,301,2835,6677,3564,1745225354486356930
152416,160,-51,334,2834,6763,3504,1745225354486356930
152608,106,-45,357,2968,6720,3370,1745225354486356930
152800,78,-47,373,3185,6616,3383,1745225354486356930
152992,77,-57,388,3377,6555,3464,1745225354486356930
153184,83,-71,397,3436,6539,3511,1745225354536789282
153376,95,-85,396,3343,6593,3470,1745225354536789282
153568,120,-98,390,3141,6713,3365,1745225354536789282
153760,152,-105,382,2980,6889,3336,1745225354536789282
153952,173,-103,374,2863,7105,3431,1745225354536789282
154144,179,-95,368,2827,7326,3471,1745225354536789282
154336,176,-88,363,2895,7413,3358,1745225354536789282
154528,183,-88,355,3038,7346,3309,1745225354536789282
154720,199,-93,343,3149,7200,3251,1745225354536789282
154912,204,-96,338,3107,7032,3156,1745225354536789282
155104,197,-90,338,2948,6968,3050,1745225354536789282
155296,178,-69,342,2711,7001,2944,1745225354536789282
155488,154,-39,347,2527,7069,2895,1745225354597526175
155680,133,-6,353,2467,7088,2862,1745225354597526175
155872,115,21,361,2538,7104,2939,1745225354597526175
156064,98,45,371,2695,7087,3051,1745225354597526175
156256,74,68,380,2835,7068,3057,1745225354597526175
156448,56,84,386,3021,7020,3133,1745225354597526175
156640,51,87,385,3163,7004,3181,1745225354597526175
156832,41,81,381,3186,7048,3266,1745225354597526175
157024,25,74,373,3115,7192,3326,1745225354597526175
157216,8,74,364,3018,7354,3230,1745225354597526175
157408,-4,76,355,2975,7474,3140,1745225354597526175
157600,-7,80,339,2965,7510,3092,1745225354597526175
157792,-8,89,319,-49,-1,-1,1745225354660436590
157984,-1,97,300,3102,7500,3074,1745225354660436590
158176,6,106,277,3160,7535,3093,1745225354660436590
158368,13,113,256,3189,7578,3179,1745225354660436590
158560,30,115,239,3121,7675,3265,1745225354660436590
158752,44,117,225,3027,7750,3265,1745225354660436590
158944,50,118,212,2950,7785,3293,1745225354660436590
159136,50,118,202,2932,7763,3386,1745225354660436590
159328,41,122,197,2948,7770,3509,1745225354660436590
159520,25,132,195,2977,7809,3561,1745225354660436590
159712,4,140,191,3092,7788,3526,1745225354660436590
159904,-10,144,181,3219,7687,3479,1745225354660436590
160096,-16,139,163,3376,7549,3426,1745225354714807499
160288,-10,132,139,3525,7463,3484,1745225354714807499
160480,-5,126,116,3627,7432,3566,1745225354714807499
160672,-8,117,97,3717,7428,3613,1745225354714807499
160864,-9,100,85,3737,7418,3583,1745225354714807499
161056,-6,80,74,3704,7345,3499,1745225354714807499
161248,1,63,68,3692,7299,3563,1745225354714807499
161440,-3,52,67,3665,7254,3594,1745225354714807499
161632,-27,47,72,3694,7151,3595,1745225354714807499
161824,-55,42,87,3760,6999,3597,1745225354714807499
162016,-79,34,105,3802,6841,3566,1745225354714807499
162208,-102,27,125,3766,6712,3647,1745225354714807499
162400,-129,26,144,3678,6681,3740,1745225354770732926
162592,-163,32,160,3605,6666,3748,1745225354770732926
162784,-188,40,172,3570,6649,3818,1745225354770732926
162976,-197,49,183,3607,6642,3876,1745225354770732926
163168,-202,56,191,3623,6656,3927,1745225354770732926
163360,-203,66,200,3658,6626,3971,1745225354770732926
163552,-199,78,210,3691,6544,3984,1745225354770732926
163744,-187,86,219,3737,6467,3994,1745225354770732926
163936,-170,93,225,3764,6355,4009,1745225354770732926
164128,-153,97,228,3769,6270,3964,1745225354770732926
164320,-138,102,229,3716,6228,3914,1745225354770732926
164512,-132,111,227,3665,6268,3770,1745225354770732926
164704,-131,125,224,3600,6369,3692,1745225354836093996
164896,-126,141,222,3555,6529,3599,1745225354836093996
165088,-120,157,225,3565,6678,3578,1745225354836093996
165280,-112,167,231,3613,6743,3667,1745225354836093996
165472,-111,170,235,3673,6749,3622,1745225354836093996
165664,-115,177,240,3710,6711,3515,1745225354836093996
165856,-114,184,242,3701,6669,3407,1745225354836093996
166048,-119,194,240,3641,6669,3313,1745225354836093996
166240,-125,204,233,3545,6730,3325,1745225354836093996
166432,-130,220,224,3409,6838,3288,1745225354836093996
166624,-134,237,214,3359,6901,3240,1745225354836093996
166816,-126,248,201,3381,6901,3215,1745225354836093996
167008,-107,253,187,3435,6861,3167,1745225354893541127
167200,-81,253,176,3474,6912,3177,1745225354893541127
167392,-61,257,165,3495,7034,3147,1745225354893541127
167584,-48,258,149,3538,7093,3036,1745225354893541127
167776,-31,250,130,3581,7057,2953,1745225354893541127
167968,-5,235,116,3635,6975,2947,1745225354893541127
168160,14,223,105,3591,6950,2881,1745225354893541127
168352,15,213,97,3530,6961,2802,1745225354893541127
168544,10,202,89,3510,6917,2781,1745225354893541127
168736,1,187,82,3535,6859,2764,1745225354893541127
168928,-11,166,80,3599,6739,2815,1745225354893541127
169120,-32,144,79,3623,6685,2817,1745225354893541127
169312,-59,120,79,3647,6668,2841,1745225354951480233
169504,-84,92,79,3649,6682,2920,1745225354951480233
169696,-104,58,79,3614,6745,3049,1745225354951480233
169888,-130,28,78,3547,6866,3077,1745225354951480233
170080,-170,4,78,3524,6945,3070,1745225354951480233
170272,-205,-18,79,3565,6968,3209,1745225354951480233
170464,-230,-38,79,3634,6972,3288,1745225354951480233
170656,-250,-55,79,3663,6923,3373,1745225354951480233
170848,-253,-71,76,3659,6898,3422,1745225354951480233
171040,-241,-87,67,3632,6852,3507,1745225354951480233
171232,-220,-104,50,3577,6789,3700,1745225354951480233
171424,-203,-115,30,3473,6715,3816,1745225354951480233
171616,-192,-120,14,3330,6627,3884,1745225355011260833
171808,-183,-116,7,3214,6597,3985,1745225355011260833
172000,-181,-107,6,3177,6589,4123,1745225355011260833
172192,-191,-91,7,3147,6564,4236,1745225355011260833
172384,-210,-68,13,3212,6487,4272,1745225355011260833
172576,-223,-43,21,3316,6391,4340,1745225355011260833
172768,-230,-17,28,3432,6345,4472,1745225355011260833
172960,-243,13,34,3613,6272,4707,1745225355011260833
173152,-260,46,40,3840,6122,4883,1745225355011260833
173344,-260,74,51,4111,5841,5071,1745225355011260833
173536,-239,96,65,4316,5521,5338,1745225355011260833
173728,-207,123,84,4476,5176,5576,1745225355011260833
173920,-168,160,111,4556,4826,5912,1745225355078216003
174112,-123,209,149,4627,4408,6193,1745225355078216003
174304,-72,269,199,4732,3993,6370,1745225355078216003
174496,-22,342,257,4859,3596,6551,1745225355078216003
174688,14,431,328,5049,3166,6682,1745225355078216003
174880,38,534,414,5301,2697,6747,1745225355078216003
175072,62,647,512,5534,2180,6832,1745225355078216003
175264,91,760,618,5837,1582,6843,1745225355078216003
175456,127,872,729,6090,849,6735,1745225355078216003
175648,175,984,847,6348,-8,6512,1745225355078216003
175840,243,1104,978,6509,-886,6357,1745225355078216003
176032,324,1245,1125,6665,-1676,5967,1745225355078216003
176224,394,1404,1284,6853,-2381,5340,1745225355129633241
176416,441,1580,1438,7092,-3058,4628,1745225355129633241
176608,491,1760,1596,7274,-3565,3937,1745225355129633241
176800,549,1937,1779,7469,-3922,3235,1745225355129633241
176992,603,2109,1978,7659,-4161,2642,1745225355129633241
177184,646,2276,2180,7846,-4333,2177,1745225355129633241
177376,676,2434,2384,8044,-4455,1780,1745225355129633241
177568,681,2580,2590,8263,-4513,1526,1745225355129633241
177760,649,2714,2801,8571,-4540,1300,1745225355129633241
177952,586,2832,3014,8992,-4632,962,1745225355129633241
178144,511,2925,3222,9539,-4765,573,1745225355129633241
178336,437,2989,3420,10125,-4902,134,1745225355129633241
178528,366,3031,3608,10722,-5000,-409,1745225355201435971
178720,296,3053,3777,11325,-5069,-953,1745225355201435971
178912,227,3052,3926,11856,-5110,-1442,1745225355201435971
179104,164,3026,4057,12357,-5127,-1899,1745225355201435971
179296,110,2977,4184,12815,-5085,-2199,1745225355201435971
179488,69,2900,4323,13248,-3642,-2888,1745225355201435971
179680,-43,2770,4347,12902,-16,-2918,1745225355201435971
179872,-122,2634,4219,13426,-4691,-2327,1745225355201435971
180064,-17,2521,4472,14233,-6475,-2857,1745225355201435971
180256,-123,2370,4857,14829,-7285,-3422,1745225355201435971
180448,-285,2233,5047,15541,-5983,-3322,1745225355201435971
180640,-641,2073,5343,16389,-5028,-3292,1745225355201435971
180832,-912,1840,5637,16897,-3883,-3349,1745225355311403872
181024,-1084,1667,5791,16822,-2628,-3801,1745225355311403872
181216,-1215,1483,5848,16536,-1824,-4150,1745225355311403872
181408,-1378,1314,5904,16338,-1779,-4286,1745225355311403872
181600,-1517,1112,6023,16700,-1908,-4136,1745225355311403872
181792,-1584,811,6231,17927,-1892,-3915,1745225355311403872
181984,-1618,407,6425,19543,-1801,-4039,1745225355311403872
182176,-1705,4,6467,21000,-1759,-4624,1745225355311403872
182368,-1880,-399,6326,22076,-1681,-4746,1745225355311403872
182560,-2136,-816,6091,22740,-1424,-4726,1745225355311403872
182752,-2447,-1250,5873,23182,-879,-4779,1745225355311403872
182944,-2782,-1716,5707,23494,98,-4726,1745225355311403872
183136,-3110,-2199,5585,23873,1279,-4624,1745225355321327480
183328,-3426,-2682,5464,24486,2483,-4402,1745225355321327480
183520,-3719,-3198,5341,24991,3834,-3598,1745225355321327480
183712,-3955,-3777,5263,25604,4956,-3130,1745225355321327480
183904,-4142,-4307,5187,25674,6150,-2816,1745225355321327480
184096,-4316,-4860,5089,25309,7000,-2276,1745225355321327480
184288,-4483,-5359,4923,24544,7459,-2143,1745225355321327480
184480,-4662,-5763,4710,23370,7817,-1743,1745225355321327480
184672,-4841,-6136,4463,22545,8031,-1314,1745225355321327480
184864,-5022,-6488,4155,21990,8298,-1082,1745225355321327480
185056,-5204,-6810,3826,21741,8643,-589,1745225355321327480
185248,-5362,-7127,3486,21695,9070,-122,1745225355321327480
185440,-5482,-7419,3138,21632,9555,121,1745225355364557918
185632,-5555,-7672,2786,21496,9992,436,1745225355364557918
185824,-5572,-7890,2451,21181,10406,724,1745225355364557918
186016,-5527,-8049,2132,20789,10709,968,1745225355364557918
186208,-5425,-8168,1808,20384,10933,1248,1745225355364557918
186400,-5278,-8260,1469,20188,10932,1347,1745225355364557918
186592,-5081,-8335,1107,20061,10708,1426,1745225355364557918
186784,-4832,-8398,723,19885,10371,1366,1745225355364557918
186976,-4549,-8411,324,19466,10015,1190,1745225355364557918
187168,-4255,-8376,-73,18896,9637,1073,1745225355364557918
187360,-3965,-8330,-448,18389,9308,988,1745225355364557918
187552,-3687,-8232,-790,17589,9075,883,1745225355364557918
187744,-3444,-8108,-1101,16992,8743,662,1745225355418957786
187936,-3201,-7977,-1358,16393,8765,563,1745225355418957786
188128,-2964,-7828,-1558,16168,8814,384,1745225355418957786
188320,-2730,-7644,-1756,15911,8685,383,1745225355418957786
188512,-2503,-7441,-1951,15533,8431,297,1745225355418957786
188704,-2293,-7232,-2130,15135,8119,91,1745225355418957786
188896,-2094,-7010,-2261,14625,7966,-56,1745225355418957786
189088,-1896,-6763,-2334,14358,7868,-96,1745225355418957786
189280,-1706,-6520,-2395,14254,7612,-115,1745225355418957786
189472,-1525,-6285,-2479,14194,7134,-155,1745225355418957786
189664,-1351,-6066,-2577,14076,6562,-113,1745225355418957786
189856,-1187,-5847,-2665,13943,6120,-264,1745225355418957786
190048,-1043,-5601,-2738,13810,5720,-562,1745225355480395766
190240,-919,-5347,-2807,13680,5244,-795,1745225355480395766
190432,-799,-5091,-2864,13468,4804,-907,1745225355480395766
190624,-674,-4837,-2895,13164,4458,-815,1745225355480395766
190816,-565,-4602,-2907,12807,4003,-841,1745225355480395766
191008,-475,-4391,-2911,12313,3447,-735,1745225355480395766
191200,-401,-4190,-2907,11702,2883,-601,1745225355480395766
191392,-354,-3980,-2897,11157,2330,-578,1745225355480395766
191584,-337,-3767,-2886,10584,1881,-483,1745225355480395766
191776,-317,-3535,-2864,10045,1655,-331,1745225355480395766
191968,-281,-3287,-2822,9636,1567,-398,1745225355480395766
192160,-222,-3045,-2770,9260,1483,-584,1745225355480395766
192352,-152,-2811,-2716,8893,1291,-849,1745225355536658377
192544,-86,-2574,-2653,8550,998,-1392,1745225355536658377
192736,-40,-2312,-2575,8281,625,-1875,1745225355536658377
192928,-13,-2042,-2471,8180,171,-2222,1745225355536658377
193120,28,-1773,-2353,8348,-338,-2450,1745225355536658377
193312,117,-1502,-2223,8700,-879,-2369,1745225355536658377
193504,262,-1249,-2072,9098,-1343,-1861,1745225355536658377
193696,415,-973,-1921,9168,-1802,-1987,1745225355536658377
193888,536,-719,-1771,9185,-2464,-2209,1745225355536658377
194080,675,-523,-1632,8844,-3021,-2160,1745225355536658377
194272,781,-334,-1515,8432,-3474,-2263,1745225355536658377
194464,809,-148,-1408,8172,-3892,-2285,1745225355536658377
194656,773,45,-1297,8119,-4337,-2311,1745225355597272511
194848,709,241,-1176,8146,-4651,-2328,1745225355597272511
195040,649,440,-1043,8183,-4818,-2327,1745225355597272511
195232,602,624,-929,8299,-4891,-2259,1745225355597272511
195424,572,774,-851,8469,-4885,-2139,1745225355597272511
195616,567,898,-790,8722,-4791,-2137,1745225355597272511
195808,574,1010,-748,8876,-4599,-2252,1745225355597272511
196000,592,1104,-721,8934,-4316,-2508,1745225355597272511
196192,620,1180,-704,8897,-4040,-2804,1745225355597272511
196384,669,1234,-700,8821,-3804,-3104,1745225355597272511
196576,739,1268,-708,8744,-3527,-3382,1745225355597272511
196768,806,1292,-715,8594,-3321,-4153,1745225355597272511
196960,681,1368,-598,8324,-3085,-4103,1745225355664985382
197152,564,1460,-433,9128,-3013,-4311,1745225355664985382
197344,858,1342,-534,8999,-2392,-4599,1745225355664985382
197536,993,1234,-829,9065,-2569,-4829,1745225355664985382
197728,1160,1138,-938,9378,-641,-4186,1745225355664985382
197920,1596,1146,-608,9106,-902,-5098,1745225355664985382
198112,1899,1239,-677,8236,-1979,-5388,1745225355664985382
198304,1973,1318,-878,8136,-2621,-5257,1745225355664985382
198496,1957,1356,-965,8264,-3204,-5285,1745225355664985382
198688,1894,1322,-961,8226,-3578,-5188,1745225355664985382
198880,1832,1320,-886,8277,-3687,-5094,1745225355664985382
199072,1673,1300,-768,8574,-3536,-4955,1745225355664985382
199264,1472,1235,-673,8521,-3370,-4783,1745225355711550634
199456,1282,1198,-623,7944,-3043,-4559,1745225355711550634
199648,1224,1216,-523,7803,-2988,-3411,1745225355711550634
199840,1307,1131,-410,9395,-3571,-6085,1745225355711550634
200032,1136,891,-421,10119,-4298,-7168,1745225355711550634
200224,702,718,-376,9377,-5410,-5883,1745225355711550634
200416,423,562,-203,8930,-6542,-5553,1745225355711550634
200608,386,420,6,8852,-7359,-5875,1745225355711550634
200800,414,265,230,8989,-8287,-5808,1745225355711550634
200992,441,27,479,9518,-9454,-5702,1745225355711550634
201184,420,-254,679,10111,-10577,-5903,1745225355711550634
201376,275,-498,695,10053,-11056,-6112,1745225355711550634
201568,-13,-645,486,9151,-10361,-6185,1745225355782377903
201760,-427,-649,131,7546,-8545,-6112,1745225355782377903
201952,-895,-533,-258,6069,-6044,-5945,1745225355782377903
202144,-1296,-373,-581,5169,-3453,-5848,1745225355782377903
202336,-1550,-214,-786,4762,-756,-5936,1745225355782377903
202528,-1673,-77,-861,4746,1794,-6265,1745225355782377903
202720,-1651,2,-816,4981,3953,-6879,1745225355782377903
202912,-1482,23,-676,5291,5608,-7253,1745225355782377903
203104,-1198,14,-479,5331,6641,-7372,1745225355782377903
203296,-842,-22,-271,5203,7004,-7151,1745225355782377903
203488,-484,-69,-113,4943,6676,-6876,1745225355782377903
203680,-170,-104,-29,4716,5699,-6862,1745225355782377903
203872,100,-151,12,4592,4332,-7211,1745225355833228949
204064,287,-206,37,4563,2907,-7723,1745225355833228949
204256,370,-254,48,4446,1602,-8019,1745225355833228949
204448,360,-298,35,4253,441,-8253,1745225355833228949
204640,308,-334,2,4000,-526,-8572,1745225355833228949
204832,237,-334,-34,3642,-1152,-8763,1745225355833228949
205024,150,-282,-55,3196,-1405,-8878,1745225355833228949
205216,55,-206,-59,2793,-1413,-8705,1745225355833228949
205408,-39,-113,-57,2551,-1263,-8371,1745225355833228949
205600,-127,-6,-47,2576,-1029,-8109,1745225355833228949
205792,-189,88,-30,2809,-746,-7933,1745225355833228949
205984,-231,158,-17,3155,-284,-7687,1745225355833228949
206176,-263,210,-21,3479,266,-7519,1745225355885738522
206368,-260,232,-25,3875,747,-7506,1745225355885738522
206560,-214,236,-33,4238,1107,-7420,1745225355885738522
206752,-138,234,-35,4471,1360,-7038,1745225355885738522
206944,-32,229,-12,4492,1378,-6837,1745225355885738522
207136,74,211,33,4517,1273,-6747,1745225355885738522
207328,140,181,92,4479,848,-6573,1745225355885738522
207520,197,127,153,4373,254,-6694,1745225355885738522
207712,246,79,176,4162,-92,-6799,1745225355885738522
207904,249,71,152,3915,-148,-6878,1745225355885738522
208096,228,91,115,3799,-108,-6984,1745225355885738522
208288,215,98,95,3933,-97,-7049,1745225355885738522
208480,200,101,100,4055,-199,-6859,1745225355946345468
208672,187,100,129,4104,-434,-6728,1745225355946345468
208864,180,89,150,4162,-686,-6579,1745225355946345468
209056,154,76,139,4169,-874,-6437,1745225355946345468
209248,105,57,99,4206,-921,-6606,1745225355946345468
209440,34,28,52,4258,-777,-6732,1745225355946345468
209632,-50,5,15,4159,-493,-6632,1745225355946345468
209824,-99,-9,10,4046,-205,-6397,1745225355946345468
210016,-93,-32,39,4053,-117,-6233,1745225355946345468
210208,-69,-65,78,4154,-241,-6216,1745225355946345468
210400,-49,-92,114,4154,-391,-6329,1745225355946345468
210592,-31,-102,152,4144,-503,-6475,1745225355946345468
210784,-31,-114,168,4262,-535,-6774,1745225356002745578
210976,-55,-140,163,4354,-412,-6923,1745225356002745578
211168,-76,-162,159,4308,-209,-7041,1745225356002745578
211360,-86,-177,158,4166,-6,-7288,1745225356002745578
211552,-82,-187,159,3989,83,-7493,1745225356002745578
211744,-64,-185,163,3867,4,-7566,1745225356002745578
211936,-35,-174,173,3762,-224,-7516,1745225356002745578
212128,-6,-159,183,3679,-514,-7438,1745225356002745578
212320,1,-144,184,3640,-761,-7315,1745225356002745578
212512,-17,-128,173,3624,-840,-7279,1745225356002745578
212704,-62,-103,157,3666,-705,-7409,1745225356002745578
212896,-113,-88,133,3773,-386,-7595,1745225356002745578
213088,-158,-78,114,3866,-31,-7698,1745225356062888778
213280,-174,-61,114,3999,230,-7791,1745225356062888778
213472,-144,-57,131,4143,387,-7649,1745225356062888778
213664,-104,-58,153,4143,257,-7475,1745225356062888778
213856,-57,-56,174,4053,8,-7252,1745225356062888778
214048,-24,-47,178,4005,-203,-7294,1745225356062888778
214240,-38,-33,162,4001,-299,-7289,1745225356062888778
214432,-74,-5,151,4000,-264,-7049,1745225356062888778
214624,-85,16,153,4076,-180,-7028,1745225356062888778
214816,-76,16,155,4086,-96,-6979,1745225356062888778
215008,-57,8,158,4007,-104,-6832,1745225356062888778
215200,-32,6,161,3864,-238,-6720,1745225356062888778
215392,-11,3,159,3674,-422,-6827,1745225356119619198
215584,3,-2,146,3554,-575,-6878,1745225356119619198
215776,11,-6,126,3672,-650,-7074,1745225356119619198
215968,9,-25,108,3882,-606,-7242,1745225356119619198
216160,-4,-39,90,3963,-489,-7493,1745225356119619198
216352,-20,-43,87,3877,-367,-7755,1745225356119619198
216544,-36,-35,95,3790,-370,-7812,1745225356119619198
216736,-25,-13,108,3665,-465,-7762,1745225356119619198
216928,12,19,115,3524,-617,-7520,1745225356119619198
217120,34,60,116,3501,-804,-7303,1745225356119619198
217312,32,91,112,3690,-999,-7173,1745225356119619198
217504,23,108,96,3974,-1002,-7221,1745225356119619198
217696,-3,113,80,4097,-734,-7092,1745225356185329847
217888,-39,113,70,4040,-479,-6850,1745225356185329847
218080,-53,104,70,3962,-366,-6826,1745225356185329847
218272,-43,85,77,3934,-385,-6664,1745225356185329847
218464,-20,71,90,3976,-756,-6750,1745225356185329847
218656,0,64,95,3795,-772,-7315,1745225356185329847
218848,-53,135,62,3292,-159,-6452,1745225356185329847
219040,-30,146,36,3599,-25,-7103,1745225356185329847
219232,28,128,21,3947,-259,-7455,1745225356185329847
219424,45,111,30,3916,-281,-7571,1745225356185329847
219616,66,122,32,3650,-335,-7603,1745225356185329847
219808,80,142,37,3486,-497,-7585,1745225356185329847
220000,106,160,53,3597,-638,-7659,1745225356236496984
220192,127,172,57,3759,-685,-7283,1745225356236496984
220384,117,187,50,3859,-742,-7267,1745225356236496984
220576,83,196,43,3930,-706,-7184,1745225356236496984
220768,50,192,43,4089,-735,-7042,1745225356236496984
220960,25,176,47,4338,-761,-7316,1745225356236496984
221152,-3,167,51,4314,-592,-7215,1745225356236496984
221344,-16,168,44,4112,-242,-7019,1745225356236496984
221536,7,167,31,3975,-263,-6721,1745225356236496984
221728,-14,126,18,4443,-1624,-6571,1745225356236496984
221920,-176,108,-1,4337,-2870,-6423,1745225356236496984
222112,-316,177,15,3851,-1501,-6679,1745225356236496984
222304,-314,232,12,3623,586,-7132,1745225356297917881
222496,-259,238,-40,3632,1559,-7259,1745225356297917881
222688,-189,253,-57,3836,1516,-7250,1745225356297917881
222880,-103,253,-12,3977,1026,-6955,1745225356297917881
223072,-5,232,45,4077,540,-6882,1745225356297917881
223264,48,193,77,4319,168,-6844,1745225356297917881
223456,84,145,95,4605,-302,-6725,1745225356297917881
223648,86,107,87,4424,-971,-6860,1745225356297917881
223840,18,100,75,4163,-1519,-6851,1745225356297917881
224032,-51,86,75,4366,-1475,-7061,1745225356297917881
224224,-112,64,72,4656,-1070,-7301,1745225356297917881
224416,-148,40,67,4833,-566,-7205,1745225356297917881
224608,-154,-5,50,4910,-258,-7150,1745225356354707415
224800,-141,-42,35,4594,72,-6870,1745225356354707415
224992,-104,-66,36,4299,362,-6664,1745225356354707415
225184,-67,-90,31,4178,363,-6764,1745225356354707415
225376,-58,-129,25,4286,66,-6568,1745225356354707415
225568,-83,-165,29,4540,-475,-6839,1745225356354707415
225760,-138,-189,38,4662,-948,-6612,1745225356354707415
225952,-212,-234,49,4721,-932,-6748,1745225356354707415
226144,-260,-264,56,4565,-407,-6708,1745225356354707415
226336,-287,-278,49,4387,132,-6678,1745225356354707415
226528,-301,-285,40,4234,426,-6694,1745225356354707415
226720,-290,-285,45,4138,544,-6527,1745225356354707415
291040,-304,25,29,3485,-1917,-6705,1745225358045233534
291232,-131,-57,50,3635,-1778,-7452,1745225358045233534
291424,-205,-60,50,3723,-1653,-7370,1745225358045233534
291616,-241,-32,-4,3822,-1335,-7507,1745225358045233534
291808,-261,-56,-41,3609,-920,-7743,1745225358045233534
292000,-302,-37,-19,3385,-734,-7707,1745225358045233534
292192,-291,-35,1,3672,-812,-7451,1745225358045233534
292384,-264,-57,-5,3758,-1068,-7251,1745225358045233534
292576,-251,-50,-11,3414,-1045,-7611,1745225358045233534
292768,-252,-56,8,3315,-585,-7560,1745225358045233534
292960,-244,-59,5,3775,-176,-7437,1745225358045233534
293152,-204,-54,-37,4003,-177,-7705,1745225358045233534
293344,-168,-69,-47,3785,-120,-7687,1745225358107170469
293536,-158,-16,-28,3528,-102,-7216,1745225358107170469
293728,-2,-18,-19,4038,720,-6298,1745225358107170469
293920,90,-96,-74,3149,96,-7865,1745225358107170469
294112,159,-126,-74,3441,-240,-6775,1745225358107170469
294304,242,-28,-102,2040,359,-6287,1745225358107170469
294496,300,90,-135,4213,-51,-7398,1745225358107170469
294688,213,-125,-206,5231,-1373,-7059,1745225358107170469
294880,117,-73,-179,4634,-2204,-6804,1745225358107170469
295072,43,-121,-179,3031,-2256,-6783,1745225358107170469
295264,0,-92,-169,2607,-1696,-7728,1745225358107170469
295456,-116,-64,-87,3042,-329,-8516,1745225358107170469
295648,-212,-32,23,3927,568,-8347,1745225358159328690
295840,-182,-32,73,3912,265,-8413,1745225358159328690
296032,-212,-55,131,2810,-514,-8722,1745225358159328690
296224,-240,-16,181,3087,329,-7333,1745225358159328690
296416,-36,21,73,3920,876,-6930,1745225358159328690
296608,123,20,-55,3510,-253,-6992,1745225358159328690
296800,125,40,-29,3353,-1162,-7178,1745225358159328690
296992,83,51,-5,3641,-1154,-6596,1745225358159328690
297184,63,53,-30,4283,-1082,-6571,1745225358159328690
297376,52,42,-53,4336,-849,-7312,1745225358159328690
297568,22,24,-43,3865,-607,-7182,1745225358159328690
297760,31,23,-5,3914,-767,-6299,1745225358159328690
297952,60,27,17,4186,-1088,-6441,1745225358217277900
298144,35,21,21,4055,-1015,-6942,1745225358217277900
298336,-10,28,27,4121,-593,-6980,1745225358217277900
298528,-21,23,14,4366,-229,-7300,1745225358217277900
298720,-32,6,2,4189,51,-7923,1745225358217277900
298912,-64,-13,24,3703,192,-7853,1745225358217277900
299104,-73,0,52,3837,298,-7188,1745225358217277900
299296,-29,17,24,4234,391,-7288,1745225358217277900
299488,-10,14,-8,4049,313,-7749,1745225358217277900
299680,-32,16,11,4012,265,-7552,1745225358217277900
299872,-28,18,18,4444,262,-7326,1745225358217277900
300064,4,4,-11,4507,127,-7823,1745225358217277900
300256,-2,-22,-13,3915,-166,-8048,1745225358277737296
300448,-16,-7,14,3735,-390,-7553,1745225358277737296
300640,26,23,6,4085,-489,-6853,1745225358277737296
300832,54,56,-38,4360,-698,-7369,1745225358277737296
301024,8,74,-52,4326,-755,-7749,1745225358277737296
301216,-47,112,-33,4689,-540,-7362,1745225358277737296
301408,-46,138,-52,5188,-275,-7151,1745225358277737296
301600,-66,148,-103,5346,-145,-7901,1745225358277737296
301792,-135,159,-112,5088,-130,-7963,1745225358277737296
301984,-187,204,-75,5105,-223,-7086,1745225358277737296
302176,-198,266,-79,5280,-406,-6687,1745225358277737296
302368,-252,309,-143,5418,-620,-6852,1745225358277737296
302560,-369,354,-218,5522,-668,-6710,1745225358334800889
302752,-468,416,-276,5951,-682,-6499,1745225358334800889
302944,-490,438,-345,6544,-768,-6535,1745225358334800889
303136,-465,381,-442,6817,-1056,-7020,1745225358334800889
303328,-492,261,-550,6940,-1597,-7762,1745225358334800889
303520,-577,123,-638,7082,-2174,-7997,1745225358334800889
303712,-652,0,-719,7175,-2579,-8028,1745225358334800889
303904,-713,-127,-833,7143,-2822,-7934,1745225358334800889
304096,-767,-265,-976,7363,-3082,-8247,1745225358334800889
304288,-807,-414,-1104,7665,-3095,-8219,1745225358334800889
304480,-855,-541,-1220,7865,-2943,-7886,1745225358334800889
304672,-922,-654,-1325,8063,-2885,-7486,1745225358334800889
304864,-952,-784,-1416,8416,-3312,-6821,1745225358400593569
305056,-804,-961,-1503,8603,-3813,-7340,1745225358400593569
305248,-593,-1091,-1587,8466,-3738,-7049,1745225358400593569
305440,-248,-1040,-1457,8773,-3526,-3728,1745225358400593569
305632,143,-1114,-1410,10304,-4132,-4658,1745225358400593569
305824,208,-1584,-1743,10468,-4933,-6557,1745225358400593569
306016,195,-1918,-2052,9096,-5172,-7168,1745225358400593569
306208,213,-1980,-2134,7677,-4919,-6747,1745225358400593569
306400,122,-1867,-1973,6810,-4483,-5471,1745225358400593569
306592,-348,-1023,-993,7755,-2971,-873,1745225358400593569
306784,-1525,-899,-462,11229,-3237,-2849,1745225358400593569
306976,-1983,-1780,-669,9543,-3240,-1762,1745225358400593569
307168,-1890,-1934,-689,7648,-2723,-3500,1745225358451605239
307360,-1737,-1702,-479,6790,-1637,-4022,1745225358451605239
307552,-1737,-1597,-282,6878,-1419,-3688,1745225358451605239
307744,-1679,-1642,-118,7116,-1792,-3284,1745225358451605239
307936,-1511,-1639,62,7256,-2314,-3293,1745225358451605239
308128,-1318,-1573,245,7323,-2683,-3555,1745225358451605239
308320,-1201,-1492,382,7075,-2857,-3737,1745225358451605239
308512,-1144,-1386,492,6662,-2929,-3808,1745225358451605239
308704,-1092,-1263,607,6305,-2821,-3751,1745225358451605239
308896,-1044,-1132,739,6083,-2606,-3567,1745225358451605239
309088,-1031,-991,884,6056,-2471,-3384,1745225358451605239
309280,-1045,-847,1034,6134,-2362,-3145,1745225358451605239
309472,-1068,-693,1187,6086,-2223,-2860,1745225358516634280
309664,-1105,-516,1330,5870,-2015,-2595,1745225358516634280
309856,-1160,-322,1447,5604,-1824,-2422,1745225358516634280
310048,-1219,-116,1545,5389,-1640,-2268,1745225358516634280
310240,-1271,98,1635,5341,-1414,-2117,1745225358516634280
310432,-1307,317,1723,5360,-1204,-1943,1745225358516634280
310624,-1320,540,1810,5370,-953,-1788,1745225358516634280
310816,-1308,762,1898,5406,-740,-1671,1745225358516634280
311008,-1279,982,1985,5392,-561,-1585,1745225358516634280
311200,-1239,1208,2071,5350,-330,-1500,1745225358516634280
311392,-1175,1444,2166,5418,-69,-1305,1745225358516634280
311584,-1082,1679,2269,5653,213,-1109,1745225358516634280
311776,-978,1913,2371,5902,451,-829,1745225358568135685
311968,-872,2159,2466,6184,661,-425,1745225358568135685
312160,-760,2410,2561,6527,931,-94,1745225358568135685
312352,-645,2663,2656,6957,1255,163,1745225358568135685
312544,-524,2912,2745,7393,1580,344,1745225358568135685
312736,-393,3153,2827,7896,1888,524,1745225358568135685
312928,-249,3380,2900,8387,2145,767,1745225358568135685
313120,-104,3589,2964,8859,2302,1022,1745225358568135685
313312,32,3795,3021,9333,2418,1043,1745225358568135685
313504,148,3981,3068,9690,2502,1118,1745225358568135685
313696,250,4183,3110,10097,2623,1117,1745225358568135685
313888,346,4403,3149,10590,2816,1178,1745225358568135685
314080,441,4639,3180,11188,3091,1247,1745225358627363946
314272,535,4888,3201,11910,3417,1401,1745225358627363946
314464,628,5144,3203,12665,3778,1494,1745225358627363946
314656,722,5398,3185,13263,4246,1564,1745225358627363946
314848,824,5663,3157,13895,4770,1554,1745225358627363946
315040,928,5925,3120,14489,5363,1665,1745225358627363946
315232,1027,6198,3070,15154,5986,1808,1745225358627363946
315424,1118,6464,3005,15900,6612,2133,1745225358627363946
315616,1210,6698,2918,16666,7094,2756,1745225358627363946
315808,1324,6897,2790,17658,7548,3065,1745225358627363946
316000,1400,7090,2624,18703,7875,3626,1745225358627363946
316192,1421,7167,2425,19751,8084,3875,1745225358627363946
316384,1429,7212,2200,20748,8294,4068,1745225358687406991
316576,1446,7235,1956,21527,8677,4225,1745225358687406991
316768,1483,7250,1682,22207,9492,4252,1745225358687406991
316960,1529,7256,1359,22748,10751,4170,1745225358687406991
317152,1567,7249,991,23210,12190,3993,1745225358687406991
317344,1598,7225,604,23523,13554,3697,1745225358687406991
317536,1625,7173,233,23732,14547,3329,1745225358687406991
317728,1656,7104,-110,23852,15237,3072,1745225358687406991
317920,1682,7033,-432,23907,15678,2798,1745225358687406991
318112,1675,6967,-746,23958,15781,2512,1745225358687406991
318304,1624,6907,-1061,24002,15540,2357,1745225358687406991
318496,1533,6861,-1380,23913,15191,2133,1745225358687406991
318688,1401,6834,-1704,23779,14907,1773,1745225358745580782
318880,1226,6825,-2038,23555,14740,1408,1745225358745580782
319072,1027,6828,-2367,23335,14679,1105,1745225358745580782
319264,827,6835,-2677,23284,14612,658,1745225358745580782
319456,630,6823,-2952,23355,14564,343,1745225358745580782
319648,446,6779,-3187,23428,14490,152,1745225358745580782
319840,284,6720,-3398,23307,14597,63,1745225358745580782
320032,141,6657,-3610,22960,14793,-493,1745225358745580782
320224,23,6585,-3829,22488,14833,-1196,1745225358745580782
320416,-39,6504,-4025,22136,14695,-1491,1745225358745580782
320608,-55,6400,-4186,21955,14527,-1267,1745225358745580782
320800,-44,6290,-4331,21750,14609,-1232,1745225358745580782
320992,-37,6153,-4477,21662,14595,-1549,1745225358807449071
321184,-22,5982,-4625,21532,14296,-1849,1745225358807449071
321376,17,5796,-4752,21486,13767,-2097,1745225358807449071
321568,76,5607,-4851,21314,13205,-2286,1745225358807449071
321760,132,5426,-4929,20993,12696,-2678,1745225358807449071
321952,173,5230,-5001,20601,12014,-3017,1745225358807449071
322144,210,5031,-5060,20050,11344,-3356,1745225358807449071
322336,244,4834,-5094,19520,10681,-3487,1745225358807449071
322528,266,4624,-5121,19043,10194,-3602,1745225358807449071
322720,261,4439,-5147,18533,9810,-4081,1745225358807449071
322912,238,4269,-5163,18085,9225,-4486,1745225358807449071
323104,246,4095,-5154,17703,8758,-4667,1745225358807449071
323296,275,3933,-5124,17426,8646,-4835,1745225358861683680
323488,284,3789,-5095,17239,8568,-5410,1745225358861683680
323680,297,3647,-5060,17040,8222,-5797,1745225358861683680
323872,369,3494,-5001,16802,7741,-6076,1745225358861683680
324064,493,3313,-4929,16544,7240,-6193,1745225358861683680
324256,646,3104,-4866,16276,6751,-6160,1745225358861683680
324448,811,2890,-4819,16019,6247,-6219,1745225358861683680
324640,984,2675,-4776,15845,5633,-6328,1745225358861683680
324832,1177,2454,-4723,15841,4898,-6321,1745225358861683680
325024,1370,2218,-4654,16037,4100,-6481,1745225358861683680
325216,1517,1951,-4580,16299,3167,-6531,1745225358861683680
325408,1631,1670,-4506,16417,2221,-6295,1745225358861683680
325600,1710,1394,-4446,16478,1263,-6068,1745225358927253915
325792,1756,1119,-4400,16496,312,-5853,1745225358927253915
325984,1773,843,-4345,16589,-606,-5622,1745225358927253915
326176,1778,591,-4277,16767,-1463,-5433,1745225358927253915
326368,1756,343,-4194,17172,-2347,-5295,1745225358927253915
326560,1692,81,-4094,17762,-3321,-5063,1745225358927253915
326752,1609,-192,-3963,18357,-4243,-4295,1745225358927253915
326944,1532,-466,-3807,18771,-5085,-3421,1745225358927253915
327136,1444,-751,-3644,18828,-5901,-2652,1745225358927253915
327328,1339,-1052,-3481,18423,-6696,-1924,1745225358927253915
327520,1211,-1371,-3318,17705,-7486,-1508,1745225358927253915
327712,1058,-1701,-3146,16769,-8233,-1067,1745225358927253915
327904,889,-1989,-2966,15622,-8825,-409,1745225358977678506
328096,706,-2224,-2769,14458,-9371,184,1745225358977678506
328288,435,-2398,-2551,13072,-9834,425,1745225358977678506
328480,19,-2380,-2246,12317,-10368,760,1745225358977678506
328672,-256,-2427,-2007,11328,-11065,2224,1745225358977678506
328864,-236,-2610,-1807,10481,-8329,3584,1745225358977678506
329056,57,-2913,-1375,8363,-7547,3352,1745225358977678506
329248,242,-2803,-1437,5592,-8088,2175,1745225358977678506
329440,284,-2468,-1496,3910,-7357,2514,1745225358977678506
329632,308,-2225,-1080,3781,-6758,3174,1745225358977678506
329824,311,-2117,-632,3798,-6164,3698,1745225358977678506
330016,219,-2100,-426,3839,-5860,4745,1745225358977678506
330208,166,-2159,-385,3785,-5131,5662,1745225359039355651
330400,157,-2109,-187,3760,-4087,6004,1745225359039355651
330592,193,-1967,196,3549,-3486,6060,1745225359039355651
330784,253,-1782,520,3421,-2961,6049,1745225359039355651
330976,249,-1695,609,3045,-2464,5963,1745225359039355651
331168,256,-1638,583,2399,-1921,6114,1745225359039355651
331360,299,-1494,591,1612,-1096,6528,1745225359039355651
331552,366,-1292,736,1003,134,6844,1745225359039355651
331744,361,-1082,934,841,1245,7200,1745225359039355651
331936,238,-953,910,602,2334,7379,1745225359039355651
332128,177,-817,791,388,3475,7889,1745225359039355651
332320,193,-645,707,426,4584,8041,1745225359039355651
332512,246,-502,693,726,5554,8190,1745225359094549626
332704,286,-395,694,1121,6408,8257,1745225359094549626
332896,333,-326,643,1297,7074,8337,1745225359094549626
333088,394,-241,534,1197,7772,8234,1745225359094549626
333280,439,-150,433,995,8455,8018,1745225359094549626
333472,483,-75,403,801,9015,7806,1745225359094549626
333664,562,-5,425,680,9383,7731,1745225359094549626
333856,668,67,448,617,9527,7615,1745225359094549626
334048,744,151,437,576,9506,7284,1745225359094549626
334240,785,228,402,627,9272,7228,1745225359094549626
334432,817,305,351,620,9120,7358,1745225359094549626
334624,814,398,300,527,9167,7340,1745225359094549626
334816,762,503,265,412,9417,7228,1745225359156647965
335008,700,623,245,442,9626,7122,1745225359156647965
335200,635,720,201,675,9566,6781,1745225359156647965
335392,581,785,115,1011,9314,6660,1745225359156647965
335584,531,833,16,1349,8972,6652,1745225359156647965
335776,473,866,-78,1604,8662,6821,1745225359156647965
335968,387,884,-159,1810,8672,6913,1745225359156647965
336160,304,839,-123,2253,9423,7103,1745225359156647965
336352,295,759,36,3163,9621,7078,1745225359156647965
336544,293,645,54,3581,9518,7161,1745225359156647965
336736,295,486,-18,3327,9768,7074,1745225359156647965
336928,324,368,-26,2891,9717,6657,1745225359156647965
337120,344,323,-23,2433,9398,6247,1745225359212854587
337312,332,323,-48,2163,8844,5819,1745225359212854587
337504,296,351,-91,2110,8318,5640,1745225359212854587
337696,248,364,-134,2200,7924,5488,1745225359212854587
337888,203,381,-138,2353,7814,5455,1745225359212854587
338080,154,381,-105,2676,7718,5569,1745225359212854587
338272,113,361,-77,2830,7630,5915,1745225359212854587
338464,81,322,-63,2725,7543,6061,1745225359212854587
338656,51,271,-50,2552,7467,6153,1745225359212854587
338848,27,226,-26,2359,7462,6152,1745225359212854587
339040,-4,194,1,2371,7274,6103,1745225359212854587
339232,-35,172,-7,2284,7029,6035,1745225359212854587
339424,-77,130,-64,2369,6590,6002,1745225359272005192
339616,-125,78,-152,2251,6261,5948,1745225359272005192
339808,-169,82,-202,2130,6146,5793,1745225359272005192
340000,-196,93,-185,2098,6145,5696,1745225359272005192
340192,-207,103,-141,2226,6248,5730,1745225359272005192
340384,-210,100,-102,2258,6624,5666,1745225359272005192
340576,-199,98,-75,2395,6811,5497,1745225359272005192
340768,-172,85,-83,2519,6817,5408,1745225359272005192
340960,-136,66,-99,2599,6656,5466,1745225359272005192
341152,-106,38,-99,2596,6335,5577,1745225359272005192
341344,-86,3,-87,2479,6005,5702,1745225359272005192
341536,-75,-27,-67,2230,5758,5690,1745225359272005192
341728,-74,-41,-49,2031,5495,5669,1745225359335816901
341920,-79,-43,-47,1871,5274,5660,1745225359335816901
342112,-94,-39,-48,1749,5103,5639,1745225359335816901
342304,-117,-32,-39,1682,5055,5671,1745225359335816901
342496,-146,-28,-18,1658,5111,5608,1745225359335816901
342688,-180,-28,11,1713,5237,5506,1745225359335816901
342880,-198,-42,35,1780,5291,5627,1745225359335816901
343072,-202,-65,45,1771,5290,5810,1745225359335816901
343264,-209,-89,55,1581,5325,5922,1745225359335816901
343456,-219,-111,74,1407,5288,5901,1745225359335816901
343648,-222,-123,94,1227,5252,5923,1745225359335816901
343840,-204,-121,104,1058,5174,5869,1745225359335816901
344032,-181,-109,97,939,5023,5562,1745225359387323410
344224,-153,-83,84,831,4923,5228,1745225359387323410
344416,-116,-46,78,762,4923,4826,1745225359387323410
344608,-79,-5,81,774,5004,4637,1745225359387323410
344800,-41,42,92,748,5185,4657,1745225359387323410
344992,-10,94,110,734,5394,4639,1745225359387323410
345184,11,136,134,788,5530,4673,1745225359387323410
345376,26,165,154,897,5580,4908,1745225359387323410
345568,25,186,163,911,5686,5293,1745225359387323410
345760,-4,205,169,921,5814,5503,1745225359387323410
345952,-53,213,176,960,5928,5463,1745225359387323410
346144,-85,202,181,1036,6045,5322,1745225359387323410
346336,-87,181,181,1182,6176,5060,1745225359445369390
346528,-70,165,173,1411,6313,4928,1745225359445369390
346720,-48,150,153,1638,6402,4857,1745225359445369390
346912,-34,124,122,1813,6441,4866,1745225359445369390
347104,-26,85,89,1845,6502,5051,1745225359445369390
347296,-34,46,58,1696,6625,5161,1745225359445369390
347488,-48,15,29,1488,6726,5193,1745225359445369390
347680,-57,-11,1,1310,6758,5076,1745225359445369390
347872,-61,-27,-24,1202,6751,4990,1745225359445369390
348064,-65,-38,-44,1193,6729,4963,1745225359445369390
348256,-75,-39,-58,1205,6682,5089,1745225359445369390
348448,-89,-38,-66,1167,6725,5198,1745225359445369390
348640,-107,-39,-69,1112,6772,5175,1745225359505456393
348832,-116,-41,-69,1111,6723,5179,1745225359505456393
349024,-115,-45,-71,1131,6673,5273,1745225359505456393
349216,-120,-41,-70,1131,6641,5353,1745225359505456393
349408,-129,-35,-72,1120,6634,5366,1745225359505456393
349600,-131,-30,-74,1094,6758,5398,1745225359505456393
349792,-126,-26,-82,1135,6899,5535,1745225359505456393
349984,-117,-30,-98,1231,6957,5632,1745225359505456393
350176,-103,-47,-120,1377,6860,5640,1745225359505456393
350368,-76,-71,-145,1501,6694,5628,1745225359505456393
350560,-48,-90,-173,1569,6498,5475,1745225359505456393
350752,-26,-111,-209,1548,6382,5389,1745225359505456393
350944,-9,-128,-247,1457,6385,5311,1745225359563560914
351136,-2,-132,-280,1302,6484,5240,1745225359563560914
351328,-1,-123,-304,1214,6647,5144,1745225359563560914
351520,-6,-113,-320,1246,6794,5069,1745225359563560914
351712,-12,-105,-327,1378,6888,5133,1745225359563560914
351904,-25,-98,-326,1533,6883,5114,1745225359563560914
352096,-40,-98,-321,1629,6771,5176,1745225359563560914
352288,-45,-97,-318,1611,6657,5157,1745225359563560914
352480,-45,-88,-314,1553,6555,5046,1745225359563560914
352672,-41,-76,-308,1588,6453,4985,1745225359563560914
352864,-34,-66,-305,1662,6359,4971,1745225359563560914
353056,-41,-56,-307,1798,6285,4979,1745225359563560914
353248,-56,-60,-306,1945,6226,5181,1745225359620532790
353440,-67,-72,-305,2051,6300,5285,1745225359620532790
353632,-84,-85,-309,2096,6378,5196,1745225359620532790
353824,-96,-110,-318,2186,6476,5132,1745225359620532790
354016,-94,-137,-330,2251,6585,5179,1745225359620532790
354208,-90,-162,-344,2325,6650,5196,1745225359620532790
354400,-86,-183,-353,2401,6611,5095,1745225359620532790
354592,-61,-208,-359,2528,6420,4963,1745225359620532790
354784,-19,-238,-361,2621,6170,4785,1745225359620532790
354976,24,-267,-361,2621,5992,4766,1745225359620532790
355168,53,-286,-356,2492,5925,4776,1745225359620532790
355360,66,-296,-350,2284,5975,4801,1745225359620532790
355552,70,-298,-341,2139,6017,4833,1745225359681147444
355744,70,-301,-327,2119,5957,4982,1745225359681147444
355936,68,-298,-310,2126,5807,5043,1745225359681147444
356128,60,-297,-284,2184,5640,5068,1745225359681147444
356320,50,-294,-257,2194,5503,5101,1745225359681147444
356512,41,-287,-237,2140,5418,5075,1745225359681147444
356704,34,-277,-222,2118,5402,5033,1745225359681147444
356896,31,-263,-213,2071,5392,4981,1745225359681147444
357088,30,-243,-204,2086,5436,4990,1745225359681147444
357280,30,-226,-192,2199,5488,5034,1745225359681147444
357472,34,-219,-180,2343,5437,5119,1745225359681147444
357664,47,-224,-171,2408,5385,5331,1745225359681147444
357856,63,-237,-159,2424,5280,5430,1745225359749652444
358048,75,-250,-148,2357,5175,5447,1745225359749652444
358240,93,-259,-136,2252,5202,5437,1745225359749652444
358432,107,-247,-120,2052,5391,5223,1745225359749652444
358624,113,-220,-103,2029,5570,5135,1745225359749652444
358816,116,-231,-115,2070,5594,5132,1745225359749652444
359008,105,-219,-152,2159,5559,5075,1745225359749652444
359200,100,-216,-154,2150,5666,5134,1745225359749652444
359392,111,-187,-113,2110,5696,5184,1745225359749652444
359584,126,-174,-79,2002,5763,5205,1745225359749652444
359776,139,-148,-68,1812,5689,5133,1745225359749652444
359968,142,-125,-71,1631,5604,5139,1745225359749652444
360160,123,-89,-66,1519,5655,5140,1745225359800885257
360352,94,-52,-40,1552,5841,5277,1745225359800885257
360544,59,-16,-8,1743,6091,5307,1745225359800885257
360736,28,8,16,2010,6275,5339,1745225359800885257
360928,18,15,30,2203,6372,5363,1745225359800885257
361120,23,13,37,2254,6391,5286,1745225359800885257
361312,37,8,35,2275,6411,5300,1745225359800885257
361504,55,11,22,2274,6465,5258,1745225359800885257
361696,71,6,3,2313,6514,5281,1745225359800885257
361888,88,3,-17,2303,6641,5319,1745225359800885257
362080,105,4,-41,2229,6783,5237,1745225359800885257
362272,119,4,-68,2156,6916,5208,1745225359800885257
362464,132,4,-94,2056,7009,5236,1745225359854874243
362656,144,4,-112,2006,7026,5267,1745225359854874243
362848,157,2,-124,1939,6942,5280,1745225359854874243
363040,166,-3,-134,1865,6805,5330,1745225359854874243
363232,170,-1,-139,1722,6618,5355,1745225359854874243
363424,158,8,-141,1609,6350,5356,1745225359854874243
363616,145,20,-137,1465,6044,5456,1745225359854874243
363808,133,35,-124,1312,5830,5538,1745225359854874243
364000,115,60,-107,1111,5790,5526,1745225359854874243
364192,87,97,-90,945,5837,5442,1745225359854874243
364384,65,138,-72,908,5971,5442,1745225359854874243
364576,49,181,-53,993,6154,5363,1745225359854874243
364768,37,217,-31,1192,6312,5394,1745225359915197338
364960,37,244,-10,1385,6478,5480,1745225359915197338
365152,42,258,8,1541,6561,5453,1745225359915197338
365344,60,260,22,1637,6567,5476,1745225359915197338
365536,93,255,29,1663,6447,5474,1745225359915197338
365728,131,245,28,1627,6299,5517,1745225359915197338
365920,162,243,25,1506,6191,5432,1745225359915197338
366112,176,246,20,1372,6182,5251,1745225359915197338
366304,179,259,16,1300,6274,5070,1745225359915197338
366496,173,276,17,1325,6422,4964,1745225359915197338
366688,161,296,25,1388,6561,4885,1745225359915197338
366880,143,314,41,1469,6670,4802,1745225359915197338
367072,133,322,61,1606,6741,4888,1745225359973271338
367264,128,326,82,1708,6772,4915,1745225359973271338
367456,121,327,98,1771,6707,4848,1745225359973271338
367648,120,324,110,1795,6609,4736,1745225359973271338
367840,119,326,119,1779,6544,4611,1745225359973271338
368032,115,336,129,1780,6561,4499,1745225359973271338
368224,114,347,139,1858,6611,4407,1745225359973271338
368416,118,346,147,1983,6679,4538,1745225359973271338
368608,127,338,151,2036,6773,4665,1745225359973271338
368800,139,326,156,2070,6817,4714,1745225359973271338
368992,164,308,162,2120,6798,4797,1745225359973271338
369184,184,282,166,2139,6718,4739,1745225359973271338
369376,190,256,171,2092,6589,4710,1745225360030541596
369568,189,240,181,1962,6563,4741,1745225360030541596
369760,169,240,191,1871,6573,4697,1745225360030541596
369952,143,240,198,1880,6571,4704,1745225360030541596
370144,127,238,205,1934,6529,4757,1745225360030541596
370336,121,233,212,2000,6459,4813,1745225360030541596
370528,121,233,220,2006,6423,4783,1745225360030541596
370720,127,240,226,1982,6445,4736,1745225360030541596
370912,140,247,231,1929,6510,4780,1745225360030541596
371104,153,259,234,1885,6587,4774,1745225360030541596
371296,171,266,245,1894,6569,4849,1745225360030541596
371488,192,266,258,1909,6511,4952,1745225360030541596
371680,201,262,268,1874,6454,5040,1745225360090546465
371872,197,264,274,1749,6417,5088,1745225360090546465
372064,183,268,279,1654,6377,5051,1745225360090546465
372256,175,267,285,1606,6318,5077,1745225360090546465
372448,178,264,297,1528,6283,5069,1745225360090546465
372640,179,261,307,1464,6331,5016,1745225360090546465
372832,176,262,315,1345,6468,5054,1745225360090546465
373024,173,267,322,1247,6652,5134,1745225360090546465
373216,167,274,331,1242,6796,5184,1745225360090546465
373408,168,272,339,1249,6899,5258,1745225360090546465
373600,166,265,340,1220,6964,5240,1745225360090546465
373792,160,255,342,1165,6930,5243,1745225360090546465
373984,159,242,336,1122,6823,5201,1745225360153646774
374176,163,228,323,1027,6720,5157,1745225360153646774
374368,170,217,310,896,6726,5141,1745225360153646774
374560,161,215,299,740,6837,5051,1745225360153646774
374752,136,214,288,630,6993,4969,1745225360153646774
374944,118,214,277,568,7168,4887,1745225360153646774
375136,112,213,270,588,7333,4808,1745225360153646774
375328,116,204,265,652,7458,4751,1745225360153646774
375520,125,188,260,731,7495,4742,1745225360153646774
375712,134,166,256,744,7520,4846,1745225360153646774
375904,133,145,251,656,7522,4844,1745225360153646774
376096,126,122,241,521,7489,4843,1745225360153646774
376288,124,101,228,436,7420,4781,1745225360207289044
376480,123,79,214,463,7315,4758,1745225360207289044
376672,116,57,197,526,7217,4880,1745225360207289044
376864,93,38,183,608,7215,4961,1745225360207289044
377056,61,24,172,687,7173,4908,1745225360207289044
377248,41,3,159,688,7165,4889,1745225360207289044
377440,39,-19,146,593,7205,4937,1745225360207289044
377632,35,-32,133,461,7270,4888,1745225360207289044
377824,33,-32,124,405,7302,4797,1745225360207289044
378016,46,-29,117,487,7293,4704,1745225360207289044
378208,58,-24,107,638,7221,4620,1745225360207289044
378400,72,-20,99,841,7105,4618,1745225360207289044
378592,88,-21,98,1031,6947,4623,1745225360269239520
378784,98,-27,99,1105,6827,4639,1745225360269239520
378976,104,-31,100,1076,6792,4662,1745225360269239520
379168,104,-31,100,1008,6839,4645,1745225360269239520
379360,96,-26,97,1020,6915,4619,1745225360269239520
379552,81,-23,96,1157,6941,4682,1745225360269239520
379744,64,-22,101,1382,6910,4744,1745225360269239520
379936,47,-29,106,1619,6831,4823,1745225360269239520
380128,36,-42,107,1807,6682,4897,1745225360269239520
380320,33,-62,103,1939,6501,4998,1745225360269239520
380512,34,-85,97,1934,6286,5052,1745225360269239520
380704,32,-103,91,1846,6103,5062,1745225360269239520
380896,30,-102,89,1742,5937,4956,1745225360342186510
381088,35,-85,98,1729,5852,4825,1745225360342186510
381280,50,-62,113,1783,5794,4748,1745225360342186510
381472,70,-42,134,1878,5784,4818,1745225360342186510
381664,96,-22,161,1961,5841,5061,1745225360342186510
381856,109,-8,188,1999,5848,5270,1745225360342186510
382048,112,2,213,2012,5830,5497,1745225360342186510
382240,112,10,236,2004,5708,5625,1745225360342186510
382432,101,19,258,1975,5544,5666,1745225360342186510
382624,89,34,279,1956,5407,5694,1745225360342186510
382816,75,60,301,1953,5312,5634,1745225360342186510
383008,62,92,321,1997,5241,5643,1745225360342186510
383200,57,128,339,2021,5202,5661,1745225360401165971
383392,55,167,360,2058,5219,5662,1745225360401165971
383584,66,206,380,2055,5302,5777,1745225360401165971
383776,76,247,398,2030,5430,5766,1745225360401165971
383968,77,289,412,2043,5568,5799,1745225360401165971
384160,77,335,426,2131,5706,5861,1745225360401165971
384352,75,379,437,2307,5814,5890,1745225360401165971
384544,72,413,447,2447,5863,5896,1745225360401165971
384736,70,437,451,2572,5846,5851,1745225360401165971
384928,78,453,455,2645,5726,5840,1745225360401165971
385120,96,469,457,2622,5580,5838,1745225360401165971
385312,110,494,458,2501,5463,5722,1745225360401165971
385504,116,527,459,2384,5384,5622,1745225360441772371
385696,118,572,465,2284,5413,5614,1745225360441772371
385888,118,624,476,2262,5519,5715,1745225360441772371
386080,110,678,491,2357,5655,5784,1745225360441772371
386272,100,726,510,2529,5691,5810,1745225360441772371
386464,104,759,529,2715,5570,5888,1745225360441772371
386656,121,779,547,2820,5396,6020,1745225360441772371
386848,130,798,562,2754,5217,6168,1745225360441772371
387040,125,827,575,2610,5088,6324,1745225360441772371
387232,112,870,593,2460,5054,6429,1745225360441772371
387424,97,927,616,2377,5165,6487,1745225360441772371
387616,83,993,646,2449,5303,6562,1745225360441772371
387808,71,1060,677,2628,5417,6631,1745225360553131250
388000,67,1130,707,2809,5480,6663,1745225360553131250
388192,84,1204,741,3054,5484,6617,1745225360553131250
388384,123,1273,776,3287,5320,6417,1745225360553131250
388576,172,1329,805,3560,4978,6298,1745225360553131250
388768,234,1380,831,3779,4500,6281,1745225360553131250
388960,297,1432,858,3939,3936,6283,1745225360553131250
389152,351,1483,888,4021,3346,6278,1745225360553131250
389344,392,1535,919,4080,2812,6257,1745225360553131250
389536,405,1587,956,4160,2320,6341,1745225360553131250
389728,394,1634,1007,4264,1865,6531,1745225360553131250
389920,371,1681,1072,4435,1365,6718,1745225360553131250
390112,351,1726,1144,4641,913,6916,1745225360572687634
390304,319,1777,1221,4869,621,7159,1745225360572687634
390496,263,1860,1310,5177,469,7097,1745225360572687634
390688,193,1955,1406,5609,420,6778,1745225360572687634
390880,169,2066,1519,6164,539,6288,1745225360572687634
391072,196,2174,1640,6732,704,5719,1745225360572687634
391264,255,2269,1761,7257,721,5157,1745225360572687634
391456,346,2355,1884,7708,546,4702,1745225360572687634
391648,466,2434,2012,8057,159,4303,1745225360572687634
391840,600,2503,2142,8309,-403,3741,1745225360572687634
392032,723,2564,2267,8446,-1101,3038,1745225360572687634
392224,809,2616,2388,8560,-1856,2277,1745225360572687634
392416,860,2661,2506,8704,-2565,1608,1745225360619850171
392608,884,2699,2621,8891,-3103,1014,1745225360619850171
392800,870,2723,2738,9057,-3476,597,1745225360619850171
392992,830,2733,2868,9231,-3685,582,1745225360619850171
393184,791,2740,3001,9312,-3529,813,1745225360619850171
393376,696,2747,3142,9341,-3082,1061,1745225360619850171
393568,514,2747,3302,9433,-2662,1092,1745225360619850171
393760,289,2735,3480,9750,-2359,1011,1745225360619850171
393952,75,2694,3681,10112,-2166,773,1745225360619850171
394144,-106,2655,3896,10553,-1925,346,1745225360619850171
394336,-256,2600,4116,10966,-1678,-288,1745225360619850171
394528,-385,2548,4332,11343,-1512,-1067,1745225360619850171
394720,-495,2484,4541,11621,-1465,-1787,1745225360681100966
394912,-595,2431,4752,11866,-1539,-2496,1745225360681100966
395104,-698,2389,4967,12078,-1658,-3127,1745225360681100966
395296,-819,2359,5176,12268,-1793,-3558,1745225360681100966
395488,-973,2342,5373,12476,-1893,-3740,1745225360681100966
395680,-1166,2333,5555,12745,-1950,-3723,1745225360681100966
395872,-1409,2335,5730,13113,-1972,-3605,1745225360681100966
396064,-1703,2327,5893,13668,-2019,-3445,1745225360681100966
396256,-2035,2281,6044,14420,-2070,-3196,1745225360681100966
396448,-2389,2203,6180,15303,-2103,-2677,1745225360681100966
396640,-2773,2087,6307,16384,-2105,-1893,1745225360681100966
396832,-3177,1905,6423,17665,-2175,-1024,1745225360681100966
397024,-3595,1651,6514,18917,-2222,-339,1745225360736315253
397216,-4038,1327,6572,20025,-2154,311,1745225360736315253
397408,-4513,961,6596,21023,-1949,997,1745225360736315253
397600,-5016,553,6579,21793,-1448,1736,1745225360736315253
397792,-5646,45,6466,22310,-854,2740,1745225360736315253
397984,-6116,-492,6311,23498,-1319,3587,1745225360736315253
398176,-6464,-1047,6130,24376,-1021,4834,1745225360736315253
398368,-6801,-1632,5899,25263,-524,5477,1745225360736315253
398560,-7176,-2283,5615,26038,-60,6470,1745225360736315253
398752,-7572,-3007,5285,25993,366,7298,1745225360736315253
398944,-7962,-3741,4921,26839,805,7843,1745225360736315253
399136,-8335,-4402,4579,27751,1547,8935,1745225360736315253
399328,-8587,-5103,4212,28466,2414,9712,1745225360797236103
399520,-8818,-5854,3788,28490,3143,10315,1745225360797236103
399712,-9043,-6577,3336,28032,3921,10834,1745225360797236103
399904,-9281,-7224,2851,27139,4543,11306,1745225360797236103
400096,-9509,-7809,2340,25964,5134,11763,1745225360797236103
400288,-9711,-8296,1821,24556,5873,11683,1745225360797236103
400480,-9885,-8649,1315,22933,6770,11600,1745225360797236103
400672,-10012,-8899,843,21354,7684,11685,1745225360797236103
400864,-10037,-9073,419,20204,8456,11397,1745225360797236103
401056,-9910,-9184,16,19433,9083,10983,1745225360797236103
401248,-9622,-9217,-407,18930,9623,10351,1745225360797236103
401440,-9196,-9204,-856,18847,9961,9418,1745225360797236103
401632,-8690,-9201,-1334,19083,9926,8449,1745225360854752296
401824,-8189,-9216,-1817,19258,9443,7519,1745225360854752296
402016,-7740,-9211,-2275,19001,8628,6585,1745225360854752296
402208,-7308,-9140,-2690,18477,7762,5737,1745225360854752296
402400,-6854,-9008,-3080,17726,7297,4777,1745225360854752296
402592,-6343,-8752,-3457,17038,7290,3732,1745225360854752296
402784,-5754,-8438,-3804,16568,7641,2666,1745225360854752296
402976,-5116,-8095,-4125,16433,8034,1605,1745225360854752296
403168,-4468,-7765,-4411,16526,8269,610,1745225360854752296
403360,-3811,-7433,-4634,16621,8280,-122,1745225360854752296
403552,-3135,-7095,-4765,16842,8104,-582,1745225360854752296
403744,-2464,-6793,-4812,17147,7678,-745,1745225360854752296
403936,-1833,-6521,-4828,17227,7096,-953,1745225360913986026
404128,-1268,-6255,-4848,17028,6297,-1264,1745225360913986026
404320,-798,-5997,-4873,16644,5349,-1527,1745225360913986026
404512,-415,-5750,-4888,16126,4444,-1669,1745225360913986026
404704,-101,-5504,-4870,15773,3677,-1861,1745225360913986026
404896,158,-5284,-4823,15601,3158,-1619,1745225360913986026
405088,376,-5072,-4771,15515,2847,-1478,1745225360913986026
405280,560,-4882,-4736,15519,2700,-1423,1745225360913986026
405472,706,-4721,-4727,15402,2537,-1576,1745225360913986026
405664,814,-4579,-4727,15113,2314,-1830,1745225360913986026
405856,907,-4427,-4698,14573,2073,-2279,1745225360913986026
406048,992,-4267,-4621,13967,1765,-2732,1745225360913986026
406240,1061,-4107,-4512,13359,1355,-3093,1745225360982363995
406432,1130,-3951,-4371,12760,904,-3326,1745225360982363995
406624,1208,-3803,-4216,12177,388,-3195,1745225360982363995
406816,1291,-3648,-4058,11704,-219,-3129,1745225360982363995
407008,1366,-3480,-3909,11146,-678,-2808,1745225360982363995
407200,1419,-3296,-3766,10661,-1040,-2531,1745225360982363995
407392,1434,-3092,-3626,10267,-1451,-2487,1745225360982363995
407584,1410,-2895,-3495,9972,-1903,-2550,1745225360982363995
407776,1356,-2704,-3361,9782,-2312,-2529,1745225360982363995
407968,1291,-2516,-3217,9718,-2475,-2444,1745225360982363995
408160,1222,-2323,-3061,9582,-2727,-2451,1745225360982363995
408352,1167,-2112,-2898,9534,-2797,-2218,1745225360982363995
408544,1140,-1915,-2739,9464,-2730,-1967,1745225361028384669
408736,1098,-1697,-2589,9126,-2804,-2052,1745225361028384669
408928,1044,-1498,-2417,8851,-3069,-2012,1745225361028384669
409120,1013,-1343,-2255,8425,-3462,-1754,1745225361028384669
409312,971,-1200,-2121,7985,-3826,-1749,1745225361028384669
409504,893,-1039,-1991,7648,-4106,-1713,1745225361028384669
409696,800,-857,-1842,7453,-4135,-1704,1745225361028384669
409888,706,-658,-1677,7274,-3952,-1784,1745225361028384669
410080,606,-447,-1530,7094,-3724,-1982,1745225361028384669
410272,519,-213,-1409,6863,-3490,-2115,1745225361028384669
410464,474,31,-1291,6838,-3245,-2285,1745225361028384669
410656,474,259,-1174,6840,-2952,-2490,1745225361028384669
410848,511,471,-1059,6884,-2669,-2484,1745225361088872085
411040,579,672,-957,6955,-2391,-2487,1745225361088872085
411232,662,857,-882,7039,-2168,-2554,1745225361088872085
411424,737,1019,-836,7052,-2046,-2546,1745225361088872085
411616,820,1165,-799,6981,-1866,-2455,1745225361088872085
411808,914,1304,-748,6943,-1670,-2406,1745225361088872085
412000,995,1421,-698,6995,-1498,-2270,1745225361088872085
412192,1060,1519,-643,6958,-1680,-2423,1745225361088872085
412384,648,1721,-353,6046,-2391,-3268,1745225361088872085
412576,180,1886,126,6723,-1790,-1346,1745225361088872085
412768,492,1862,45,7228,-1659,-1747,1745225361088872085
412960,679,1855,-339,7540,-2056,-1665,1745225361088872085
413152,954,1656,-858,8322,1046,-860,1745225361145426777
413344,1464,1510,-663,7492,1827,-2239,1745225361145426777
413536,1570,2013,-417,6481,-52,-3686,1745225361145426777
413728,1444,2239,-388,6478,-1408,-2723,1745225361145426777
413920,1488,2310,-382,7426,-2014,-3020,1745225361145426777
414112,1581,2210,-328,7921,-2229,-3015,1745225361145426777
414304,1628,2099,-315,8076,-2399,-3262,1745225361145426777
414496,1582,2050,-422,8001,-2631,-3485,1745225361145426777
414688,1478,2025,-575,7995,-2703,-3438,1745225361145426777
414880,1387,2004,-628,8061,-2307,-3270,1745225361145426777
415072,1341,1918,-511,8180,-1727,-3229,1745225361145426777
415264,1334,1814,-313,8179,-1365,-3463,1745225361145426777
415456,1341,1730,-164,7859,-1270,-3407,1745225361207453241
415648,1362,1643,-89,7484,-1512,-3220,1745225361207453241
415840,1383,1573,-114,7181,-2164,-3264,1745225361207453241
416032,1379,1493,-207,6908,-2942,-3340,1745225361207453241
416224,1343,1418,-299,6693,-3626,-3424,1745225361207453241
416416,1277,1370,-341,6510,-4083,-3539,1745225361207453241
416608,1175,1337,-324,6393,-4326,-3544,1745225361207453241
416800,1047,1293,-278,6289,-4317,-3533,1745225361207453241
416992,888,1245,-235,6207,-4157,-3508,1745225361207453241
417184,720,1185,-204,6071,-3856,-3462,1745225361207453241
417376,556,1119,-190,5959,-3510,-3386,1745225361207453241
417568,413,1054,-190,5799,-3141,-3218,1745225361207453241
417760,281,998,-201,5662,-2957,-2799,1745225361262415343
417952,127,838,-220,6435,-3386,-4223,1745225361262415343
418144,-173,570,-234,7380,-4085,-5441,1745225361262415343
418336,-630,360,-193,7291,-4751,-5005,1745225361262415343
418528,-1103,192,-66,6828,-5154,-4914,1745225361262415343
418720,-1465,-4,87,6781,-4953,-6445,1745225361262415343
418912,-1703,-271,225,7424,-3985,-9433,1745225361262415343
419104,-1819,-641,329,8293,-2236,-11753,1745225361262415343
419296,-1783,-1005,359,8217,188,-11900,1745225361262415343
419488,-1639,-1245,281,7706,2497,-11162,1745225361262415343
419680,-1408,-1376,117,7301,4121,-10049,1745225361262415343
419872,-1082,-1434,-63,6856,4900,-9411,1745225361262415343
420064,-704,-1470,-199,6017,5099,-9096,1745225361322714740
420256,-333,-1473,-259,4565,4914,-8929,1745225361322714740
420448,44,-1380,-223,2720,4507,-9050,1745225361322714740
420640,384,-1192,-133,1235,3844,-9312,1745225361322714740
420832,617,-972,-60,661,2735,-9470,1745225361322714740
421024,703,-823,-7,1219,1081,-9948,1745225361322714740
421216,646,-749,65,2436,-900,-10093,1745225361322714740
421408,504,-733,218,3570,-2779,-9573,1745225361322714740
421600,336,-692,419,4062,-4091,-8921,1745225361322714740
421792,160,-615,575,3945,-4456,-8478,1745225361322714740
421984,-32,-493,582,3568,-3871,-8311,1745225361322714740
422176,-227,-359,439,3556,-2846,-8187,1745225361322714740
422368,-359,-241,244,3898,-1907,-8007,1745225361395876989
422560,-388,-151,94,4423,-1032,-8015,1745225361395876989
422752,-373,-84,9,4805,-183,-8353,1745225361395876989
422944,-367,-35,-31,4889,603,-8463,1745225361395876989
423136,-335,-11,-30,4773,1109,-7927,1745225361395876989
423328,-239,5,-19,4450,1218,-7199,1745225361395876989
423520,-93,21,-7,4198,937,-6850,1745225361395876989
423712,33,37,-9,4155,500,-6908,1745225361395876989
423904,92,60,-6,4225,121,-7062,1745225361395876989
424096,85,99,15,4317,-182,-7119,1745225361395876989
424288,41,129,46,4358,-334,-7092,1745225361395876989
424480,0,142,76,4344,-405,-6888,1745225361395876989
424672,-26,144,93,4332,-372,-6783,1745225361437435724
424864,-53,141,99,4382,-242,-6620,1745225361437435724
425056,-93,137,107,4546,-62,-6602,1745225361437435724
425248,-140,110,121,4736,181,-6748,1745225361437435724
425440,-171,72,144,4713,428,-6334,1745225361437435724
425632,-162,35,170,4712,468,-6100,1745225361437435724
425824,-166,18,219,4296,239,-5904,1745225361437435724
426016,-169,50,325,4613,359,-5552,1745225361437435724
426208,41,-78,199,4669,-200,-5671,1745225361437435724
426400,-18,-35,24,4664,-515,-6343,1745225361437435724
426592,-111,-15,97,4935,-393,-6605,1745225361437435724
426784,-199,-55,250,5027,-36,-6691,1745225361437435724
426976,-255,-119,330,4965,118,-6590,1745225361498029233
427168,-270,-144,338,4798,40,-6295,1745225361498029233
427360,-279,-145,323,4558,-238,-6044,1745225361498029233
427552,-292,-123,323,4411,-423,-5872,1745225361498029233
427744,-328,-112,324,4476,-473,-6145,1745225361498029233
427936,-382,-111,311,4579,-260,-6608,1745225361498029233
428128,-420,-110,297,4621,85,-7017,1745225361498029233
428320,-402,-113,292,4494,416,-7202,1745225361498029233
428512,-334,-118,303,4214,509,-7158,1745225361498029233
428704,-247,-122,333,3803,292,-7305,1745225361498029233
428896,-174,-122,351,3464,41,-7621,1745225361498029233
429088,-147,-107,357,3371,-76,-7768,1745225361498029233
429280,-149,-87,351,3415,-53,-7899,1745225361557129578
429472,-138,-77,344,3553,143,-8057,1745225361557129578
429664,-94,-89,336,3638,373,-8200,1745225361557129578
429856,-46,-109,335,3611,374,-8237,1745225361557129578
430048,8,-125,340,3414,202,-8178,1745225361557129578
430240,50,-131,335,3247,20,-8128,1745225361557129578
430432,62,-137,309,3217,-48,-8295,1745225361557129578
430624,57,-153,262,3326,100,-8809,1745225361557129578
430816,46,-192,196,3499,457,-10042,1745225361557129578
431008,17,-291,121,3301,1003,-11972,1745225361557129578
431200,-1,-368,94,2096,1543,-9790,1745225361557129578
431392,91,-327,108,1698,1358,-8111,1745225361557129578
431584,251,-271,85,2296,904,-7641,1745225361615412483
431776,351,-192,40,3412,551,-6844,1745225361615412483
431968,365,-177,36,4361,-24,-5795,1745225361615412483
432160,352,-144,68,5095,-668,-5682,1745225361615412483
432352,314,-147,115,5250,-983,-5905,1745225361615412483
432544,252,-139,128,5028,-989,-6166,1745225361615412483
432736,190,-141,123,4710,-847,-6440,1745225361615412483
432928,133,-131,123,4550,-632,-6662,1745225361615412483
433120,91,-121,130,4605,-347,-6640,1745225361615412483
433312,68,-122,121,4707,-177,-6656,1745225361615412483
433504,68,-118,113,4760,-145,-6734,1745225361615412483
433696,67,-116,113,4659,-227,-6794,1745225361615412483
433888,65,-110,121,4442,-346,-6666,1745225361677661342
434080,60,-89,132,4337,-451,-6634,1745225361677661342
434272,42,-72,135,4309,-564,-6540,1745225361677661342
434464,31,-49,135,4371,-634,-6618,1745225361677661342
434656,18,-28,133,4320,-635,-6737,1745225361677661342
434848,-9,-6,127,4142,-618,-6674,1745225361677661342
435040,-44,15,117,4062,-592,-6574,1745225361677661342
435232,-71,32,103,4170,-474,-6428,1745225361677661342
435424,-92,43,83,4418,-262,-6511,1745225361677661342
435616,-106,44,66,4567,30,-6775,1745225361677661342
435808,-108,33,66,4550,250,-7080,1745225361677661342
436000,-89,20,83,4364,275,-7148,1745225361677661342
436192,-70,10,102,4175,177,-7247,1745225361730877783
436384,-72,9,113,4030,103,-7236,1745225361730877783
436576,-77,13,122,3973,129,-7055,1745225361730877783
436768,-72,15,123,4060,186,-7152,1745225361730877783
436960,-61,7,126,4145,268,-7161,1745225361730877783
437152,-39,-2,142,4144,140,-7208,1745225361730877783
437344,-11,-12,165,3955,-136,-7346,1745225361730877783
437536,-1,-8,178,3630,-343,-7439,1745225361730877783
437728,-8,6,173,3508,-355,-7258,1745225361730877783
437920,-7,22,152,3723,-193,-7102,1745225361730877783
438112,-11,24,125,4070,0,-7088,1745225361730877783
438304,-18,20,108,4286,186,-7122,1745225361730877783
438496,-21,6,110,4249,216,-7250,1745225361794832719
438688,-6,-8,124,3964,40,-7349,1745225361794832719
438880,5,-13,132,3618,-235,-7420,1745225361794832719
439072,5,-7,129,3443,-399,-7294,1745225361794832719
439264,5,1,113,3613,-383,-7304,1745225361794832719
439456,15,3,83,3847,-174,-7390,1745225361794832719
439648,32,-4,53,4021,71,-7442,1745225361794832719
439840,58,-19,40,4107,133,-7419,1745225361794832719
440032,85,-38,44,3936,-44,-7189,1745225361794832719
440224,96,-51,56,3744,-414,-7000,1745225361794832719
440416,85,-56,58,3814,-630,-6860,1745225361794832719
440608,74,-58,43,4057,-640,-6665,1745225361794832719
440800,63,-68,20,4254,-498,-7052,1745225361847430416
440992,50,-82,10,4204,-208,-7158,1745225361847430416
441184,42,-84,24,3917,-121,-7098,1745225361847430416
441376,54,-81,58,3692,-351,-6965,1745225361847430416
441568,63,-74,81,3764,-680,-6707,1745225361847430416
441760,48,-74,74,4127,-824,-6661,1745225361847430416
441952,8,-92,54,4438,-687,-6989,1745225361847430416
442144,-42,-124,45,4281,-289,-6940,1745225361847430416
442336,-82,-139,51,3816,-10,-6843,1745225361847430416
442528,-82,-150,73,3470,-28,-6933,1745225361847430416
442720,-62,-156,83,3500,-193,-6969,1745225361847430416
442912,-52,-168,75,3764,-407,-7100,1745225361847430416
443104,-61,-187,57,3831,-464,-7333,1745225361907363827
443296,-82,-198,46,3550,-364,-7356,1745225361907363827
443488,-77,-199,50,3276,-352,-7473,1745225361907363827
443680,-54,-196,52,3264,-454,-7388,1745225361907363827
443872,-38,-186,52,3507,-674,-7226,1745225361907363827
444064,-34,-182,47,3807,-818,-7214,1745225361907363827
444256,-55,-185,35,3791,-745,-7255,1745225361907363827
444448,-84,-183,31,3635,-581,-7267,1745225361907363827
444640,-84,-186,27,3554,-515,-7454,1745225361907363827
444832,-51,-186,19,3481,-501,-7486,1745225361907363827
445024,-26,-179,2,3501,-555,-7307,1745225361907363827
445216,-13,-172,-12,3432,-716,-7305,1745225361907363827
445408,-9,-162,-8,3385,-871,-7378,1745225361964610543
445600,-18,-160,-7,3547,-897,-7349,1745225361964610543
445792,-24,-160,-19,3765,-695,-7452,1745225361964610543
445984,-22,-161,-41,3693,-401,-7621,1745225361964610543
446176,-15,-146,-52,3275,-92,-7696,1745225361964610543
446368,12,-112,-39,3051,-57,-7519,1745225361964610543
446560,66,-88,-22,3397,-444,-7819,1745225361964610543
446752,60,-87,-14,3922,-851,-7626,1745225361964610543
446944,32,-87,-9,4142,-756,-7448,1745225361964610543
447136,-11,-84,-30,3711,-254,-7483,1745225361964610543
447328,-31,-65,-40,3245,222,-7521,1745225361964610543
447520,7,-49,-35,3335,382,-7261,1745225361964610543
447712,55,-40,-36,3858,193,-6994,1745225362025042075
447904,52,-47,-37,4092,-79,-7049,1745225362025042075
448096,24,-51,-19,3979,-117,-7445,1745225362025042075
448288,37,-67,-22,3500,155,-7970,1745225362025042075
448480,60,-81,-47,3268,270,-8151,1745225362025042075
448672,94,-92,-58,3269,146,-8197,1745225362025042075
448864,118,-87,-44,3236,-68,-7816,1745225362025042075
449056,118,-65,-35,3285,-175,-7346,1745225362025042075
449248,119,-41,-43,3414,-155,-7463,1745225362025042075
449440,129,-23,-49,3471,-52,-7575,1745225362025042075
449632,139,-18,-50,3604,-34,-7533,1745225362025042075
449824,148,-23,-50,3715,-41,-7532,1745225362025042075
450016,162,-28,-45,3623,-80,-7453,1745225362082875140
450208,162,-20,-34,3431,-268,-7163,1745225362082875140
450400,155,1,-13,3357,-512,-7115,1745225362082875140
450592,171,20,0,3448,-632,-7201,1745225362082875140
450784,184,34,-12,3595,-658,-7315,1745225362082875140
450976,181,39,-24,3719,-587,-7332,1745225362082875140
451168,173,47,-28,3785,-473,-7491,1745225362082875140
451360,167,45,-24,3673,-375,-7550,1745225362082875140
451552,168,48,-11,3510,-422,-7282,1745225362082875140
451744,176,47,-7,3547,-1061,-6778,1745225362082875140
451936,131,39,-32,3606,-2344,-6829,1745225362082875140
452128,23,77,-52,4002,-1896,-6915,1745225362082875140
452320,-23,79,-43,3903,-443,-6726,1745225362139668111
452512,-13,97,-56,3661,394,-7107,1745225362139668111
452704,28,111,-69,3706,383,-7152,1745225362139668111
452896,77,121,-59,3606,-220,-6848,1745225362139668111
453088,100,147,-30,3623,-878,-6548,1745225362139668111
453280,86,145,-31,3965,-1141,-6773,1745225362139668111
453472,47,135,-55,4180,-1009,-6814,1745225362139668111
453664,0,124,-80,4244,-781,-6921,1745225362139668111
453856,-34,109,-97,4188,-488,-6865,1745225362139668111
454048,-50,88,-108,4184,-198,-6893,1745225362139668111
454240,-61,71,-112,4284,-30,-6539,1745225362139668111
454432,-76,41,-107,4502,-399,-6380,1745225362139668111
454624,-110,15,-106,4501,-861,-6542,1745225362203177479
454816,-163,1,-108,4396,-1040,-6884,1745225362203177479
455008,-245,-21,-115,4132,-1074,-7204,1745225362203177479
455200,-316,-58,-106,3985,-835,-7229,1745225362203177479
455392,-360,-89,-99,3877,-745,-7259,1745225362203177479
455584,-381,-50,-86,3712,-389,-6845,1745225362203177479
455776,-376,-47,-71,3711,-43,-6720,1745225362203177479
455968,-363,-47,-64,3783,-24,-6899,1745225362203177479
456160,-352,-48,-49,3926,-35,-7095,1745225362203177479
456352,-337,-55,-25,3922,-87,-7154,1745225362203177479
456544,-312,-57,2,3841,-152,-7479,1745225362203177479
456736,-299,-52,14,3558,-229,-7554,1745225362203177479
456928,-294,-34,20,3464,-275,-7363,1745225362256127568
457120,-285,-17,13,3633,-246,-7217,1745225362256127568
457312,-288,1,-14,3799,-279,-7292,1745225362256127568
457504,-311,13,-33,3898,-304,-7431,1745225362256127568
457696,-342,27,-32,3788,-133,-7485,1745225362256127568
457888,-350,46,-21,3637,169,-7550,1745225362256127568
458080,-338,57,-18,3441,425,-7581,1745225362256127568
458272,-310,74,-17,3272,541,-7405,1745225362256127568
458464,-282,101,-20,3269,600,-7467,1745225362256127568
458656,-245,125,-35,3337,683,-7474,1745225362256127568
458848,-222,138,-53,3346,586,-7469,1745225362256127568
459040,-213,138,-49,3422,355,-7461,1745225362256127568
459232,-216,119,-41,3615,304,-7517,1745225362316803524
459424,-225,108,-51,3712,452,-7523,1745225362316803524
459616,-229,105,-71,3768,610,-7666,1745225362316803524
459808,-212,99,-79,3819,609,-7586,1745225362316803524
460000,-171,93,-65,3905,513,-7678,1745225362316803524
460192,-116,84,-32,3806,363,-7646,1745225362316803524
460384,-62,81,0,3796,254,-7582,1745225362316803524
460576,12,73,13,3820,250,-7460,1745225362316803524
460768,99,78,18,3855,237,-7476,1745225362316803524
460960,196,81,32,3952,254,-7335,1745225362316803524
461152,278,89,51,3951,52,-7286,1745225362316803524
461344,319,99,68,3746,-433,-7063,1745225362316803524
461536,321,84,83,3732,-1014,-6621,1745225362375024502
461728,298,40,91,3853,-1403,-6185,1745225362375024502
461920,274,-11,95,3905,-1149,-6175,1745225362375024502
462112,259,-49,93,3696,-591,-6350,1745225362375024502
462304,244,-63,66,3518,-137,-6672,1745225362375024502
462496,230,-65,28,3568,64,-6946,1745225362375024502
462688,208,-52,-1,3746,-73,-7170,1745225362375024502
462880,175,-40,-10,3850,-508,-7199,1745225362375024502
463072,128,-35,-3,3879,-889,-7085,1745225362375024502
463264,71,-33,6,3900,-991,-7075,1745225362375024502
463456,8,-34,-5,3831,-712,-6952,1745225362375024502
463648,-55,-37,-26,3915,-254,-6976,1745225362375024502
530272,164,-99,107,3570,-1118,-7411,1745225364119440651
530464,121,-70,108,3082,-1841,-7224,1745225364119440651
530656,-42,-72,78,3702,-1078,-6967,1745225364119440651
530848,-95,-56,55,3835,-501,-7184,1745225364119440651
531040,-94,-50,27,3784,-201,-7370,1745225364119440651
531232,-106,-63,23,3506,-419,-7647,1745225364119440651
531424,-125,-40,45,3363,-950,-7715,1745225364119440651
531616,-103,-34,69,3337,-1292,-7761,1745225364119440651
531808,-99,-16,74,3197,-1480,-7654,1745225364119440651
532000,-105,21,57,3176,-1549,-7486,1745225364119440651
532192,-116,36,39,3278,-1184,-7552,1745225364119440651
532384,-132,53,21,3357,-688,-7812,1745225364119440651
532576,-121,52,0,-121,-1,-1,1745225364177537724
532768,-100,29,-3,3489,-287,-8082,1745225364177537724
532960,-64,7,24,3443,-245,-7694,1745225364177537724
533152,4,-11,54,2756,-970,-6529,1745225364177537724
533344,24,50,33,3852,-230,-7373,1745225364177537724
533536,100,-33,28,3645,337,-6363,1745225364177537724
533728,135,151,0,3310,405,-5710,1745225364177537724
533920,178,32,-40,3710,512,-6482,1745225364177537724
534112,217,72,-67,3720,408,-6896,1745225364177537724
534304,226,143,-77,2416,-894,-7004,1745225364177537724
534496,20,415,-131,2843,-2919,-7062,1745225364177537724
534688,62,78,-125,5419,-1416,-7327,1745225364177537724
534880,23,64,-21,4401,-89,-7808,1745225364238365241
535072,-48,41,34,3012,549,-7992,1745225364238365241
535264,31,30,1,2545,462,-8365,1745225364238365241
535456,107,29,8,3071,-216,-8515,1745225364238365241
535648,88,42,69,3558,-871,-8472,1745225364238365241
535840,67,51,93,3430,-952,-8025,1745225364238365241
536032,68,65,61,3337,-970,-7631,1745225364238365241
536224,77,70,47,3282,-1428,-8462,1745225364238365241
536416,-48,73,129,2648,-2646,-7042,1745225364238365241
536608,-209,73,275,3679,-2851,-7285,1745225364238365241
536800,-258,68,229,3941,-856,-6197,1745225364238365241
536992,-207,113,77,3810,1245,-6469,1745225364238365241
537184,-34,113,-17,3449,1928,-7114,1745225364293303021
537376,91,113,11,3545,1036,-7028,1745225364293303021
537568,148,98,93,3751,-513,-7241,1745225364293303021
537760,122,84,146,3592,-1461,-7786,1745225364293303021
537952,74,59,138,3372,-1257,-7910,1745225364293303021
538144,53,44,90,3237,-495,-7664,1745225364293303021
538336,70,39,48,3228,90,-7692,1745225364293303021
538528,102,34,27,3359,302,-7957,1745225364293303021
538720,140,14,25,3528,118,-7962,1745225364293303021
538912,172,-9,26,3585,-340,-7795,1745225364293303021
539104,176,-29,19,3554,-734,-7658,1745225364293303021
539296,165,-41,9,3604,-914,-7351,1745225364293303021
539488,139,-51,-3,3599,-968,-7083,1745225364356343643
539680,101,-51,-8,3625,-799,-6944,1745225364356343643
539872,83,-50,-6,3635,-550,-6790,1745225364356343643
540064,91,-49,-6,3751,-501,-7109,1745225364356343643
540256,108,-56,3,3616,-676,-7073,1745225364356343643
540448,114,-54,18,3533,-971,-7245,1745225364356343643
540640,108,-47,28,3519,-1053,-7019,1745225364356343643
540832,105,-29,25,3628,-909,-7135,1745225364356343643
541024,106,-12,18,3603,-634,-7044,1745225364356343643
541216,120,-2,8,3639,-566,-7269,1745225364356343643
541408,155,16,13,3790,-641,-7291,1745225364356343643
541600,157,4,29,3694,-1001,-7397,1745225364356343643
541792,143,6,36,3700,-1242,-7237,1745225364410329868
541984,119,3,44,3762,-1281,-7241,1745225364410329868
542176,97,-4,38,3640,-1132,-7193,1745225364410329868
542368,83,-7,31,3589,-908,-6975,1745225364410329868
542560,78,-8,27,3674,-795,-6796,1745225364410329868
542752,83,-7,26,3702,-805,-6756,1745225364410329868
542944,76,-9,30,3761,-883,-6569,1745225364410329868
543136,67,-14,37,3919,-1051,-6620,1745225364410329868
543328,59,-23,44,3833,-1137,-6868,1745225364410329868
543520,29,-22,55,3492,-1067,-6993,1745225364410329868
543712,-5,-12,62,3513,-808,-6893,1745225364410329868
543904,-7,-1,47,3852,-422,-7089,1745225364410329868
544096,8,2,18,4005,-85,-7316,1745225364469886043
544288,20,7,8,4081,30,-7340,1745225364469886043
544480,37,10,16,4185,-183,-7529,1745225364469886043
544672,57,14,33,3813,-593,-7428,1745225364469886043
544864,48,30,56,3467,-996,-7211,1745225364469886043
545056,26,48,64,3535,-1072,-6990,1745225364469886043
545248,10,59,44,3730,-769,-7153,1745225364469886043
545440,-10,53,16,4001,-204,-7300,1745225364469886043
545632,0,44,2,4040,253,-7435,1745225364469886043
545824,28,34,13,3748,175,-7463,1745225364469886043
546016,63,35,44,3572,-417,-7159,1745225364469886043
546208,84,33,63,3635,-1214,-7031,1745225364469886043
546400,64,32,62,3730,-1486,-6871,1745225364531353034
546592,6,22,42,3869,-1014,-7194,1745225364531353034
546784,-30,12,32,3666,-173,-7458,1745225364531353034
546976,-25,12,43,3635,225,-7452,1745225364531353034
547168,27,12,59,3700,-33,-7493,1745225364531353034
547360,71,12,73,3807,-566,-7300,1745225364531353034
547552,76,9,86,3858,-972,-7312,1745225364531353034
547744,53,9,104,3588,-979,-7072,1745225364531353034
547936,26,30,121,3448,-788,-6969,1745225364531353034
548128,26,42,127,3599,-609,-7060,1745225364531353034
548320,39,47,119,3827,-461,-7234,1745225364531353034
548512,43,35,111,3808,-289,-7499,1745225364531353034
548704,41,36,116,3507,-96,-7483,1745225364588136525
548896,59,51,132,3442,-119,-7469,1745225364588136525
549088,107,70,140,3680,-390,-7247,1745225364588136525
549280,130,75,133,3946,-709,-7372,1745225364588136525
549472,113,69,133,3928,-728,-7461,1745225364588136525
549664,88,70,137,3647,-480,-7540,1745225364588136525
549856,87,76,140,3461,-210,-7763,1745225364588136525
550048,107,86,136,3632,-156,-7558,1745225364588136525
550240,142,96,127,3977,-398,-7653,1745225364588136525
550432,171,112,131,3832,-615,-7220,1745225364588136525
550624,161,123,158,3689,-1087,-7187,1745225364588136525
550816,132,154,197,3536,-1152,-6971,1745225364588136525
551008,161,189,181,3880,-738,-7067,1745225364646782969
551200,194,200,126,4035,-436,-6886,1745225364646782969
551392,204,214,114,4160,-413,-7082,1745225364646782969
551584,172,186,143,3832,-722,-7210,1745225364646782969
551776,134,197,187,3917,-898,-7416,1745225364646782969
551968,158,203,168,4251,-673,-7324,1745225364646782969
552160,200,212,117,4248,-602,-7139,1745225364646782969
552352,205,224,114,3953,-853,-6963,1745225364646782969
552544,170,231,141,3951,-1060,-7129,1745225364646782969
552736,143,257,148,4608,-949,-7104,1745225364646782969
552928,134,243,124,5318,-954,-7161,1745225364646782969
553120,46,221,155,5353,-1246,-6943,1745225364646782969
553312,-22,246,225,5093,-937,-7052,1745225364701342054
553504,-59,280,202,4989,-482,-7251,1745225364701342054
553696,-67,313,142,5109,-459,-7114,1745225364701342054
553888,-65,349,120,4963,-743,-6937,1745225364701342054
554080,-102,393,109,4737,-1040,-7260,1745225364701342054
554272,-172,427,70,4949,-1160,-7836,1745225364701342054
554464,-221,418,1,5457,-1120,-8108,1745225364701342054
554656,-257,381,-97,5861,-940,-8654,1745225364701342054
554848,-311,273,-225,5732,-659,-9419,1745225364701342054
555040,-397,156,-346,5640,-296,-10056,1745225364701342054
555232,-486,0,-465,6206,-279,-10480,1745225364701342054
555424,-495,-146,-569,7064,-495,-9798,1745225364701342054
555616,-439,-336,-715,8083,-888,-9903,1745225364767936393
555808,-382,-512,-908,8474,-1212,-9675,1745225364767936393
556000,-337,-606,-1103,8965,-1481,-8715,1745225364767936393
556192,-228,-660,-1291,9765,-2016,-7255,1745225364767936393
556384,-93,-793,-1490,10994,-2821,-6385,1745225364767936393
556576,-25,-986,-1731,11638,-3729,-6244,1745225364767936393
556768,68,-1185,-1895,11619,-4716,-5680,1745225364767936393
556960,317,-1454,-1937,12534,-5813,-6030,1745225364767936393
557152,584,-1787,-1960,12884,-6724,-5591,1745225364767936393
557344,522,-1752,-1776,13424,-6523,-1419,1745225364767936393
557536,-626,-1777,-1790,16040,-6437,-3538,1745225364767936393
557728,-1694,-2249,-1975,14861,-6723,-2937,1745225364767936393
557920,-1601,-2307,-1930,12621,-5453,-3786,1745225364819985345
558112,-1268,-2234,-1895,11109,-4122,-4208,1745225364819985345
558304,-1282,-2206,-1736,11297,-4120,-4339,1745225364819985345
558496,-1316,-2320,-1534,11211,-4368,-3620,1745225364819985345
558688,-1259,-2394,-1314,11025,-4642,-3242,1745225364819985345
558880,-1115,-2382,-1075,10795,-4807,-2855,1745225364819985345
559072,-984,-2312,-795,10371,-4837,-2616,1745225364819985345
559264,-925,-2218,-472,9655,-5017,-2292,1745225364819985345
559456,-891,-2105,-141,8955,-5454,-2232,1745225364819985345
559648,-900,-1959,184,8504,-6074,-2061,1745225364819985345
559840,-966,-1792,490,8043,-6748,-1869,1745225364819985345
560032,-1073,-1585,761,7552,-7212,-1702,1745225364819985345
560224,-1224,-1363,1008,7178,-7272,-1520,1745225364878824130
560416,-1399,-1095,1245,6844,-7204,-1510,1745225364878824130
560608,-1638,-826,1517,6776,-6893,-1089,1745225364878824130
560800,-1890,-605,1696,6659,-6402,-687,1745225364878824130
560992,-2133,-379,1881,6548,-5728,-275,1745225364878824130
561184,-2361,-143,2089,6473,-4941,18,1745225364878824130
561376,-2565,87,2294,6428,-4129,333,1745225364878824130
561568,-2734,325,2491,6391,-3364,639,1745225364878824130
561760,-2859,575,2683,6382,-2661,861,1745225364878824130
561952,-2926,824,2865,6451,-1996,988,1745225364878824130
562144,-2935,1064,3023,6518,-1459,1108,1745225364878824130
562336,-2893,1300,3160,6546,-958,1202,1745225364878824130
562528,-2799,1543,3299,6508,-481,1276,1745225364942868910
562720,-2659,1788,3437,6476,-51,1317,1745225364942868910
562912,-2484,2031,3573,6517,333,1334,1745225364942868910
563104,-2277,2271,3701,6591,631,1295,1745225364942868910
563296,-2056,2523,3824,6696,898,1356,1745225364942868910
563488,-1833,2775,3957,6912,1108,1480,1745225364942868910
563680,-1615,3032,4102,7281,1089,1578,1745225364942868910
563872,-1387,3292,4248,7531,1445,1513,1745225364942868910
564064,-1157,3563,4340,7756,1890,1584,1745225364942868910
564256,-910,3866,4401,8173,2339,1626,1745225364942868910
564448,-647,4177,4451,8708,2795,1782,1745225364942868910
564640,-336,4519,4495,9433,3400,1657,1745225364942868910
564832,-43,4872,4526,10110,4025,1919,1745225364995712438
565024,237,5178,4527,10772,4630,2140,1745225364995712438
565216,522,5523,4509,11548,5140,2221,1745225364995712438
565408,819,5881,4481,12344,5544,2515,1745225364995712438
565600,1105,6228,4433,13202,5841,2817,1745225364995712438
565792,1369,6556,4349,14174,5984,2956,1745225364995712438
565984,1602,6854,4223,15152,6084,3159,1745225364995712438
566176,1805,7141,4058,16166,6172,3112,1745225364995712438
566368,1966,7393,3854,17214,6374,3146,1745225364995712438
566560,2094,7588,3614,18323,6834,3233,1745225364995712438
566752,2201,7802,3350,19603,7498,3306,1745225364995712438
566944,2300,7958,3069,20892,8419,3498,1745225364995712438
567136,2425,8063,2770,22118,9655,3440,1745225365060767260
567328,2579,8120,2454,23187,11082,3208,1745225365060767260
567520,2753,8148,2117,23959,12471,3083,1745225365060767260
567712,2934,8132,1769,24598,13484,3109,1745225365060767260
567904,3114,8051,1432,25056,14039,3039,1745225365060767260
568096,3285,7942,1103,25275,14239,2784,1745225365060767260
568288,3424,7823,759,25185,14201,2445,1745225365060767260
568480,3526,7705,394,24983,13953,2252,1745225365060767260
568672,3582,7573,5,24780,13686,2112,1745225365060767260
568864,3573,7443,-408,24520,13467,1886,1745225365060767260
569056,3486,7320,-835,24289,13226,1538,1745225365060767260
569248,3337,7207,-1258,24155,12919,1040,1745225365060767260
569440,3140,7102,-1666,24151,12403,539,1745225365115059108
569632,2919,6999,-2049,24221,11916,271,1745225365115059108
569824,2693,6896,-2401,24294,11657,190,1745225365115059108
570016,2458,6794,-2733,24224,11680,-13,1745225365115059108
570208,2234,6689,-3045,24041,11838,-174,1745225365115059108
570400,2064,6592,-3335,23945,12006,-181,1745225365115059108
570592,1956,6493,-3595,23921,12352,-162,1745225365115059108
570784,1893,6390,-3833,23986,12649,-246,1745225365115059108
570976,1862,6255,-4059,24012,12647,-444,1745225365115059108
571168,1879,6089,-4280,24051,12390,-368,1745225365115059108
571360,1934,5898,-4493,24017,12229,-412,1745225365115059108
571552,1987,5699,-4708,23901,12139,-554,1745225365115059108
571744,2033,5487,-4926,23710,11921,-698,1745225365178553892
571936,2099,5262,-5131,23492,11626,-732,1745225365178553892
572128,2180,5021,-5313,23302,11187,-667,1745225365178553892
572320,2241,4748,-5480,23096,10649,-649,1745225365178553892
572512,2265,4486,-5639,22731,9948,-847,1745225365178553892
572704,2263,4224,-5786,22332,9077,-1193,1745225365178553892
572896,2249,3982,-5911,21870,8231,-1487,1745225365178553892
573088,2216,3756,-6009,21334,7635,-1755,1745225365178553892
573280,2153,3569,-6087,20800,7160,-2138,1745225365178553892
573472,2055,3389,-6154,20301,6552,-2428,1745225365178553892
573664,1945,3213,-6190,19781,5775,-2581,1745225365178553892
573856,1829,3040,-6184,19121,5084,-2625,1745225365178553892
574048,1703,2872,-6148,18412,4532,-2812,1745225365235703735
574240,1579,2704,-6101,17668,4108,-3119,1745225365235703735
574432,1480,2551,-6041,17015,3949,-3228,1745225365235703735
574624,1400,2387,-5960,16674,3890,-3414,1745225365235703735
574816,1325,2207,-5860,16573,3742,-3735,1745225365235703735
575008,1269,2013,-5729,16507,3465,-4009,1745225365235703735
575200,1255,1800,-5571,16562,2884,-4269,1745225365235703735
575392,1276,1554,-5428,16513,2126,-4565,1745225365235703735
575584,1308,1281,-5286,16371,1282,-4834,1745225365235703735
575776,1327,996,-5147,16136,312,-5155,1745225365235703735
575968,1299,710,-5012,15912,-758,-5197,1745225365235703735
576160,1202,429,-4887,15647,-1776,-5252,1745225365235703735
576352,1039,176,-4760,15289,-2697,-5148,1745225365294179607
576544,848,-43,-4635,14992,-3387,-4670,1745225365294179607
576736,644,-252,-4494,14757,-3838,-4196,1745225365294179607
576928,431,-450,-4332,14665,-4180,-3906,1745225365294179607
577120,225,-651,-4164,14616,-4506,-3436,1745225365294179607
577312,53,-847,-3994,14539,-4768,-2874,1745225365294179607
577504,-80,-1032,-3806,14453,-4985,-2141,1745225365294179607
577696,-186,-1224,-3581,14522,-5461,-1424,1745225365294179607
577888,-246,-1454,-3325,14625,-6233,-762,1745225365294179607
578080,-247,-1714,-3058,14655,-7239,-149,1745225365294179607
578272,-213,-2011,-2788,14522,-8603,128,1745225365294179607
578464,-175,-2328,-2534,14083,-9977,248,1745225365294179607
578656,-159,-2637,-2307,13115,-10943,539,1745225365346307099
578848,-229,-2902,-2105,11657,-11456,1005,1745225365346307099
579040,-396,-3096,-1885,9907,-11351,1002,1745225365346307099
579232,-644,-3187,-1639,8339,-8824,-392,1745225365346307099
579424,-1581,-3123,-1432,6974,-10531,3099,1745225365346307099
579616,-1846,-3008,-1095,7232,-12425,2648,1745225365346307099
579808,-1360,-3229,-652,5223,-10385,1696,1745225365346307099
580000,-1575,-2850,0,5011,-8844,1061,1745225365346307099
580192,-2062,-2743,434,6021,-6240,2850,1745225365346307099
580384,-2173,-2680,646,6306,-4866,3418,1745225365346307099
580576,-1912,-2532,823,5005,-3027,3036,1745225365346307099
580768,-1479,-2126,856,3391,-1156,3245,1745225365346307099
580960,-1069,-1806,842,2758,-176,3976,1745225365411326453
581152,-735,-1476,779,2731,-167,4579,1745225365411326453
581344,-400,-1240,638,2492,386,5254,1745225365411326453
581536,-22,-1122,521,2723,1050,5344,1745225365411326453
581728,282,-1059,481,3272,2225,5628,1745225365411326453
581920,477,-942,576,3419,3393,5861,1745225365411326453
582112,602,-789,599,3101,4325,6243,1745225365411326453
582304,683,-650,516,2351,5117,6180,1745225365411326453
582496,740,-534,466,1648,5868,6030,1745225365411326453
582688,787,-433,510,1101,6474,5917,1745225365411326453
582880,811,-313,592,833,6593,5803,1745225365411326453
583072,839,-181,624,835,6190,6063,1745225365411326453
583264,888,-70,589,1069,5819,6606,1745225365467439535
583456,900,4,547,1329,5587,6663,1745225365467439535
583648,846,50,523,1424,5708,6702,1745225365467439535
583840,779,83,530,1460,6292,6830,1745225365467439535
584032,737,116,555,1375,7319,6829,1745225365467439535
584224,712,152,572,1338,8343,6749,1745225365467439535
584416,677,176,558,1416,8989,6709,1745225365467439535
584608,671,186,498,1565,9151,6868,1745225365467439535
584800,688,195,400,1641,9103,6849,1745225365467439535
584992,677,186,308,1826,8950,6729,1745225365467439535
585184,627,166,242,1940,8969,6559,1745225365467439535
585376,574,161,197,1997,9230,6381,1745225365467439535
585568,529,147,163,2100,9605,6187,1745225365528554966
585760,511,121,110,2202,9701,6479,1745225365528554966
585952,508,87,24,2176,9603,6678,1745225365528554966
586144,510,55,-37,2068,9400,6728,1745225365528554966
586336,531,26,-49,1938,9214,6537,1745225365528554966
586528,541,15,-69,1725,8945,6378,1745225365528554966
586720,524,26,-105,1502,8852,6298,1745225365528554966
586912,484,58,-106,1404,8930,6172,1745225365528554966
587104,443,93,-87,1855,8704,6129,1745225365528554966
587296,403,89,-124,2413,8202,6226,1745225365528554966
587488,350,66,-195,2913,7502,6601,1745225365528554966
587680,294,31,-251,3152,6961,6825,1745225365528554966
587872,255,7,-243,3085,6858,6806,1745225365587617499
588064,234,-7,-200,2821,7202,6447,1745225365587617499
588256,203,-8,-174,2533,7629,6045,1745225365587617499
588448,165,-20,-181,2437,7707,5996,1745225365587617499
588640,134,-26,-188,2474,7473,5964,1745225365587617499
588832,123,-27,-166,2655,7112,5871,1745225365587617499
589024,134,-38,-131,2900,6798,5785,1745225365587617499
589216,146,-67,-111,3138,6532,5731,1745225365587617499
589408,153,-95,-110,3239,6305,5730,1745225365587617499
589600,166,-134,-101,3306,6058,6048,1745225365587617499
589792,181,-174,-85,3166,5775,6385,1745225365587617499
589984,173,-213,-71,2881,5418,6323,1745225365587617499
590176,149,-246,-57,2564,5123,6271,1745225365643624331
590368,110,-249,-42,2280,4996,6099,1745225365643624331
590560,43,-224,-15,2169,4972,5817,1745225365643624331
590752,-22,-190,29,2274,5077,5626,1745225365643624331
590944,-48,-148,77,2518,5271,5438,1745225365643624331
591136,-36,-114,122,2816,5482,5362,1745225365643624331
591328,-14,-97,164,3077,5543,5439,1745225365643624331
591520,19,-97,209,3189,5488,5625,1745225365643624331
591712,53,-97,257,3134,5340,5574,1745225365643624331
591904,74,-91,296,2975,5210,5440,1745225365643624331
592096,86,-72,323,2835,5189,5374,1745225365643624331
592288,83,-42,343,2829,5256,5526,1745225365643624331
592480,72,-10,358,2891,5336,5717,1745225365703645346
592672,57,1,371,3087,5404,5864,1745225365703645346
592864,57,-4,380,3207,5362,6019,1745225365703645346
593056,53,-12,376,3235,5236,5890,1745225365703645346
593248,43,-16,369,3095,5195,5804,1745225365703645346
593440,29,-2,366,2915,5246,5682,1745225365703645346
593632,16,28,366,2783,5388,5471,1745225365703645346
593824,12,70,372,2801,5535,5282,1745225365703645346
594016,20,107,380,2932,5692,5193,1745225365703645346
594208,49,140,388,3097,5763,5050,1745225365703645346
594400,86,167,389,3274,5727,4880,1745225365703645346
594592,127,186,386,3396,5588,4882,1745225365703645346
594784,167,197,381,3423,5373,5089,1745225365761945125
594976,194,206,376,3341,5097,5327,1745225365761945125
595168,212,212,377,3202,4842,5522,1745225365761945125
595360,220,219,383,3085,4657,5585,1745225365761945125
595552,203,223,386,2967,4505,5574,1745225365761945125
595744,172,231,395,2922,4389,5408,1745225365761945125
595936,130,243,402,3034,4328,5130,1745225365761945125
596128,92,256,408,3224,4236,5038,1745225365761945125
596320,80,268,419,3360,4297,5079,1745225365761945125
596512,83,267,434,3450,4343,5041,1745225365761945125
596704,94,251,451,3386,4396,5117,1745225365761945125
596896,108,240,473,3131,4514,4976,1745225365761945125
597088,103,242,500,2798,4711,4625,1745225365818715649
597280,80,256,536,2542,5016,4457,1745225365818715649
597472,44,285,578,2476,5416,4413,1745225365818715649
597664,11,313,624,2646,5806,4509,1745225365818715649
597856,-27,328,655,2923,6074,4701,1745225365818715649
598048,-64,319,672,3227,6200,5060,1745225365818715649
598240,-78,299,682,3379,6342,5177,1745225365818715649
598432,-84,276,676,3377,6483,5000,1745225365818715649
598624,-79,257,649,3201,6695,4821,1745225365818715649
598816,-65,247,608,2983,6953,4589,1745225365818715649
599008,-45,244,569,2862,7179,4501,1745225365818715649
599200,-21,238,535,2897,7223,4530,1745225365818715649
599392,-1,218,508,2986,7084,4705,1745225365879765143
