timestamp,gyr_x,gyr_y,gyr_z,acc_x,acc_y,acc_z,pkt_time_ns
1562272,166,-23,-1727,2904,221,-8501,1745190593834698592
1562464,-54,-81,-1668,2503,35,-7963,1745190593834698592
1562656,-94,-7,-1676,2292,32,-8297,1745190593834698592
1562848,-209,16,-1678,2310,185,-8049,1745190593834698592
1563040,-286,22,-1636,2662,384,-7996,1745190593834698592
1563232,-320,24,-1565,2983,728,-7833,1745190593834698592
1563424,-350,56,-1489,3315,935,-7735,1745190593834698592
1563616,-346,92,-1438,3604,919,-7730,1745190593834698592
1563808,-352,127,-1414,3781,769,-7634,1745190593834698592
1564000,-364,153,-1391,3842,624,-7480,1745190593834698592
1564192,-339,164,-1344,3665,652,-7282,1745190593834698592
1564384,-273,184,-1268,3326,695,-7111,1745190593834698592
1564576,-169,226,-1196,3062,538,-7013,1745190593884251525
1564768,-48,258,-1139,2840,404,-6655,1745190593884251525
1564960,96,258,-1071,3005,440,-6312,1745190593884251525
1565152,233,224,-974,3729,74,-6240,1745190593884251525
1565344,316,170,-883,4082,-87,-6250,1745190593884251525
1565536,387,115,-813,4037,44,-6311,1745190593884251525
1565728,457,71,-748,3975,49,-6646,1745190593884251525
1565920,503,62,-700,3712,40,-6923,1745190593884251525
1566112,562,95,-678,3108,195,-7307,1745190593884251525
1566304,661,190,-655,2320,520,-7818,1745190593884251525
1566496,813,337,-635,1542,837,-8285,1745190593884251525
1566688,1001,492,-633,1187,908,-8775,1745190593884251525
1566880,1133,617,-667,1405,574,-8759,1745190593944815034
1567072,1173,753,-704,1455,-127,-10619,1745190593944815034
1567264,1160,759,-682,2174,-2607,-10064,1745190593944815034
1567456,504,603,-803,2768,-9858,-10982,1745190593944815034
1567648,-578,351,-1052,2853,-10968,-10614,1745190593944815034
1567840,-1383,-27,-1068,3279,-6002,-9869,1745190593944815034
1568032,-1860,-310,-865,3474,-1137,-8868,1745190593944815034
1568224,-1999,-480,-675,3334,2244,-7779,1745190593944815034
1568416,-1849,-511,-596,2416,3721,-6514,1745190593944815034
1568608,-1380,-360,-516,1929,4012,-6299,1745190593944815034
1568800,-923,-127,-522,1400,3320,-6534,1745190593944815034
1568992,-611,54,-645,823,2079,-6773,1745190593944815034
1569184,-404,170,-738,479,954,-6990,1745190594006626136
1569376,-229,269,-721,501,560,-7079,1745190594006626136
1569568,-136,323,-635,900,600,-7111,1745190594006626136
1569760,-99,340,-577,1438,648,-6979,1745190594006626136
1569952,-39,347,-549,1772,722,-6977,1745190594006626136
1570144,37,372,-536,1998,723,-7002,1745190594006626136
1570336,108,403,-520,2060,657,-7106,1745190594006626136
1570528,176,438,-489,2053,522,-7208,1745190594006626136
1570720,237,454,-450,2188,314,-7236,1745190594006626136
1570912,283,430,-419,2463,340,-7410,1745190594006626136
1571104,296,400,-397,2303,841,-7104,1745190594006626136
1571296,308,394,-426,2260,911,-6936,1745190594006626136
1571488,347,454,-473,2131,292,-7349,1745190594066477048
1571680,387,508,-443,2249,-507,-7828,1745190594066477048
1571872,385,510,-343,2561,-989,-8086,1745190594066477048
1572064,327,469,-264,2926,-1025,-8089,1745190594066477048
1572256,235,419,-265,3078,-803,-8096,1745190594066477048
1572448,138,384,-311,3041,-586,-8121,1745190594066477048
1572640,70,365,-337,2954,-383,-8203,1745190594066477048
1572832,47,346,-327,2941,-174,-8328,1745190594066477048
1573024,53,327,-294,2900,66,-8451,1745190594066477048
1573216,66,311,-264,2878,167,-8577,1745190594066477048
1573408,68,301,-255,2897,161,-8753,1745190594066477048
1573600,52,294,-254,2976,151,-8905,1745190594066477048
1573792,21,277,-251,3121,151,-8971,1745190594119719530
1573984,-18,244,-249,3217,152,-8949,1745190594119719530
1574176,-59,200,-245,3247,281,-8956,1745190594119719530
1574368,-90,147,-237,3255,540,-8841,1745190594119719530
1574560,-104,95,-232,3226,847,-8693,1745190594119719530
1574752,-88,57,-220,3047,962,-8502,1745190594119719530
1574944,-55,44,-200,2753,772,-8442,1745190594119719530
1575136,-13,48,-178,2490,474,-8458,1745190594119719530
1575328,24,59,-147,2373,323,-8426,1745190594119719530
1575520,40,52,-125,2319,294,-8364,1745190594119719530
1575712,38,43,-123,2310,347,-8292,1745190594119719530
1575904,33,40,-118,2260,438,-8273,1745190594119719530
1576096,37,41,-104,2290,434,-8252,1745190594179125706
1576288,51,43,-93,2300,430,-8297,1745190594179125706
1576480,65,43,-90,2256,370,-8900,1745190594179125706
1576672,60,60,-96,2145,254,-8658,1745190594179125706
1576864,44,50,-109,2243,434,-8811,1745190594179125706
1577056,18,30,-129,2350,603,-8544,1745190594179125706
1577248,0,10,-143,2340,724,-8229,1745190594179125706
1577440,4,2,-139,2222,754,-8045,1745190594179125706
1577632,26,5,-126,2164,649,-7845,1745190594179125706
1577824,56,10,-111,2066,430,-7745,1745190594179125706
1578016,74,11,-106,1966,215,-7739,1745190594179125706
1578208,63,16,-115,1785,138,-7628,1745190594179125706
1578400,33,16,-122,1687,101,-7512,1745190594240933735
1578592,0,11,-130,1613,262,-7402,1745190594240933735
1578784,-24,1,-137,1535,456,-7226,1745190594240933735
1578976,-34,-2,-142,1382,685,-7094,1745190594240933735
1579168,-30,12,-143,1239,894,-7063,1745190594240933735
1579360,-15,32,-143,1160,1085,-7096,1745190594240933735
1579552,8,55,-145,1112,1208,-7104,1745190594240933735
1579744,34,80,-150,1055,1303,-7076,1745190594240933735
1579936,61,106,-153,1051,1317,-7038,1745190594240933735
1580128,84,127,-159,1074,1277,-7107,1745190594240933735
1580320,104,145,-163,1047,1245,-7224,1745190594240933735
1580512,121,159,-160,1027,1211,-7321,1745190594240933735
1580704,132,168,-154,1015,1216,-7439,1745190594302453225
1580896,139,176,-146,999,1230,-7553,1745190594302453225
1581088,143,183,-142,982,1235,-7666,1745190594302453225
1581280,149,191,-140,980,1235,-7728,1745190594302453225
1581472,155,195,-138,997,1211,-7761,1745190594302453225
1581664,163,207,-134,987,1134,-7713,1745190594302453225
1581856,178,214,-122,1086,1213,-7802,1745190594302453225
1582048,198,205,-107,1201,1371,-8033,1745190594302453225
1582240,213,188,-107,1171,1364,-8086,1745190594302453225
1582432,228,183,-115,997,1210,-8051,1745190594302453225
1582624,243,198,-111,884,941,-8012,1745190594302453225
1582816,250,214,-96,882,750,-8100,1745190594302453225
1583008,246,214,-86,942,685,-8271,1745190594352932764
1583200,225,203,-84,979,660,-8385,1745190594352932764
1583392,193,188,-90,1005,614,-8412,1745190594352932764
1583584,164,179,-89,969,516,-8443,1745190594352932764
1583776,144,177,-76,979,427,-8496,1745190594352932764
1583968,130,173,-55,992,397,-8549,1745190594352932764
1584160,115,167,-38,1000,437,-8630,1745190594352932764
1584352,97,157,-22,1019,495,-8699,1745190594352932764
1584544,79,144,-10,1005,546,-8745,1745190594352932764
1584736,67,133,-2,980,542,-8747,1745190594352932764
1584928,58,122,11,927,518,-8720,1745190594352932764
1585120,48,112,30,877,468,-8707,1745190594352932764
1585312,32,104,50,818,374,-8687,1745190594412108942
1585504,11,94,68,773,303,-8668,1745190594412108942
1585696,-11,85,87,750,260,-8640,1745190594412108942
1585888,-32,75,105,737,228,-8602,1745190594412108942
1586080,-51,67,122,753,210,-8547,1745190594412108942
1586272,-66,64,139,773,231,-8491,1745190594412108942
1586464,-76,60,152,813,264,-8465,1745190594412108942
1586656,-80,56,159,836,332,-8444,1745190594412108942
1586848,-81,54,163,828,400,-8462,1745190594412108942
1587040,-80,54,166,830,421,-8485,1745190594412108942
1587232,-79,55,169,835,477,-8498,1745190594412108942
1587424,-75,53,169,857,547,-8437,1745190594412108942
1587616,-65,54,168,863,644,-8362,1745190594474293478
1587808,-48,55,168,894,718,-8353,1745190594474293478
1588000,-29,62,171,886,756,-8292,1745190594474293478
1588192,-12,70,177,904,752,-8231,1745190594474293478
1588384,-1,82,186,897,672,-8213,1745190594474293478
1588576,6,93,198,961,601,-8274,1745190594474293478
1588768,3,98,207,1046,589,-8295,1745190594474293478
1588960,-7,96,203,1092,625,-8232,1745190594474293478
1589152,-15,92,190,1097,759,-8173,1745190594474293478
1589344,-15,90,178,1072,898,-8129,1745190594474293478
1589536,-8,92,169,994,976,-8083,1745190594474293478
1589728,3,102,167,882,989,-8076,1745190594474293478
1589920,11,114,167,777,937,-8116,1745190594526587115
1590112,13,130,162,700,905,-8165,1745190594526587115
1590304,8,140,157,671,880,-8214,1745190594526587115
1590496,-2,149,150,640,812,-8279,1745190594526587115
1590688,-10,157,149,654,715,-8317,1745190594526587115
1590880,-10,162,156,694,661,-8368,1745190594526587115
1591072,-6,162,162,735,756,-8472,1745190594526587115
1591264,-1,162,167,785,888,-8545,1745190594526587115
1591456,8,161,161,838,1023,-8511,1745190594526587115
1591648,26,165,150,823,1146,-8424,1745190594526587115
1591840,51,173,143,818,1202,-8376,1745190594526587115
1592032,72,188,139,787,1166,-8288,1745190594526587115
1592224,89,202,141,794,1136,-8200,1745190594587301040
1592416,100,212,145,753,1119,-8176,1745190594587301040
1592608,103,223,144,722,1149,-8141,1745190594587301040
1592800,101,234,140,688,1144,-8117,1745190594587301040
1592992,98,244,136,701,1154,-8128,1745190594587301040
1593184,102,252,133,728,1231,-8157,1745190594587301040
1593376,110,260,130,793,1300,-8137,1745190594587301040
1593568,122,274,124,835,1343,-8120,1745190594587301040
1593760,141,289,116,885,1355,-8119,1745190594587301040
1593952,160,305,103,921,1352,-8119,1745190594587301040
1594144,178,320,89,959,1320,-8120,1745190594587301040
1594336,193,330,77,983,1264,-8163,1745190594587301040
1594528,200,340,65,994,1170,-8236,1745190594654102825
1594720,206,349,54,1007,1119,-8325,1745190594654102825
1594912,213,356,46,1021,1133,-8426,1745190594654102825
1595104,226,361,39,1063,1089,-8470,1745190594654102825
1595296,252,363,28,1116,1015,-8450,1745190594654102825
1595488,285,363,16,1133,932,-8453,1745190594654102825
1595680,319,368,7,1173,860,-8445,1745190594654102825
1595872,346,378,4,1210,739,-8425,1745190594654102825
1596064,367,386,9,1310,583,-8413,1745190594654102825
1596256,383,390,18,1393,416,-8420,1745190594654102825
1596448,391,391,24,1473,291,-8436,1745190594654102825
1596640,382,391,32,1536,147,-8421,1745190594654102825
1596832,356,387,37,1589,-19,-8403,1745190594702234834
1597024,322,380,47,1678,-182,-8431,1745190594702234834
1597216,290,367,64,1755,-288,-8485,1745190594702234834
1597408,261,352,82,1802,-351,-8508,1745190594702234834
1597600,237,336,96,1839,-410,-8502,1745190594702234834
1597792,221,322,107,1807,-432,-8543,1745190594702234834
1597984,213,311,113,1767,-484,-8565,1745190594702234834
1598176,207,303,117,1734,-566,-8570,1745190594702234834
1598368,198,297,124,1724,-663,-8557,1745190594702234834
1598560,184,296,132,1735,-754,-8547,1745190594702234834
1598752,167,295,141,1799,-811,-8575,1745190594702234834
1598944,152,295,147,1872,-861,-8629,1745190594702234834
1599136,137,293,153,1978,-902,-8671,1745190594762497617
1599328,126,289,160,2030,-938,-8719,1745190594762497617
1599520,115,289,165,2064,-961,-8774,1745190594762497617
1599712,105,292,165,2071,-980,-8804,1745190594762497617
1599904,108,296,166,2082,-951,-8754,1745190594762497617
1600096,127,299,171,2099,-931,-8670,1745190594762497617
1600288,163,300,178,2124,-934,-8733,1745190594762497617
1600480,214,301,189,2139,-1043,-8797,1745190594762497617
1600672,270,304,207,2203,-1236,-8887,1745190594762497617
1600864,335,303,231,2294,-1456,-9020,1745190594762497617
1601056,400,305,258,2414,-1688,-9151,1745190594762497617
1601248,455,308,293,2582,-2056,-9349,1745190594762497617
1601440,490,311,342,2762,-2632,-9594,1745190594819177203
1601632,494,310,404,2978,-3364,-9748,1745190594819177203
1601824,465,303,471,3193,-4029,-9745,1745190594819177203
1602016,400,284,540,3386,-4506,-9666,1745190594819177203
1602208,296,255,601,3543,-4769,-9467,1745190594819177203
1602400,161,218,658,3641,-4914,-9230,1745190594819177203
1602592,17,181,714,3707,-4942,-8953,1745190594819177203
1602784,-119,147,773,3683,-4827,-8674,1745190594819177203
1602976,-245,124,836,3669,-4631,-8493,1745190594819177203
1603168,-319,100,904,3696,-4210,-8181,1745190594819177203
1603360,-328,86,972,3681,-3698,-7546,1745190594819177203
1603552,-277,78,1022,3562,-3184,-6992,1745190594819177203
1603744,-177,98,1055,3369,-2883,-6617,1745190594959854199
1603936,-61,144,1090,3173,-2989,-6466,1745190594959854199
1604128,50,211,1153,3024,-3496,-6455,1745190594959854199
1604320,139,281,1251,3019,-4186,-6537,1745190594959854199
1604512,194,338,1366,3092,-4767,-6606,1745190594959854199
1604704,200,379,1473,3226,-5105,-6604,1745190594959854199
1604896,163,408,1553,3341,-5248,-6552,1745190594959854199
1605088,103,434,1616,3442,-5305,-6470,1745190594959854199
1605280,40,462,1677,3571,-5229,-6457,1745190594959854199
1605472,-6,489,1734,3718,-4920,-6450,1745190594959854199
1605664,-21,518,1789,3841,-4459,-6324,1745190594959854199
1605856,-5,551,1839,3943,-3987,-6191,1745190594959854199
1606048,41,596,1885,3986,-3625,-6097,1745190594971917839
1606240,111,655,1929,4046,-3365,-6067,1745190594971917839
1606432,193,722,1975,4083,-3146,-6093,1745190594971917839
1606624,273,794,2021,4167,-2973,-6096,1745190594971917839
1606816,343,863,2066,4255,-2831,-6105,1745190594971917839
1607008,408,930,2105,4364,-2655,-6122,1745190594971917839
1607200,468,995,2138,4495,-2504,-6096,1745190594971917839
1607392,524,1062,2167,4623,-2437,-6015,1745190594971917839
1607584,581,1128,2200,4747,-2435,-5946,1745190594971917839
1607776,633,1192,2234,4831,-2406,-5919,1745190594971917839
1607968,668,1255,2262,4899,-2378,-5883,1745190594971917839
1608160,684,1319,2285,4949,-2342,-5803,1745190594971917839
1608352,681,1382,2301,5001,-2283,-5690,1745190594990663293
1608544,660,1452,2317,5087,-2218,-5489,1745190594990663293
1608736,624,1530,2335,5187,-2245,-5141,1745190594990663293
1608928,572,1618,2365,5290,-2350,-4666,1745190594990663293
1609120,501,1710,2403,5397,-2363,-4272,1745190594990663293
1609312,414,1796,2425,5569,-2117,-4066,1745190594990663293
1609504,325,1878,2421,5820,-1574,-3815,1745190594990663293
1609696,258,1958,2403,6127,-871,-3484,1745190594990663293
1609888,236,2043,2383,6417,-216,-3221,1745190594990663293
1610080,267,2141,2375,6731,271,-2982,1745190594990663293
1610272,345,2254,2365,6971,648,-2814,1745190594990663293
1610464,446,2374,2341,7174,846,-2854,1745190594990663293
1610656,553,2501,2300,7332,979,-2994,1745190595061325772
1610848,652,2626,2242,7524,1078,-3159,1745190595061325772
1611040,740,2741,2175,7737,1108,-3384,1745190595061325772
1611232,822,2846,2106,7958,1062,-3655,1745190595061325772
1611424,899,2936,2038,8190,964,-3802,1745190595061325772
1611616,954,3014,1971,8361,849,-3840,1745190595061325772
1611808,991,3072,1896,8578,988,-4145,1745190595061325772
1612000,1049,3108,1808,8860,1442,-4228,1745190595061325772
1612192,1137,3133,1713,9091,1945,-4085,1745190595061325772
1612384,1269,3147,1623,9184,2267,-3796,1745190595061325772
1612576,1445,3175,1549,9218,2306,-3633,1745190595061325772
1612768,1641,3204,1474,9195,2220,-3402,1745190595061325772
1612960,1812,3245,1381,9107,2036,-3244,1745190595110888653
1613152,1932,3288,1268,8982,1890,-3131,1745190595110888653
1613344,1999,3327,1150,8915,1753,-2987,1745190595110888653
1613536,2028,3357,1039,8854,1548,-2796,1745190595110888653
1613728,2038,3376,944,8797,1411,-2640,1745190595110888653
1613920,2038,3387,861,8748,1302,-2384,1745190595110888653
1614112,2020,3383,779,8760,1213,-2144,1745190595110888653
1614304,1983,3351,689,8788,1116,-2082,1745190595110888653
1614496,1930,3328,588,8774,986,-2116,1745190595110888653
1614688,1868,3294,490,8812,913,-2135,1745190595110888653
1614880,1810,3261,400,8797,889,-2145,1745190595110888653
1615072,1772,3221,328,8769,939,-2125,1745190595110888653
1615264,1743,3176,264,8737,930,-1966,1745190595171210862
1615456,1710,3124,192,8728,818,-1863,1745190595171210862
1615648,1669,3074,100,8661,612,-1780,1745190595171210862
1615840,1610,3041,-1,8544,415,-1754,1745190595171210862
1616032,1529,3009,-106,8487,222,-1689,1745190595171210862
1616224,1417,2975,-214,8400,28,-1671,1745190595171210862
1616416,1279,2935,-326,8328,-152,-1628,1745190595171210862
1616608,1115,2890,-436,8248,-266,-1455,1745190595171210862
1616800,941,2849,-546,8203,-148,-1421,1745190595171210862
1616992,777,2805,-663,8263,315,-1449,1745190595171210862
1617184,646,2761,-784,8390,1017,-1312,1745190595171210862
1617376,565,2714,-893,8438,1710,-1135,1745190595171210862
1617568,562,2667,-984,8511,2278,-1100,1745190595239136179
1617760,618,2631,-1058,8532,2700,-939,1745190595239136179
1617952,709,2605,-1125,8487,3048,-817,1745190595239136179
1618144,826,2588,-1206,8471,3472,-871,1745190595239136179
1618336,960,2576,-1304,8472,3933,-835,1745190595239136179
1618528,1112,2571,-1407,8512,4164,-727,1745190595239136179
1618720,1269,2569,-1515,8528,4046,-632,1745190595239136179
1618912,1421,2590,-1620,8557,3761,-755,1745190595239136179
1619104,1561,2632,-1720,8693,3478,-865,1745190595239136179
1619296,1659,2685,-1822,8917,3178,-834,1745190595239136179
1619488,1718,2719,-1929,9260,2961,-900,1745190595239136179
1619680,1760,2723,-2041,9647,2937,-793,1745190595239136179
1619872,1795,2711,-2151,9980,3054,-303,1745190595287834797
1620064,1852,2682,-2253,10284,3417,1,1745190595287834797
1620256,1961,2651,-2357,10619,4079,237,1745190595287834797
1620448,2127,2635,-2463,10927,4771,407,1745190595287834797
1620640,2357,2626,-2569,11264,5268,503,1745190595287834797
1620832,2637,2619,-2679,11573,5356,593,1745190595287834797
1621024,2928,2623,-2790,11872,4935,635,1745190595287834797
1621216,3199,2627,-2905,12165,4276,420,1745190595287834797
1621408,3437,2612,-3018,12573,3755,64,1745190595287834797
1621600,3636,2569,-3128,13032,3374,-93,1745190595287834797
1621792,3788,2490,-3226,13453,2896,-11,1745190595287834797
1621984,3892,2382,-3309,13780,2168,204,1745190595287834797
1622176,3941,2251,-3392,13993,1391,71,1745190595344983025
1622368,3948,2103,-3486,14145,904,-279,1745190595344983025
1622560,3912,1954,-3589,14304,657,-498,1745190595344983025
1622752,3844,1783,-3697,14457,364,-318,1745190595344983025
1622944,3731,1590,-3798,14413,-223,-89,1745190595344983025
1623136,3585,1378,-3873,14207,-951,-159,1745190595344983025
1623328,3408,1171,-3935,13996,-1401,-556,1745190595344983025
1623520,3191,996,-3998,13752,-1501,-807,1745190595344983025
1623712,2947,833,-4062,13470,-1451,-628,1745190595344983025
1623904,2713,676,-4129,13201,-1257,-932,1745190595344983025
1624096,2489,517,-4202,12906,-965,-804,1745190595344983025
1624288,2285,374,-4271,12631,-287,-909,1745190595344983025
1624480,2124,242,-4308,12452,399,-589,1745190595404926800
1624672,1977,141,-4307,12305,440,-412,1745190595404926800
1624864,1862,61,-4304,12110,-21,-676,1745190595404926800
1625056,1731,3,-4294,11871,-738,-858,1745190595404926800
1625248,1559,-48,-4268,11695,-1472,-1030,1745190595404926800
1625440,1377,-131,-4213,11557,-2007,-1355,1745190595404926800
1625632,1178,-229,-4134,11338,-2521,-1373,1745190595404926800
1625824,958,-331,-4046,11100,-3160,-1474,1745190595404926800
1626016,729,-414,-3969,10837,-3738,-1649,1745190595404926800
1626208,496,-485,-3900,10635,-3968,-1675,1745190595404926800
1626400,281,-563,-3816,10593,-3692,-1717,1745190595404926800
1626592,78,-639,-3722,10621,-3450,-1290,1745190595404926800
1626784,-110,-726,-3609,10574,-3543,-960,1745190595471223069
1626976,-271,-824,-3480,10216,-3526,-744,1745190595471223069
1627168,-440,-905,-3346,9741,-3409,-379,1745190595471223069
1627360,-625,-964,-3222,9433,-3111,-343,1745190595471223069
1627552,-780,-1022,-3100,9064,-2767,-150,1745190595471223069
1627744,-899,-1074,-2963,8739,-2790,-31,1745190595471223069
1627936,-992,-1118,-2820,8350,-2884,-32,1745190595471223069
1628128,-1072,-1137,-2649,7995,-2968,12,1745190595471223069
1628320,-1139,-1134,-2469,7891,-2870,-180,1745190595471223069
1628512,-1164,-1125,-2290,7991,-2504,-392,1745190595471223069
1628704,-1143,-1127,-2096,8202,-2395,-431,1745190595471223069
1628896,-1079,-1145,-1888,8377,-2893,-727,1745190595471223069
1629088,-1017,-1153,-1679,8435,-3526,-1130,1745190595520576837
1629280,-1008,-1151,-1464,8641,-4080,-1462,1745190595520576837
1629472,-1045,-1161,-1259,8981,-4310,-1828,1745190595520576837
1629664,-1105,-1192,-1072,9361,-4268,-2045,1745190595520576837
1629856,-1168,-1251,-910,9690,-3799,-2002,1745190595520576837
1630048,-1220,-1319,-775,9938,-2481,-1904,1745190595520576837
1630240,-1283,-1285,-971,8701,1371,-649,1745190595520576837
1630432,-1039,-1290,-1018,11462,-3764,-904,1745190595520576837
1630624,-861,-1503,-418,11394,-2773,-2147,1745190595520576837
1630816,-957,-1605,-11,11158,-1849,-1000,1745190595520576837
1631008,-1060,-1681,-165,10257,-1811,-1188,1745190595520576837
1631200,-1061,-1742,-384,10386,-694,-401,1745190595520576837
1631392,-992,-1789,-482,8187,-1335,-538,1745190595583106110
1631584,-897,-1701,-267,7330,-1417,-49,1745190595583106110
1631776,-808,-1589,-1,7326,-1164,5,1745190595583106110
1631968,-793,-1460,43,8187,-269,56,1745190595583106110
1632160,-731,-1516,43,9099,236,203,1745190595583106110
1632352,-670,-1464,80,9152,225,209,1745190595583106110
1632544,-614,-1422,84,8921,524,122,1745190595583106110
1632736,-555,-1360,86,9026,1157,189,1745190595583106110
1632928,-517,-1361,124,9178,1562,284,1745190595583106110
1633120,-491,-1366,120,9215,1720,305,1745190595583106110
1633312,-492,-1313,96,8704,1915,72,1745190595583106110
1633504,-490,-1286,109,8588,2545,272,1745190595583106110
1633696,-454,-1239,113,8421,3118,488,1745190595636743589
1633888,-389,-1184,158,8710,3747,457,1745190595636743589
1634080,-264,-1120,260,8506,4165,421,1745190595636743589
1634272,-165,-1052,302,8729,4157,282,1745190595636743589
1634464,-44,-1004,237,8629,4322,120,1745190595636743589
1634656,49,-941,151,8560,4541,54,1745190595636743589
1634848,106,-876,96,8671,4985,81,1745190595636743589
1635040,132,-817,82,8924,5509,95,1745190595636743589
1635232,152,-768,87,9198,5895,124,1745190595636743589
1635424,174,-732,88,9409,5870,-126,1745190595636743589
1635616,222,-701,74,9494,5734,-194,1745190595636743589
1635808,305,-663,40,9360,5641,28,1745190595636743589
1636000,372,-614,-8,9076,5587,237,1745190595697699073
1636192,385,-560,-65,8779,5465,325,1745190595697699073
1636384,351,-512,-118,8422,5204,223,1745190595697699073
1636576,293,-471,-163,8090,5034,223,1745190595697699073
1636768,211,-439,-197,7873,4963,274,1745190595697699073
1636960,114,-411,-236,7746,4904,447,1745190595697699073
1637152,7,-384,-283,7664,4850,542,1745190595697699073
1637344,-102,-357,-321,7662,4791,582,1745190595697699073
1637536,-196,-333,-340,7669,4755,642,1745190595697699073
1637728,-262,-315,-349,7653,4789,729,1745190595697699073
1637920,-305,-290,-367,7590,4863,821,1745190595697699073
1638112,-324,-253,-374,7532,4886,953,1745190595697699073
1638304,-314,-219,-352,7547,4649,1024,1745190595758504299
1638496,-276,-205,-305,7527,4454,911,1745190595758504299
1638688,-234,-193,-255,7418,4432,739,1745190595758504299
1638880,-204,-182,-235,7288,4555,594,1745190595758504299
1639072,-180,-163,-244,7169,4705,524,1745190595758504299
1639264,-147,-137,-251,7053,4856,397,1745190595758504299
1639456,-100,-111,-240,7025,4769,217,1745190595758504299
1639648,-78,-81,-250,6968,4775,-7,1745190595758504299
1639840,-71,-53,-244,6968,4776,-198,1745190595758504299
1640032,-76,-30,-236,7030,4708,-394,1745190595758504299
1640224,-91,-8,-254,7066,4736,-572,1745190595758504299
1640416,-104,4,-263,7077,4766,-689,1745190595758504299
1640608,-108,8,-260,7062,4692,-854,1745190595812264381
1640800,-111,18,-257,7004,4505,-1046,1745190595812264381
1640992,-118,31,-247,6977,4314,-1215,1745190595812264381
1641184,-131,41,-233,6944,4124,-1368,1745190595812264381
1641376,-152,47,-228,6950,3992,-1402,1745190595812264381
1641568,-170,47,-223,6965,3838,-1379,1745190595812264381
1641760,-181,40,-218,6902,3819,-1263,1745190595812264381
1641952,-190,30,-205,6833,3851,-1070,1745190595812264381
1642144,-198,27,-184,6763,3865,-829,1745190595812264381
1642336,-200,27,-164,6690,4016,-561,1745190595812264381
1642528,-194,31,-158,6643,4216,-369,1745190595812264381
1642720,-175,44,-156,6637,4262,-225,1745190595812264381
1642912,-138,62,-147,6665,4230,-114,1745190595880515060
1643104,-101,85,-134,6714,4122,-102,1745190595880515060
1643296,-69,105,-126,6810,4034,-141,1745190595880515060
1643488,-38,117,-120,6905,3929,-167,1745190595880515060
1643680,-10,121,-107,6935,3862,-190,1745190595880515060
1643872,14,128,-90,6963,3886,-233,1745190595880515060
1644064,34,134,-68,7006,3965,-273,1745190595880515060
1644256,50,137,-43,7039,3886,-417,1745190595880515060
1644448,60,135,-22,6971,3759,-605,1745190595880515060
1644640,52,132,-3,6894,3732,-756,1745190595880515060
1644832,20,130,16,6840,3840,-886,1745190595880515060
1645024,-23,132,32,6852,3998,-950,1745190595880515060
1645216,-64,130,47,6903,4167,-925,1745190595929081751
1645408,-92,124,59,6890,4358,-788,1745190595929081751
1645600,-112,120,60,6900,4590,-668,1745190595929081751
1645792,-123,123,54,6888,4784,-539,1745190595929081751
1645984,-123,132,47,6894,4897,-432,1745190595929081751
1646176,-103,142,39,6894,4929,-315,1745190595929081751
1646368,-63,156,33,6877,4787,-235,1745190595929081751
1646560,-19,170,29,6818,4691,-148,1745190595929081751
1646752,12,186,23,6804,4666,-54,1745190595929081751
1646944,27,203,13,6836,4665,22,1745190595929081751
1647136,41,217,7,6861,4680,-6,1745190595929081751
1647328,53,227,9,6869,4690,-31,1745190595929081751
1647520,56,232,15,6870,4792,41,1745190595989385211
1647712,41,235,10,6812,5171,195,1745190595989385211
1647904,4,246,-13,6767,5604,285,1745190595989385211
1648096,-39,264,-40,6743,5894,394,1745190595989385211
1648288,-71,283,-53,6708,6029,476,1745190595989385211
1648480,-91,306,-62,6667,6001,464,1745190595989385211
1648672,-113,335,-72,6649,5911,440,1745190595989385211
1648864,-134,365,-83,6669,5802,441,1745190595989385211
1649056,-154,391,-94,6693,5810,447,1745190595989385211
1649248,-170,409,-109,6724,5992,515,1745190595989385211
1649440,-184,424,-129,6720,6223,606,1745190595989385211
1649632,-188,437,-145,6634,6430,731,1745190595989385211
1649824,-193,448,-153,6482,6578,858,1745190596052320626
1650016,-214,465,-164,6330,6617,897,1745190596052320626
1650208,-252,486,-169,6195,6533,936,1745190596052320626
1650400,-302,505,-165,6118,6454,986,1745190596052320626
1650592,-353,515,-165,6056,6529,1120,1745190596052320626
1650784,-413,523,-183,6031,6683,1236,1745190596052320626
1650976,-476,536,-216,6002,6607,1257,1745190596052320626
1651168,-530,550,-253,5945,6393,1258,1745190596052320626
1651360,-572,557,-272,5867,6218,1224,1745190596052320626
1651552,-602,556,-282,5802,6110,1257,1745190596052320626
1651744,-625,556,-286,5773,5867,1260,1745190596052320626
1651936,-639,555,-288,5707,5503,1213,1745190596052320626
1652128,-653,558,-293,5655,5270,1227,1745190596111794405
1652320,-677,563,-299,5605,5144,1100,1745190596111794405
1652512,-701,575,-307,5619,5070,1025,1745190596111794405
1652704,-710,583,-303,5647,5021,967,1745190596111794405
1652896,-700,583,-294,5681,5083,932,1745190596111794405
1653088,-692,585,-288,5855,5370,928,1745190596111794405
1653280,-716,584,-255,5935,5297,995,1745190596111794405
1653472,-658,543,-293,5888,5309,863,1745190596111794405
1653664,-640,572,-351,5583,5476,768,1745190596111794405
1653856,-614,584,-360,5543,5476,789,1745190596111794405
1654048,-570,600,-330,5607,5446,740,1745190596111794405
1654240,-520,601,-285,5775,5398,755,1745190596111794405
1654432,-477,588,-252,6005,5430,654,1745190596187792774
1654624,-455,580,-249,6206,5354,583,1745190596187792774
1654816,-426,566,-259,6307,5452,442,1745190596187792774
1655008,-393,552,-262,6386,5564,477,1745190596187792774
1655200,-359,536,-248,6461,5484,390,1745190596187792774
1655392,-316,516,-224,6553,5182,219,1745190596187792774
1655584,-280,494,-197,6614,4818,35,1745190596187792774
1655776,-256,465,-179,6662,4547,-87,1745190596187792774
1655968,-249,428,-174,6646,4517,-73,1745190596187792774
1656160,-251,388,-175,6613,4726,37,1745190596187792774
1656352,-247,356,-175,6601,4997,145,1745190596187792774
1656544,-229,332,-170,6630,5168,305,1745190596187792774
1656736,-199,313,-154,6613,5296,454,1745190596226828094
1656928,-177,293,-144,6617,5477,536,1745190596226828094
1657120,-178,281,-150,6664,5590,537,1745190596226828094
1657312,-185,271,-160,6793,5412,405,1745190596226828094
1657504,-183,254,-158,6909,5058,233,1745190596226828094
1657696,-176,225,-145,6969,4769,32,1745190596226828094
1657888,-178,188,-138,7017,4610,-184,1745190596226828094
1658080,-183,147,-144,7052,4594,-283,1745190596226828094
1658272,-179,101,-155,7051,4691,-221,1745190596226828094
1658464,-165,56,-160,6988,4793,-182,1745190596226828094
1658656,-142,16,-153,6892,4890,-20,1745190596226828094
1658848,-120,-15,-136,6797,5061,139,1745190596226828094
1659040,-107,-40,-121,6728,5249,302,1745190596289974080
1659232,-106,-59,-109,6718,5343,395,1745190596289974080
1659424,-111,-78,-91,6729,5276,393,1745190596289974080
1659616,-115,-100,-68,6715,5147,301,1745190596289974080
1659808,-120,-127,-46,6698,5012,201,1745190596289974080
1660000,-129,-155,-31,6686,4886,103,1745190596289974080
1660192,-141,-180,-22,6659,4800,108,1745190596289974080
1660384,-150,-205,-16,6643,4816,178,1745190596289974080
1660576,-149,-226,-17,6606,4888,236,1745190596289974080
1660768,-140,-241,-21,6581,4963,261,1745190596289974080
1660960,-123,-250,-26,6600,4986,307,1745190596289974080
1661152,-104,-259,-27,6608,4996,362,1745190596289974080
1661344,-86,-271,-23,6634,4976,360,1745190596343186458
1661536,-74,-285,-13,6636,4855,377,1745190596343186458
1661728,-68,-302,-1,6605,4767,372,1745190596343186458
1661920,-70,-316,11,6590,4779,408,1745190596343186458
1662112,-74,-326,20,6641,4814,431,1745190596343186458
1662304,-65,-334,27,6681,4879,511,1745190596343186458
1662496,-43,-344,37,6708,4884,653,1745190596343186458
1662688,-15,-353,45,6710,4966,783,1745190596343186458
1662880,5,-356,43,6694,5085,964,1745190596343186458
1663072,15,-354,35,6688,5187,1124,1745190596343186458
1663264,17,-348,29,6704,5179,1245,1745190596343186458
1663456,16,-343,31,6711,5104,1301,1745190596343186458
1663648,14,-340,35,6714,4975,1298,1745190596403573927
1663840,7,-335,37,6715,4798,1334,1745190596403573927
1664032,2,-332,40,6697,4687,1350,1745190596403573927
1664224,0,-325,43,6694,4664,1340,1745190596403573927
1664416,-1,-315,44,6717,4664,1296,1745190596403573927
1664608,4,-304,40,6733,4593,1260,1745190596403573927
1664800,11,-297,38,6732,4518,1210,1745190596403573927
1664992,13,-292,38,6699,4560,1226,1745190596403573927
1665184,-3,-283,36,6681,4721,1262,1745190596403573927
1665376,-25,-272,35,6693,4850,1340,1745190596403573927
1665568,-40,-262,41,6712,4919,1367,1745190596403573927
1665760,-47,-252,55,6706,4890,1363,1745190596403573927
1665952,-52,-240,68,6693,4795,1328,1745190596460691426
1666144,-63,-226,72,6679,4752,1303,1745190596460691426
1666336,-74,-213,70,6703,4838,1312,1745190596460691426
1666528,-77,-198,69,6721,4980,1368,1745190596460691426
1666720,-64,-180,73,6756,5102,1509,1745190596460691426
1666912,-35,-159,83,6781,5132,1634,1745190596460691426
1667104,-2,-137,92,6812,5033,1709,1745190596460691426
1667296,17,-113,98,6851,4812,1723,1745190596460691426
1667488,15,-89,103,6887,4548,1701,1745190596460691426
1667680,-3,-70,112,6922,4314,1689,1745190596460691426
1667872,-30,-54,124,6909,4200,1711,1745190596460691426
1668064,-64,-37,138,6878,4168,1712,1745190596460691426
1668256,-99,-15,144,6832,4152,1648,1745190596520259789
1668448,-137,12,148,6819,4092,1521,1745190596520259789
1668640,-172,41,154,6849,3972,1352,1745190596520259789
1668832,-196,61,163,6907,3830,1174,1745190596520259789
1669024,-197,74,179,6975,3712,1123,1745190596520259789
1669216,-175,81,211,7027,3633,1128,1745190596520259789
1669408,-141,89,246,7038,3539,1140,1745190596520259789
1669600,-106,103,275,7045,3514,1135,1745190596520259789
1669792,-74,119,292,7068,3494,1227,1745190596520259789
1669984,-46,135,305,7077,3483,1263,1745190596520259789
1670176,-24,150,320,7099,3450,1212,1745190596520259789
1670368,-9,166,338,7136,3329,1147,1745190596520259789
1670560,0,180,362,7168,3132,1057,1745190596581313241
1670752,7,189,388,7211,2966,963,1745190596581313241
1670944,12,195,415,7281,2829,854,1745190596581313241
1671136,15,197,441,7315,2622,785,1745190596581313241
1671328,22,196,471,7317,2331,682,1745190596581313241
1671520,34,191,504,7317,2035,579,1745190596581313241
1671712,44,183,537,7260,1755,466,1745190596581313241
1671904,52,173,574,7174,1510,351,1745190596581313241
1672096,57,164,615,7068,1421,318,1745190596581313241
1672288,50,161,650,7016,1468,270,1745190596581313241
1672480,28,164,677,7015,1574,203,1745190596581313241
1672672,2,169,702,7097,1620,99,1745190596581313241
1672864,-23,171,736,7194,1566,-80,1745190596635233217
1673056,-49,168,784,7290,1410,-249,1745190596635233217
1673248,-87,164,839,7398,1232,-453,1745190596635233217
1673440,-165,159,880,7492,1307,-654,1745190596635233217
1673632,-356,168,934,7909,559,-950,1745190596635233217
1673824,-357,60,1037,8058,394,-1063,1745190596635233217
1674016,-431,51,1054,7566,306,-1704,1745190596635233217
1674208,-565,72,1019,7462,504,-1715,1745190596635233217
1674400,-704,81,1013,7493,850,-1876,1745190596635233217
1674592,-861,92,1050,7828,978,-1843,1745190596635233217
1674784,-1000,54,1097,8248,1228,-1782,1745190596635233217
1674976,-1132,6,1168,8640,1421,-1752,1745190596635233217
1675168,-1221,-41,1235,8940,1253,-1881,1745190596699602994
1675360,-1307,-116,1248,9381,1206,-2199,1745190596699602994
1675552,-1394,-211,1282,9603,1240,-2478,1745190596699602994
1675744,-1440,-311,1315,9726,1235,-2686,1745190596699602994
1675936,-1430,-397,1358,9716,1203,-2975,1745190596699602994
1676128,-1379,-472,1398,9611,1273,-3198,1745190596699602994
1676320,-1316,-538,1436,9560,1470,-3034,1745190596699602994
1676512,-1280,-622,1469,9580,1906,-2675,1745190596699602994
1676704,-1282,-695,1462,9660,2380,-2318,1745190596699602994
1676896,-1328,-758,1410,9809,2822,-2058,1745190596699602994
1677088,-1387,-812,1352,10018,3119,-1969,1745190596699602994
1677280,-1437,-862,1298,10184,3262,-2025,1745190596699602994
1677472,-1472,-915,1256,10402,3293,-2234,1745190596752195691
1677664,-1488,-974,1242,10603,3274,-2463,1745190596752195691
1677856,-1481,-1044,1255,10814,3158,-2756,1745190596752195691
1678048,-1457,-1134,1279,11028,2991,-3213,1745190596752195691
1678240,-1414,-1239,1317,11239,2803,-3706,1745190596752195691
1678432,-1342,-1364,1369,11379,2559,-4186,1745190596752195691
1678624,-1242,-1509,1414,11442,2363,-4674,1745190596752195691
1678816,-1129,-1658,1441,11406,2220,-5044,1745190596752195691
1679008,-1004,-1811,1444,11271,2175,-5192,1745190596752195691
1679200,-896,-1951,1421,10971,2187,-4713,1745190596752195691
1679392,-827,-2076,1374,10628,2393,-4256,1745190596752195691
1679584,-794,-2171,1300,10329,2795,-3905,1745190596752195691
1679776,-793,-2237,1213,10030,3130,-3590,1745190596812600556
1679968,-806,-2282,1134,9846,3289,-3210,1745190596812600556
1680160,-814,-2327,1096,9799,3368,-2864,1745190596812600556
1680352,-789,-2380,1105,9849,3534,-2658,1745190596812600556
1680544,-732,-2439,1148,9961,3803,-2665,1745190596812600556
1680736,-649,-2503,1203,10102,4104,-2810,1745190596812600556
1680928,-546,-2572,1252,10279,4411,-3161,1745190596812600556
1681120,-419,-2642,1286,10456,4652,-3606,1745190596812600556
1681312,-270,-2723,1304,10576,4729,-4008,1745190596812600556
1681504,-106,-2815,1310,10691,4644,-4407,1745190596812600556
1681696,56,-2911,1309,10771,4531,-4776,1745190596812600556
1681888,204,-3003,1307,10814,4446,-5053,1745190596812600556
1682080,325,-3085,1299,10851,4387,-5290,1745190596872767037
1682272,421,-3155,1285,10874,4388,-5460,1745190596872767037
1682464,492,-3223,1265,10940,4368,-5554,1745190596872767037
1682656,542,-3291,1237,11046,4358,-5663,1745190596872767037
1682848,567,-3361,1206,11165,4279,-5713,1745190596872767037
1683040,571,-3436,1174,11290,4248,-5689,1745190596872767037
1683232,560,-3508,1144,11381,4327,-5660,1745190596872767037
1683424,533,-3576,1121,11513,4457,-5654,1745190596872767037
1683616,496,-3646,1104,11664,4570,-5573,1745190596872767037
1683808,455,-3722,1089,11784,4551,-5410,1745190596872767037
1684000,410,-3804,1073,11902,4470,-5211,1745190596872767037
1684192,357,-3887,1057,11961,4333,-4921,1745190596872767037
1684384,287,-3962,1045,11954,4169,-4554,1745190596927573307
1684576,214,-4027,1033,11916,4005,-4325,1745190596927573307
1684768,158,-4085,1024,11865,4018,-4274,1745190596927573307
1684960,110,-4134,1008,11804,4230,-4238,1745190596927573307
1685152,69,-4173,977,11804,4543,-4292,1745190596927573307
1685344,30,-4205,933,11834,4747,-4261,1745190596927573307
1685536,-6,-4238,875,11934,4865,-4257,1745190596927573307
1685728,-34,-4273,802,12019,4941,-4237,1745190596927573307
1685920,-63,-4318,721,12132,5006,-4326,1745190596927573307
1686112,-94,-4378,644,12224,5021,-4263,1745190596927573307
1686304,-139,-4448,563,12288,4916,-4086,1745190596927573307
1686496,-198,-4519,470,12232,4858,-3986,1745190596927573307
1686688,-274,-4588,360,12029,4850,-3943,1745190596987688800
1686880,-365,-4643,239,11708,4839,-3937,1745190596987688800
1687072,-458,-4690,107,11351,4868,-4026,1745190596987688800
1687264,-539,-4726,-25,10947,4890,-4191,1745190596987688800
1687456,-610,-4745,-140,10462,4799,-4076,1745190596987688800
1687648,-676,-4749,-231,10004,4614,-3910,1745190596987688800
1687840,-744,-4731,-307,9531,4441,-3924,1745190596987688800
1688032,-817,-4703,-374,9129,4314,-3946,1745190596987688800
1688224,-896,-4663,-440,8781,4243,-3973,1745190596987688800
1688416,-974,-4632,-503,8501,4146,-3931,1745190596987688800
1688608,-1045,-4613,-563,8329,4029,-3729,1745190596987688800
1688800,-1113,-4582,-626,8082,4020,-3429,1745190596987688800
1688992,-1180,-4515,-695,7728,4232,-3309,1745190597046022434
1689184,-1228,-4414,-767,7337,4565,-3368,1745190597046022434
1689376,-1232,-4296,-846,6987,5004,-3621,1745190597046022434
1689568,-1181,-4196,-926,6823,5401,-3943,1745190597046022434
1689760,-1086,-4134,-1005,6683,5509,-3909,1745190597046022434
1689952,-953,-4079,-1061,6397,5445,-3894,1745190597046022434
1690144,-752,-4019,-1086,6050,5604,-3909,1745190597046022434
1690336,-508,-3931,-1102,5644,6016,-3588,1745190597046022434
1690528,-245,-3818,-1125,5297,6295,-3427,1745190597046022434
1690720,10,-3705,-1148,4999,6188,-3329,1745190597046022434
1690912,214,-3579,-1163,4759,5633,-3287,1745190597046022434
1691104,336,-3453,-1168,4561,4907,-3225,1745190597046022434
1691296,378,-3322,-1162,4368,4294,-3295,1745190597105258976
1691488,377,-3197,-1144,4174,3995,-3366,1745190597105258976
1691680,366,-3076,-1132,3999,3886,-3501,1745190597105258976
1691872,363,-2961,-1138,3885,3778,-3750,1745190597105258976
1692064,362,-2856,-1158,3836,3539,-4135,1745190597105258976
1692256,329,-2749,-1176,3803,3082,-4148,1745190597105258976
1692448,254,-2631,-1184,3704,2767,-4351,1745190597105258976
1692640,167,-2502,-1185,3610,2625,-4813,1745190597105258976
1692832,89,-2346,-1184,3620,2530,-5086,1745190597105258976
1693024,51,-2190,-1173,3722,2462,-5297,1745190597105258976
1693216,57,-2059,-1158,3824,2595,-5566,1745190597105258976
1693408,108,-1931,-1157,3857,2830,-5553,1745190597105258976
1693600,185,-1807,-1166,3833,2924,-5350,1745190597162531838
1693792,285,-1690,-1176,3733,2903,-5147,1745190597162531838
1693984,396,-1566,-1183,3590,2799,-4819,1745190597162531838
1694176,504,-1446,-1188,3406,2733,-4413,1745190597162531838
1694368,615,-1330,-1194,3122,2775,-3852,1745190597162531838
1694560,725,-1210,-1198,2800,2737,-3608,1745190597162531838
1694752,814,-1085,-1196,2537,2530,-3421,1745190597162531838
1694944,882,-955,-1185,2345,2334,-2968,1745190597162531838
1695136,915,-828,-1168,2195,2127,-2373,1745190597162531838
1695328,931,-708,-1153,1991,1947,-1747,1745190597162531838
1695520,943,-580,-1145,1739,1801,-1240,1745190597162531838
1695712,970,-444,-1145,1486,1705,-968,1745190597162531838
1695904,1037,-294,-1164,992,1632,-1017,1745190597220305477
1696096,1043,-160,-1141,1346,1226,-1020,1745190597220305477
1696288,1084,-48,-1147,1387,927,-1840,1745190597220305477
1696480,1129,112,-1186,1288,1057,-2253,1745190597220305477
1696672,1186,218,-1185,1655,1207,-2758,1745190597220305477
1696864,1247,301,-1168,2129,1196,-3347,1745190597220305477
1697056,1301,383,-1149,2475,1092,-3911,1745190597220305477
1697248,1350,462,-1109,2820,854,-4494,1745190597220305477
1697440,1388,511,-1070,3208,571,-5149,1745190597220305477
1697632,1403,530,-1048,3442,205,-5646,1745190597220305477
1697824,1381,536,-1051,3510,-122,-5986,1745190597220305477
1698016,1313,546,-1056,3457,-399,-6242,1745190597220305477
1698208,1201,552,-1061,3359,-560,-6384,1745190597280008265
1698400,1083,560,-1061,3211,-527,-6438,1745190597280008265
1698592,982,568,-1049,2996,-345,-6411,1745190597280008265
1698784,899,575,-1019,2762,-169,-6318,1745190597280008265
1698976,833,592,-977,2572,-116,-6140,1745190597280008265
1699168,777,615,-930,2425,-148,-5977,1745190597280008265
1699360,729,637,-881,2297,-245,-5562,1745190597280008265
1699552,679,664,-824,2161,-461,-5191,1745190597280008265
1699744,624,690,-759,2009,-702,-4730,1745190597280008265
1699936,562,722,-687,1951,-852,-4441,1745190597280008265
1700128,521,750,-623,1923,-801,-4377,1745190597280008265
1700320,485,776,-567,2068,-837,-4521,1745190597280008265
1700512,433,789,-546,2224,-948,-4702,1745190597337485761
1700704,402,806,-522,2337,-1062,-4952,1745190597337485761
1700896,389,817,-486,2470,-1171,-5438,1745190597337485761
1701088,382,829,-446,2570,-1216,-5980,1745190597337485761
1701280,369,838,-409,2725,-1163,-6508,1745190597337485761
1701472,322,830,-403,2807,-1198,-6971,1745190597337485761
1701664,260,823,-399,2862,-1228,-7322,1745190597337485761
1701856,190,817,-391,2986,-1162,-7594,1745190597337485761
1702048,119,793,-378,3101,-895,-7759,1745190597337485761
1702240,65,752,-357,3168,-498,-7733,1745190597337485761
1702432,23,706,-331,3231,-99,-7565,1745190597337485761
1702624,-13,662,-315,3160,68,-7283,1745190597337485761
1702816,-50,640,-304,2979,-15,-7028,1745190597414764586
1703008,-98,627,-288,2811,-181,-6790,1745190597414764586
1703200,-140,620,-256,2654,-226,-6538,1745190597414764586
1703392,-178,615,-227,2579,-128,-6337,1745190597414764586
1703584,-194,615,-220,2432,90,-6195,1745190597414764586
1703776,-190,635,-209,2385,306,-6221,1745190597414764586
1703968,-211,666,-190,2411,403,-6208,1745190597414764586
1704160,-210,697,-167,2539,378,-6205,1745190597414764586
1704352,-212,724,-142,2751,227,-6218,1745190597414764586
1704544,-219,742,-121,2893,70,-6240,1745190597414764586
1704736,-219,756,-108,2935,66,-6349,1745190597414764586
1704928,-229,769,-114,3008,204,-6406,1745190597414764586
1705120,-225,778,-131,3052,392,-6432,1745190597453688970
1705312,-203,783,-146,3068,602,-6532,1745190597453688970
1705504,-173,793,-173,3066,803,-6359,1745190597453688970
1705696,-172,818,-171,2977,280,-6195,1745190597453688970
1705888,-149,806,-161,2878,376,-6382,1745190597453688970
1706080,-125,809,-184,2979,1054,-6528,1745190597453688970
1706272,-106,806,-212,3182,1803,-6302,1745190597453688970
1706464,-71,821,-234,3177,1649,-5440,1745190597453688970
1706656,-17,922,-161,3069,-857,-4153,1745190597453688970
1706848,27,1058,216,3421,-5399,-7536,1745190597453688970
1707040,54,1037,802,4398,-8553,-11902,1745190597453688970
1707232,-137,880,1146,5632,-8512,-13366,1745190597453688970
1707424,-660,683,1006,6759,-6978,-15867,1745190597523344323
1707616,-1350,517,572,7244,-5921,-13901,1745190597523344323
1707808,-1818,271,225,7417,-3955,-13873,1745190597523344323
1708000,-1930,44,116,7312,-2328,-12521,1745190597523344323
1708192,-1757,-120,247,6766,-863,-10819,1745190597523344323
1708384,-1429,-243,427,5829,-19,-10031,1745190597523344323
1708576,-1142,-274,533,4524,-258,-9873,1745190597523344323
1708768,-1005,-256,555,3475,-731,-9797,1745190597523344323
1708960,-975,-228,475,2692,-503,-9456,1745190597523344323
1709152,-982,-210,354,2102,769,-8790,1745190597523344323
1709344,-978,-198,262,1668,2284,-8140,1745190597523344323
1709536,-932,-161,243,1273,3450,-7794,1745190597523344323
1709728,-849,-84,300,988,4103,-7632,1745190597570559361
1709920,-724,21,372,951,4238,-7586,1745190597570559361
1710112,-570,130,384,1142,4011,-7593,1745190597570559361
1710304,-394,230,317,1403,3690,-7478,1745190597570559361
1710496,-221,320,204,1682,3288,-7389,1745190597570559361
1710688,-75,400,103,1910,2608,-7701,1745190597570559361
1710880,39,458,57,2121,1732,-8559,1745190597570559361
1711072,104,476,67,2412,979,-9656,1745190597570559361
1711264,104,443,96,2697,625,-10430,1745190597570559361
1711456,38,376,112,2886,668,-10634,1745190597570559361
1711648,-65,298,98,2982,1006,-10522,1745190597570559361
1711840,-146,227,53,2973,1413,-10307,1745190597570559361
1712032,-151,166,-3,2823,1777,-9959,1745190597628859661
1712224,-71,120,-49,2448,1975,-9666,1745190597628859661
1712416,44,97,-64,2001,1935,-9454,1745190597628859661
1712608,152,95,-51,1571,1623,-9219,1745190597628859661
1712800,230,106,-14,1215,1216,-8997,1745190597628859661
1712992,273,114,32,912,905,-8888,1745190597628859661
1713184,270,121,74,782,628,-8764,1745190597628859661
1713376,240,126,100,749,413,-8721,1745190597628859661
1713568,200,128,110,759,330,-8517,1745190597628859661
1713760,150,127,111,831,538,-8143,1745190597628859661
1713952,99,127,113,910,910,-7846,1745190597628859661
1714144,58,134,125,1067,1271,-7669,1745190597628859661
1714336,42,145,144,1268,1574,-7508,1745190597687893966
1714528,42,158,162,1514,1801,-7395,1745190597687893966
1714720,35,169,168,1811,1939,-7410,1745190597687893966
1714912,11,174,155,2101,1997,-7433,1745190597687893966
1715104,-31,167,131,2271,2019,-7478,1745190597687893966
1715296,-89,153,106,2349,2037,-7575,1745190597687893966
1715488,-148,137,86,2400,2048,-7544,1745190597687893966
1715680,-176,124,74,2423,1987,-7423,1745190597687893966
1715872,-160,115,72,2415,1885,-7291,1745190597687893966
1716064,-125,116,76,2408,1677,-7258,1745190597687893966
1716256,-92,128,81,2464,1330,-7271,1745190597687893966
1716448,-75,142,87,2600,910,-7396,1745190597687893966
1716640,-75,142,97,2727,483,-7506,1745190597746193381
1716832,-85,131,114,2854,167,-7628,1745190597746193381
1717024,-108,113,124,2954,-52,-7751,1745190597746193381
1717216,-139,91,126,2988,-180,-7861,1745190597746193381
1717408,-179,68,123,2993,-169,-7890,1745190597746193381
1717600,-223,41,117,2914,-74,-7840,1745190597746193381
1717792,-268,18,110,2784,133,-7739,1745190597746193381
1717984,-308,-2,104,2612,470,-7650,1745190597746193381
1718176,-336,-16,101,2498,803,-7588,1745190597746193381
1718368,-346,-20,98,2414,1075,-7505,1745190597746193381
1718560,-337,-21,92,2362,1295,-7420,1745190597746193381
1718752,-315,-20,81,2327,1445,-7379,1745190597746193381
1718944,-291,-16,66,2278,1528,-7340,1745190597828721273
1719136,-268,-8,52,2205,1569,-7350,1745190597828721273
1719328,-249,0,43,2152,1538,-7440,1745190597828721273
1719520,-230,8,40,2182,1510,-7518,1745190597828721273
1719712,-212,15,38,2222,1475,-7611,1745190597828721273
1719904,-200,19,31,2307,1400,-7723,1745190597828721273
1720096,-199,20,18,2383,1327,-7827,1745190597828721273
1720288,-215,14,12,2444,1234,-7920,1745190597828721273
1720480,-219,2,16,2457,1128,-7929,1745190597828721273
1720672,-216,-13,22,2393,1057,-7951,1745190597828721273
1720864,-212,-22,25,2310,990,-7953,1745190597828721273
1721056,-204,-25,27,2213,899,-7924,1745190597828721273
1721248,-198,-25,27,2118,831,-7909,1745190597862619870
1721440,-202,-18,18,2093,768,-7858,1745190597862619870
1721632,-224,-5,-24,2163,764,-7725,1745190597862619870
1721824,-251,-5,-81,2020,852,-7605,1745190597862619870
1722016,-261,-7,-92,1762,1037,-7538,1745190597862619870
1722208,-252,-1,-58,1580,1212,-7500,1745190597862619870
1722400,-220,17,-15,1635,1399,-7528,1745190597862619870
1722592,-168,44,2,1827,1458,-7603,1745190597862619870
1722784,-124,73,-15,2036,1296,-7731,1745190597862619870
1722976,-93,88,-37,2278,1157,-7805,1745190597862619870
1723168,-66,83,-35,2623,1271,-7864,1745190597862619870
1723360,-43,70,-20,2761,1433,-7919,1745190597862619870
1723552,-29,61,-6,2650,1347,-7953,1745190597929138898
1723744,-25,61,-4,2543,1211,-7963,1745190597929138898
1723936,-27,57,-14,2523,1222,-7965,1745190597929138898
1724128,-41,52,-36,2469,1336,-7963,1745190597929138898
1724320,-50,50,-49,2449,1463,-7932,1745190597929138898
1724512,-51,55,-58,2409,1474,-7906,1745190597929138898
1724704,-48,54,-65,2300,1390,-7906,1745190597929138898
1724896,-47,74,-96,2202,1149,-7930,1745190597929138898
1725088,-56,77,-137,2421,1484,-7820,1745190597929138898
1725280,-60,74,-121,2616,1701,-7801,1745190597929138898
1725472,-47,64,-81,2778,1805,-7721,1745190597929138898
1725664,3,59,-49,3342,1810,-7617,1745190597929138898
1725856,60,38,-74,3102,1491,-7798,1745190597979698227
1726048,55,27,-79,2648,1020,-7822,1745190597979698227
1726240,40,24,-72,2382,848,-7734,1745190597979698227
1726432,27,17,-73,2176,932,-7588,1745190597979698227
1726624,18,20,-32,1978,259,-7430,1745190597979698227
1726816,13,25,57,2348,1082,-7385,1745190597979698227
1727008,16,33,49,2234,1690,-7178,1745190597979698227
1727200,52,48,19,2029,1876,-7385,1745190597979698227
1727392,28,66,33,1725,1902,-7444,1745190597979698227
1727584,5,80,23,1839,1850,-7394,1745190597979698227
1727776,21,100,-30,2133,1673,-7370,1745190597979698227
1727968,55,114,-65,2460,1681,-7416,1745190597979698227
1728160,66,109,-59,2704,1699,-7543,1745190598040014395
1728352,57,87,-34,2777,1607,-7686,1745190598040014395
1728544,47,59,-31,2768,1433,-7868,1745190598040014395
1728736,28,36,-56,2760,1310,-7986,1745190598040014395
1728928,7,10,-75,2764,1339,-8102,1745190598040014395
1729120,-13,-10,-74,2629,1291,-8200,1745190598040014395
1729312,-36,-27,-54,2413,1138,-8292,1745190598040014395
1729504,-72,-38,-26,2217,933,-8263,1745190598040014395
1729696,-98,-39,-2,2150,890,-8105,1745190598040014395
1729888,-109,-43,19,2116,1095,-7984,1745190598040014395
1730080,-118,-37,56,1972,1331,-7838,1745190598040014395
1730272,-112,-29,93,1879,1432,-7640,1745190598040014395
1730464,-84,-6,106,1980,1660,-7506,1745190598096386276
1730656,-42,20,87,1921,1776,-7343,1745190598096386276
1730848,-1,56,72,1966,1615,-7389,1745190598096386276
1731040,23,82,80,2059,1677,-7393,1745190598096386276
1731232,46,100,72,2284,1531,-7455,1745190598096386276
1731424,50,108,60,2556,1333,-7555,1745190598096386276
1731616,49,104,40,2804,1366,-7641,1745190598096386276
1731808,42,90,17,2934,1387,-7669,1745190598096386276
1732000,40,72,6,2976,1398,-7698,1745190598096386276
1732192,45,56,1,2912,1349,-7686,1745190598096386276
1732384,61,55,2,2672,1330,-7682,1745190598096386276
1732576,74,56,14,2517,1389,-7705,1745190598096386276
1732768,66,49,14,2562,1395,-7731,1745190598155474590
1732960,53,41,-3,2540,1276,-7723,1745190598155474590
1733152,43,36,-10,2486,1158,-7703,1745190598155474590
1733344,35,32,2,2464,1173,-7687,1745190598155474590
1733536,20,24,12,2410,1203,-7662,1745190598155474590
1733728,17,6,19,2062,1309,-6844,1745190598155474590
1733920,-8,-74,14,1710,916,-6405,1745190598155474590
1734112,-104,-41,-44,1871,106,-7675,1745190598155474590
1734304,-109,65,-57,2849,2139,-7082,1745190598155474590
1734496,45,5,49,3605,3316,-7135,1745190598155474590
1734688,99,2,102,2699,1263,-7425,1745190598155474590
1734880,8,29,29,1645,-184,-7731,1745190598155474590
1769632,-371,-498,277,3570,1904,-5896,1745190599091495571
1769824,-392,-268,119,2334,72,-7058,1745190599091495571
1770016,-243,-222,-76,2164,2089,-7108,1745190599091495571
1770208,-225,-263,-192,1616,2496,-7693,1745190599091495571
1770400,-226,-237,-217,1513,2446,-8056,1745190599091495571
1770592,-277,-191,-157,1895,1740,-8218,1745190599091495571
1770784,-299,-148,-98,2339,1201,-8373,1745190599091495571
1770976,-284,-149,-52,2676,1485,-8326,1745190599091495571
1771168,-315,-164,-1,2795,1957,-7454,1745190599091495571
1771360,-342,-136,62,2587,2007,-8055,1745190599091495571
1771552,-270,-73,132,2255,2082,-8009,1745190599091495571
1771744,-145,-8,161,1726,2903,-8130,1745190599091495571
1771936,-46,80,145,1398,3092,-8741,1745190599157132992
1772128,98,181,120,1310,2909,-8594,1745190599157132992
1772320,272,273,132,1394,2630,-9211,1745190599157132992
1772512,421,353,171,1636,2048,-9583,1745190599157132992
1772704,506,404,193,1921,2057,-9544,1745190599157132992
1772896,581,458,200,2273,2695,-9473,1745190599157132992
1773088,760,370,229,3366,2417,-9492,1745190599157132992
1773280,786,529,243,2106,-835,-9404,1745190599157132992
1773472,295,478,82,2941,-6006,-9583,1745190599157132992
1773664,-265,237,-73,4205,-4734,-8589,1745190599157132992
1773856,-528,-62,-28,4297,-1122,-8093,1745190599157132992
1774048,-562,-207,120,3594,1798,-7456,1745190599157132992
1774240,-433,-201,223,3092,3349,-6920,1745190599206378324
1774432,-222,-114,183,2488,3243,-6646,1745190599206378324
1774624,-4,-14,94,2008,2103,-6733,1745190599206378324
1774816,124,59,19,1890,968,-6964,1745190599206378324
1775008,139,119,-34,2002,171,-7113,1745190599206378324
1775200,86,153,-34,2340,-108,-7103,1745190599206378324
1775392,20,154,-4,2829,147,-7106,1745190599206378324
1775584,-43,149,6,3163,467,-7112,1745190599206378324
1775776,-82,138,-11,3415,643,-7157,1745190599206378324
1775968,-93,129,-35,3454,784,-7289,1745190599206378324
1776160,-94,121,-56,3358,811,-7430,1745190599206378324
1776352,-105,113,-64,3213,747,-7648,1745190599206378324
1776544,-124,99,-66,3133,728,-7852,1745190599269362071
1776736,-137,86,-73,3006,697,-7966,1745190599269362071
1776928,-141,75,-83,2955,760,-8124,1745190599269362071
1777120,-125,65,-87,2967,895,-8252,1745190599269362071
1777312,-65,59,-84,3013,1203,-7702,1745190599269362071
1777504,61,62,-77,3098,1512,-7430,1745190599269362071
1777696,213,64,-76,3097,1628,-7541,1745190599269362071
1777888,338,61,-76,3076,1682,-7718,1745190599269362071
1778080,441,62,-96,3031,1722,-7676,1745190599269362071
1778272,518,75,-133,3027,1708,-7548,1745190599269362071
1778464,585,86,-164,3093,1698,-7496,1745190599269362071
1778656,653,98,-180,3128,1673,-7376,1745190599269362071
1778848,725,104,-183,3154,1643,-7116,1745190599325036042
1779040,805,111,-180,3184,1576,-6928,1745190599325036042
1779232,880,121,-178,3209,1424,-6804,1745190599325036042
1779424,944,137,-187,3193,1306,-6329,1745190599325036042
1779616,954,176,-209,3200,855,-6259,1745190599325036042
1779808,929,190,-193,3525,-247,-7012,1745190599325036042
1780000,961,188,-142,3716,-1014,-7057,1745190599325036042
1780192,953,153,-126,3643,-898,-7273,1745190599325036042
1780384,874,129,-151,3550,-592,-7484,1745190599325036042
1780576,766,133,-167,3485,-645,-7188,1745190599325036042
1780768,708,139,-143,3416,-945,-7124,1745190599325036042
1780960,702,144,-94,3334,-1087,-7213,1745190599325036042
1781152,681,148,-49,3230,-1194,-7207,1745190599462858897
1781344,646,150,-19,3140,-1215,-7070,1745190599462858897
1781536,602,151,2,3067,-1215,-6817,1745190599462858897
1781728,562,151,32,3034,-970,-6666,1745190599462858897
1781920,578,150,99,3101,-155,-6689,1745190599462858897
1782112,667,152,181,3244,972,-6682,1745190599462858897
1782304,827,130,252,3246,1692,-6384,1745190599462858897
1782496,1038,110,311,3047,1877,-6484,1745190599462858897
1782688,1287,112,349,2759,1912,-6382,1745190599462858897
1782880,1572,143,353,2550,2490,-6468,1745190599462858897
1783072,1850,175,319,2369,3395,-6575,1745190599462858897
1783264,2062,225,274,2150,3480,-6568,1745190599462858897
1783456,2227,290,267,1918,2378,-6820,1745190599470004561
1783648,2351,357,308,1945,1072,-7191,1745190599470004561
1783840,2394,407,346,2031,-56,-7474,1745190599470004561
1784032,2337,432,358,2133,-956,-7643,1745190599470004561
1784224,2221,439,349,2334,-1602,-7661,1745190599470004561
1784416,2086,438,323,2391,-1884,-7741,1745190599470004561
1784608,1934,437,288,2492,-2075,-7706,1745190599470004561
1784800,1759,443,268,2559,-2274,-7697,1745190599470004561
1784992,1576,452,282,2581,-2690,-7743,1745190599470004561
1785184,1387,461,325,2788,-3171,-8112,1745190599470004561
1785376,1193,441,377,3045,-3493,-8298,1745190599470004561
1785568,976,403,419,3162,-3707,-7970,1745190599470004561
1785568,976,403,419,3162,-3707,-7970,1745190599498943568
1785760,748,342,432,3361,-3458,-8552,1745190599498943568
1785952,543,283,411,3710,-2423,-8963,1745190599498943568
1786144,374,238,380,3981,-1515,-8882,1745190599498943568
1786336,271,213,388,4108,-1443,-8842,1745190599498943568
1786528,220,189,453,4266,-1721,-8851,1745190599498943568
1786720,172,160,521,4421,-1802,-8709,1745190599498943568
1786912,109,126,555,4548,-1847,-8605,1745190599498943568
1787104,40,95,566,4545,-2101,-8636,1745190599498943568
1787296,-33,66,595,4447,-2516,-8643,1745190599498943568
1787488,-116,38,643,4377,-2771,-8634,1745190599498943568
1787680,-230,14,684,4374,-2968,-8517,1745190599498943568
1787872,-366,-10,720,4390,-3183,-8142,1745190599566126600
1788064,-493,-29,773,4394,-3258,-7846,1745190599566126600
1788256,-594,-35,842,4390,-3109,-7647,1745190599566126600
1788448,-687,-22,905,4395,-3033,-7431,1745190599566126600
1788640,-789,0,951,4426,-3153,-7220,1745190599566126600
1788832,-893,22,999,4524,-3464,-6973,1745190599566126600
1789024,-992,34,1066,4711,-3695,-6937,1745190599566126600
1789216,-1101,29,1141,4973,-3840,-6948,1745190599566126600
1789408,-1217,14,1213,5125,-3946,-6754,1745190599566126600
1789600,-1323,3,1270,5139,-3918,-6687,1745190599566126600
1789792,-1426,3,1309,5071,-3795,-6560,1745190599566126600
1789984,-1517,28,1344,4905,-3672,-6131,1745190599566126600
1790176,-1572,69,1388,4754,-3397,-5844,1745190599615138652
1790368,-1586,128,1431,4615,-2988,-5700,1745190599615138652
1790560,-1577,206,1468,4512,-2691,-5473,1745190599615138652
1790752,-1556,288,1501,4516,-2572,-5353,1745190599615138652
1790944,-1527,358,1535,4698,-2522,-5333,1745190599615138652
1791136,-1507,417,1567,4924,-2623,-5272,1745190599615138652
1791328,-1506,463,1596,5147,-2720,-5272,1745190599615138652
1791520,-1527,502,1619,5292,-2791,-5316,1745190599615138652
1791712,-1570,541,1632,5472,-2712,-5392,1745190599615138652
1791904,-1626,582,1627,5619,-2551,-5510,1745190599615138652
1792096,-1682,621,1619,5739,-2261,-5627,1745190599615138652
1792288,-1725,658,1611,5878,-1898,-5695,1745190599615138652
1792480,-1748,698,1611,6054,-1552,-5631,1745190599675584090
1792672,-1751,738,1619,6201,-1241,-5522,1745190599675584090
1792864,-1739,782,1628,6334,-977,-5372,1745190599675584090
1793056,-1726,832,1631,6424,-748,-5187,1745190599675584090
1793248,-1724,888,1627,6509,-539,-4965,1745190599675584090
1793440,-1731,947,1609,6550,-387,-4778,1745190599675584090
1793632,-1758,1016,1587,6586,-237,-4607,1745190599675584090
1793824,-1796,1088,1566,6619,-117,-4484,1745190599675584090
1794016,-1836,1158,1554,6676,-10,-4383,1745190599675584090
1794208,-1870,1225,1550,6769,92,-4244,1745190599675584090
1794400,-1895,1284,1550,6838,206,-4101,1745190599675584090
1794592,-1891,1341,1553,6926,404,-4025,1745190599675584090
1794784,-1872,1412,1559,7062,691,-3905,1745190599733642205
1794976,-1838,1490,1552,7190,977,-3721,1745190599733642205
1795168,-1769,1553,1528,7263,1257,-3508,1745190599733642205
1795360,-1675,1633,1508,7388,1519,-3192,1745190599733642205
1795552,-1578,1726,1482,7504,1740,-2828,1745190599733642205
1795744,-1455,1810,1444,7596,1961,-2624,1745190599733642205
1795936,-1309,1894,1403,7666,2141,-2228,1745190599733642205
1796128,-1146,1984,1364,7766,2361,-2153,1745190599733642205
1796320,-958,2064,1325,7848,2640,-1962,1745190599733642205
1796512,-765,2147,1292,7888,2937,-1843,1745190599733642205
1796704,-552,2226,1258,7934,3185,-1818,1745190599733642205
1796896,-323,2310,1227,7950,3419,-1652,1745190599733642205
1797088,-88,2406,1210,8000,3598,-1545,1745190599792417710
1797280,153,2495,1190,8126,3752,-1443,1745190599792417710
1797472,398,2583,1158,8309,3904,-1419,1745190599792417710
1797664,643,2673,1123,8426,3928,-1367,1745190599792417710
1797856,879,2757,1092,8748,4081,-1270,1745190599792417710
1798048,1116,2827,1046,8816,4220,-1312,1745190599792417710
1798240,1367,2896,977,8966,4230,-1320,1745190599792417710
1798432,1625,2962,905,9026,4229,-1382,1745190599792417710
1798624,1874,3020,841,9033,4183,-1442,1745190599792417710
1798816,2106,3081,789,9082,4004,-1542,1745190599792417710
1799008,2321,3132,744,9135,3767,-1651,1745190599792417710
1799200,2516,3168,701,9193,3437,-1538,1745190599792417710
1799392,2679,3192,660,9229,3008,-1435,1745190599851129778
1799584,2816,3206,609,9275,2650,-1518,1745190599851129778
1799776,2924,3213,543,9257,2346,-1626,1745190599851129778
1799968,2995,3222,471,9282,2094,-1758,1745190599851129778
1800160,3029,3224,396,9325,1867,-1766,1745190599851129778
1800352,3040,3211,323,9424,1637,-1732,1745190599851129778
1800544,3025,3175,251,9506,1420,-1696,1745190599851129778
1800736,2981,3141,184,9548,1191,-1674,1745190599851129778
1800928,2920,3095,121,9514,962,-1725,1745190599851129778
1801120,2843,3044,66,9410,725,-1754,1745190599851129778
1801312,2749,2987,13,9235,443,-1639,1745190599851129778
1801504,2631,2918,-33,9004,93,-1541,1745190599851129778
1801696,2483,2851,-74,8827,-258,-1377,1745190599909528515
1801888,2289,2791,-111,8656,-655,-1020,1745190599909528515
1802080,2033,2740,-133,8537,-1122,-658,1745190599909528515
1802272,1725,2688,-153,8559,-1448,-368,1745190599909528515
1802464,1378,2630,-169,8562,-1712,-195,1745190599909528515
1802656,985,2565,-168,8584,-1740,-282,1745190599909528515
1802848,573,2486,-157,8547,-1637,-389,1745190599909528515
1803040,169,2411,-136,8442,-1511,-503,1745190599909528515
1803232,-181,2336,-100,8298,-1282,-649,1745190599909528515
1803424,-454,2278,-52,8120,-974,-901,1745190599909528515
1803616,-670,2239,3,7934,-658,-1199,1745190599909528515
1803808,-841,2219,60,7837,-423,-1495,1745190599909528515
1804000,-982,2204,115,7852,-162,-1977,1745190599976912691
1804192,-1106,2193,155,7873,83,-2502,1745190599976912691
1804384,-1221,2183,181,7940,286,-2890,1745190599976912691
1804576,-1326,2175,199,8061,445,-3321,1745190599976912691
1804768,-1424,2163,201,8211,653,-3810,1745190599976912691
1804960,-1504,2168,222,8287,1010,-4213,1745190599976912691
1805152,-1561,2172,268,8356,1176,-4333,1745190599976912691
1805344,-1608,2198,287,8453,1259,-4402,1745190599976912691
1805536,-1651,2232,261,8553,1640,-4422,1745190599976912691
1805728,-1670,2246,241,8786,2168,-4195,1745190599976912691
1805920,-1666,2252,238,9160,2521,-3826,1745190599976912691
1806112,-1638,2218,216,9617,2605,-3290,1745190599976912691
1806304,-1608,2155,158,9973,2615,-2695,1745190600024339498
1806496,-1570,2086,118,10176,2790,-2291,1745190600024339498
1806688,-1519,2041,117,10164,2996,-1805,1745190600024339498
1806880,-1449,2032,123,10050,3207,-1481,1745190600024339498
1807072,-1329,2064,89,9858,3651,-1211,1745190600024339498
1807264,-1149,2122,3,9583,4101,-924,1745190600024339498
1807456,-906,2185,-108,9598,4606,-743,1745190600024339498
1807648,-615,2245,-238,9564,4859,-612,1745190600024339498
1807840,-293,2324,-361,9623,4789,-348,1745190600024339498
1808032,41,2408,-485,9723,4516,-176,1745190600024339498
1808224,362,2507,-644,9826,4208,133,1745190600024339498
1808416,659,2608,-806,9932,4024,410,1745190600024339498
1808608,937,2708,-960,10093,3913,264,1745190600087151163
1808800,1207,2805,-1121,10321,3985,89,1745190600087151163
1808992,1476,2900,-1262,10562,4244,259,1745190600087151163
1809184,1755,2979,-1362,10918,4715,358,1745190600087151163
1809376,2066,3032,-1475,11331,5491,321,1745190600087151163
1809568,2393,3092,-1624,11689,6277,808,1745190600087151163
1809760,2716,3135,-1780,12128,6853,1165,1745190600087151163
1809952,3066,3147,-1928,12686,7362,1046,1745190600087151163
1810144,3450,3144,-2083,13177,7710,1118,1745190600087151163
1810336,3844,3134,-2246,13633,8098,978,1745190600087151163
1810528,4231,3110,-2423,14057,8152,1125,1745190600087151163
1810720,4570,3067,-2604,14528,7723,1250,1745190600087151163
1810912,4887,3004,-2772,15069,7405,642,1745190600141648686
1811104,5242,2936,-2930,15543,7537,442,1745190600141648686
1811296,5637,2843,-3068,15985,7846,772,1745190600141648686
1811488,6044,2701,-3188,16506,7903,1377,1745190600141648686
1811680,6431,2474,-3310,17132,7386,1429,1745190600141648686
1811872,6751,2168,-3451,17823,6447,477,1745190600141648686
1812064,6987,1818,-3625,18409,5402,-799,1745190600141648686
1812256,7124,1451,-3824,18658,4544,-1852,1745190600141648686
1812448,7120,1086,-4023,18496,3392,-2294,1745190600141648686
1812640,6960,724,-4182,17922,1860,-3076,1745190600141648686
1812832,6648,402,-4316,17255,26,-4457,1745190600141648686
1813024,6160,143,-4455,16275,-1732,-5432,1745190600141648686
1813216,5514,-93,-4563,15271,-3522,-5704,1745190600206071379
1813408,4738,-319,-4602,14517,-5069,-5651,1745190600206071379
1813600,3864,-541,-4555,13757,-6219,-5098,1745190600206071379
1813792,2945,-746,-4411,13199,-7128,-4223,1745190600206071379
1813984,2069,-940,-4193,12820,-8014,-2893,1745190600206071379
1814176,1348,-1154,-3947,12458,-8118,-2067,1745190600206071379
1814368,772,-1356,-3787,11792,-7078,-919,1745190600206071379
1814560,277,-1491,-3758,10705,-5279,495,1745190600206071379
1814752,-141,-1573,-3764,9579,-3987,1679,1745190600206071379
1814944,-417,-1597,-3698,8579,-3444,2150,1745190600206071379
1815136,-549,-1611,-3541,7771,-3282,2543,1745190600206071379
1815328,-610,-1611,-3335,7090,-3281,2430,1745190600206071379
1815520,-674,-1582,-3105,6710,-3416,2141,1745190600258574493
1815712,-764,-1520,-2881,6526,-3650,1765,1745190600258574493
1815904,-848,-1465,-2695,7115,-4057,1067,1745190600258574493
1816096,-873,-1463,-2416,8073,-4130,478,1745190600258574493
1816288,-830,-1506,-2029,8350,-4825,-605,1745190600258574493
1816480,-805,-1535,-1710,8625,-5565,-1806,1745190600258574493
1816672,-855,-1579,-1493,8755,-6000,-2536,1745190600258574493
1816864,-948,-1616,-1312,8518,-6343,-2939,1745190600258574493
1817056,-1047,-1651,-1156,8417,-6048,-2855,1745190600258574493
1817248,-1172,-1689,-1111,7993,-5361,-2621,1745190600258574493
1817440,-1183,-1703,-903,8776,-5912,-2652,1745190600258574493
1817632,-1207,-1752,-624,7798,-4668,-2191,1745190600258574493
1817824,-1258,-1677,-600,7226,-3670,-1590,1745190600322108600
1818016,-1217,-1623,-659,7004,-2330,-927,1745190600322108600
1818208,-1120,-1621,-550,7323,-1434,-149,1745190600322108600
1818400,-956,-1605,-222,7065,-1818,298,1745190600322108600
1818592,-818,-1542,-179,6448,-1325,480,1745190600322108600
1818784,-810,-1459,-291,6676,-1088,606,1745190600322108600
1818976,-854,-1419,-312,6809,-469,677,1745190600322108600
1819168,-871,-1338,-212,6851,-479,981,1745190600322108600
1819360,-855,-1255,-93,7029,-227,1058,1745190600322108600
1819552,-855,-1163,33,7237,-443,1125,1745190600322108600
1819744,-885,-1108,98,7292,218,1065,1745190600322108600
1819936,-890,-1060,83,7311,1686,1278,1745190600322108600
1820128,-834,-1011,72,7428,2761,1640,1745190600383959494
1820320,-704,-946,47,7484,2943,1818,1745190600383959494
1820512,-534,-855,12,7387,2913,1852,1745190600383959494
1820704,-408,-777,-10,7293,2845,1863,1745190600383959494
1820896,-389,-708,-65,7332,3020,1856,1745190600383959494
1821088,-450,-659,-121,7374,3288,1997,1745190600383959494
1821280,-496,-613,-131,7421,3711,2103,1745190600383959494
1821472,-482,-581,-102,7326,4225,2279,1745190600383959494
1821664,-402,-536,-30,7177,4480,2475,1745190600383959494
1821856,-279,-477,36,7125,4715,2463,1745190600383959494
1822048,-164,-400,63,7065,5140,2404,1745190600383959494
1822240,-92,-301,55,7188,5522,2347,1745190600383959494
1822432,-48,-210,27,7402,5636,2264,1745190600433370240
1822624,-10,-129,2,7608,5434,2112,1745190600433370240
1822816,32,-82,-24,7779,5216,1981,1745190600433370240
1823008,65,-40,-44,7793,5310,1912,1745190600433370240
1823200,74,0,-64,7731,5718,1876,1745190600433370240
1823392,66,51,-95,7793,6189,1965,1745190600433370240
1823584,65,96,-141,7798,6511,1982,1745190600433370240
1823776,92,132,-179,7747,6645,1982,1745190600433370240
1823968,146,162,-201,7598,6743,2032,1745190600433370240
1824160,194,196,-218,7429,6884,2114,1745190600433370240
1824352,207,241,-239,7265,7011,2118,1745190600433370240
1824544,183,294,-257,7232,7085,2116,1745190600433370240
1824736,153,342,-271,7318,7043,2195,1745190600498145065
1824928,141,373,-269,7380,6803,2210,1745190600498145065
1825120,151,393,-256,7399,6360,2073,1745190600498145065
1825312,159,410,-243,7385,5841,1865,1745190600498145065
1825504,144,422,-241,7323,5371,1578,1745190600498145065
1825696,107,423,-247,7221,4929,1272,1745190600498145065
1825888,58,409,-249,7062,4501,994,1745190600498145065
1826080,8,387,-242,6825,4532,804,1745190600498145065
1826272,-53,366,-239,6611,5298,719,1745190600498145065
1826464,-137,357,-266,6517,6096,824,1745190600498145065
1826656,-211,357,-305,6469,6466,1006,1745190600498145065
1826848,-237,355,-310,6481,6507,1142,1745190600498145065
1827040,-220,353,-286,6420,6528,1164,1745190600551188174
1827232,-205,361,-260,6425,6514,1117,1745190600551188174
1827424,-212,369,-251,6504,6237,1052,1745190600551188174
1827616,-219,366,-269,6558,5664,907,1745190600551188174
1827808,-219,356,-306,6504,4983,763,1745190600551188174
1828000,-222,339,-343,6332,4259,623,1745190600551188174
1828192,-234,332,-367,6085,3941,622,1745190600551188174
1828384,-237,329,-293,5879,4470,749,1745190600551188174
1828576,-196,334,-45,5955,5455,871,1745190600551188174
1828768,-95,345,289,6302,6285,1045,1745190600551188174
1828960,26,342,489,6730,6700,1043,1745190600551188174
1829152,102,333,468,7095,6626,855,1745190600551188174
1829344,121,318,349,7259,6203,588,1745190600615044622
1829536,112,298,263,7279,5440,353,1745190600615044622
1829728,100,276,235,7160,4834,195,1745190600615044622
1829920,94,242,265,7023,4608,106,1745190600615044622
1830112,83,212,292,6944,4358,87,1745190600615044622
1830304,61,196,232,6929,4126,115,1745190600615044622
1830496,55,191,153,6760,4253,219,1745190600615044622
1830688,75,189,155,6552,4302,266,1745190600615044622
1830880,102,191,193,6482,4229,214,1745190600615044622
1831072,108,192,223,6404,4199,171,1745190600615044622
1831264,90,187,259,6365,4202,214,1745190600615044622
1831456,47,177,275,6386,4270,199,1745190600615044622
1831648,-6,168,280,6410,4460,249,1745190600672340297
1831840,-48,149,285,6538,4550,224,1745190600672340297
1832032,-68,124,289,6611,4528,225,1745190600672340297
1832224,-58,93,309,6647,4422,288,1745190600672340297
1832416,-32,64,326,6560,4422,440,1745190600672340297
1832608,-12,48,318,6423,4427,503,1745190600672340297
1832800,-2,44,291,6258,4360,483,1745190600672340297
1832992,2,46,271,6090,4153,473,1745190600672340297
1833184,2,53,277,5908,4039,449,1745190600672340297
1833376,-7,70,315,5791,4134,498,1745190600672340297
1833568,-34,91,360,5837,4447,462,1745190600672340297
1833760,-63,114,411,5961,4893,466,1745190600672340297
1833952,-72,118,488,6183,5361,576,1745190600725594758
1834144,-55,104,561,6459,5892,706,1745190600725594758
1834336,-30,83,605,6656,6331,813,1745190600725594758
1834528,12,57,621,6778,6481,897,1745190600725594758
1834720,77,29,607,6729,6297,970,1745190600725594758
1834912,149,8,585,6504,5922,1037,1745190600725594758
1835104,207,-2,572,6206,5519,1072,1745190600725594758
1835296,230,2,562,5943,5204,1160,1745190600725594758
1835488,219,15,553,5790,4999,1255,1745190600725594758
1835680,196,27,545,5743,4928,1364,1745190600725594758
1835872,177,38,545,5730,5125,1558,1745190600725594758
1836064,150,53,546,5770,5551,1745,1745190600725594758
1836256,101,75,536,5875,5981,1870,1745190600795139488
1836448,45,98,509,6022,6299,1941,1745190600795139488
1836640,-9,111,471,6147,6470,2026,1745190600795139488
1836832,-46,117,435,6227,6794,2081,1745190600795139488
1837024,-63,128,400,6292,7361,2106,1745190600795139488
1837216,-57,149,355,6382,7788,2033,1745190600795139488
1837408,-28,176,299,6529,7702,1806,1745190600795139488
1837600,37,204,246,6625,7072,1568,1745190600795139488
1837792,128,225,215,6617,6230,1309,1745190600795139488
1837984,215,239,208,6563,5519,994,1745190600795139488
1838176,276,251,214,6461,5161,773,1745190600795139488
1838368,311,260,220,6450,5040,687,1745190600795139488
1838560,340,263,227,6465,4961,644,1745190600845552360
1838752,373,256,250,6469,4773,673,1745190600845552360
1838944,403,239,290,6436,4715,797,1745190600845552360
1839136,405,219,326,6353,5060,894,1745190600845552360
1839328,373,204,349,6319,5635,1067,1745190600845552360
1839520,327,193,369,6370,6099,1258,1745190600845552360
1839712,304,184,384,6438,6164,1288,1745190600845552360
1839904,325,182,397,6489,5855,1263,1745190600845552360
1840096,375,186,416,6576,5294,1215,1745190600845552360
1840288,407,195,445,6701,4618,1134,1745190600845552360
1840480,403,197,472,6886,3939,1124,1745190600845552360
1840672,368,175,489,7121,3367,1157,1745190600845552360
1840864,319,132,498,7262,3009,1145,1745190600901545703
1841056,265,93,508,7273,2959,1131,1745190600901545703
1841248,210,71,512,7191,3157,1204,1745190600901545703
1841440,157,65,506,7091,3451,1266,1745190600901545703
1841632,116,67,503,7018,3588,1234,1745190600901545703
1841824,93,73,514,7025,3538,1145,1745190600901545703
1842016,81,80,535,7051,3431,1035,1745190600901545703
1842208,68,82,559,7115,3332,880,1745190600901545703
1842400,54,80,575,7188,3380,762,1745190600901545703
1842592,39,77,576,7262,3519,601,1745190600901545703
1842784,34,76,565,7348,3490,379,1745190600901545703
1842976,54,73,560,7392,3244,155,1745190600901545703
1843168,101,65,582,7421,2745,-88,1745190600961570103
1843360,158,55,619,7456,2194,-332,1745190600961570103
1843552,205,41,672,7473,1636,-619,1745190600961570103
1843744,231,24,730,7551,1125,-990,1745190600961570103
1843936,240,3,783,7625,651,-1389,1745190600961570103
1844128,236,-22,835,7684,174,-1713,1745190600961570103
1844320,229,-54,894,7687,-111,-1909,1745190600961570103
1844512,221,-95,955,7659,103,-1987,1745190600961570103
1844704,199,-122,1001,7649,1123,-1848,1745190600961570103
1844896,161,-121,1008,7628,2262,-1571,1745190600961570103
1845088,139,-107,1013,7907,3041,-1342,1745190600961570103
1845280,160,-115,1042,8322,3145,-1234,1745190600961570103
1845472,227,-143,1111,8621,2664,-1168,1745190601019861445
1845664,312,-174,1198,8791,1868,-1317,1745190601019861445
1845856,370,-198,1269,8803,1021,-1560,1745190601019861445
1846048,359,-195,1359,8932,572,-2026,1745190601019861445
1846240,255,-232,1516,9218,-270,-1635,1745190601019861445
1846432,421,-434,1386,9031,-325,-2349,1745190601019861445
1846624,498,-432,1306,8321,-777,-2686,1745190601019861445
1846816,522,-400,1344,8241,-1251,-2767,1745190601019861445
1847008,564,-417,1420,8332,-816,-2651,1745190601019861445
1847200,615,-476,1461,8182,476,-2300,1745190601019861445
1847392,572,-475,1463,8150,1922,-2235,1745190601019861445
1847584,486,-449,1437,8430,2720,-2166,1745190601019861445
1847776,438,-457,1425,8829,2915,-2110,1745190601078066070
1847968,436,-492,1467,9071,2876,-2104,1745190601078066070
1848160,455,-532,1539,9152,2958,-2194,1745190601078066070
1848352,457,-549,1593,9201,3158,-2399,1745190601078066070
1848544,460,-552,1596,9333,3284,-2642,1745190601078066070
1848736,500,-555,1544,9384,3287,-2760,1745190601078066070
1848928,589,-585,1500,9402,3132,-2791,1745190601078066070
1849120,716,-631,1481,9356,2752,-2802,1745190601078066070
1849312,833,-652,1490,9257,2200,-2964,1745190601078066070
1849504,910,-656,1506,9253,1644,-3103,1745190601078066070
1849696,965,-670,1509,9254,1229,-3286,1745190601078066070
1849888,1005,-699,1492,9248,938,-3555,1745190601078066070
1850080,1036,-722,1474,9136,823,-3816,1745190601136699076
1850272,1070,-744,1450,9044,795,-4154,1745190601136699076
1850464,1104,-759,1457,9076,628,-4500,1745190601136699076
1850656,1149,-780,1493,9135,331,-4894,1745190601136699076
1850848,1189,-817,1563,9224,-50,-5289,1745190601136699076
1851040,1226,-862,1625,9213,-369,-5770,1745190601136699076
1851232,1245,-917,1677,9124,-485,-6274,1745190601136699076
1851424,1239,-961,1722,9035,-401,-6708,1745190601136699076
1851616,1205,-1006,1774,8997,-285,-7011,1745190601136699076
1851808,1151,-1060,1847,9052,-90,-7183,1745190601136699076
1852000,1079,-1116,1925,9103,140,-7357,1745190601136699076
1852192,946,-1169,2002,9365,286,-7226,1745190601136699076
1852384,821,-1258,2077,9553,740,-7067,1745190601204707517
1852576,704,-1365,2190,9713,1128,-6808,1745190601204707517
1852768,562,-1464,2300,9790,1333,-6524,1745190601204707517
1852960,410,-1553,2364,9815,1270,-6296,1745190601204707517
1853152,248,-1633,2396,9920,1015,-6028,1745190601204707517
1853344,64,-1721,2419,10074,692,-5916,1745190601204707517
1853536,-145,-1822,2434,10155,301,-5943,1745190601204707517
1853728,-358,-1934,2456,10264,-8,-5961,1745190601204707517
1853920,-575,-2054,2482,10434,-400,-5963,1745190601204707517
1854112,-799,-2180,2503,10549,-744,-5859,1745190601204707517
1854304,-1019,-2302,2519,10661,-1003,-5646,1745190601204707517
1854496,-1221,-2427,2529,10752,-1116,-5397,1745190601204707517
1854688,-1394,-2543,2524,10847,-1001,-5204,1745190601251721827
1854880,-1545,-2664,2485,10932,-715,-5185,1745190601251721827
1855072,-1686,-2781,2413,11082,-315,-5461,1745190601251721827
1855264,-1819,-2878,2329,11282,250,-5831,1745190601251721827
1855456,-1946,-2964,2235,11603,905,-6196,1745190601251721827
1855648,-2066,-3059,2127,11966,1596,-6500,1745190601251721827
1855840,-2186,-3168,2018,12380,2183,-6652,1745190601251721827
1856032,-2296,-3298,1917,12741,2658,-6669,1745190601251721827
1856224,-2402,-3450,1820,13001,3030,-6591,1745190601251721827
1856416,-2518,-3617,1717,13185,3174,-6423,1745190601251721827
1856608,-2660,-3800,1591,13281,3174,-6106,1745190601251721827
1856800,-2823,-3984,1449,13271,3223,-5656,1745190601251721827
1856992,-2993,-4157,1310,13140,3420,-5093,1745190601312394450
1857184,-3154,-4319,1176,12941,3663,-4372,1745190601312394450
1857376,-3309,-4475,1037,12675,3913,-3984,1745190601312394450
1857568,-3457,-4622,891,12288,4139,-3473,1745190601312394450
1857760,-3595,-4758,740,11835,4258,-2845,1745190601312394450
1857952,-3701,-4896,597,11378,4343,-2274,1745190601312394450
1858144,-3776,-5024,457,10871,4427,-1787,1745190601312394450
1858336,-3840,-5119,315,10440,4662,-1532,1745190601312394450
1858528,-3898,-5185,144,9844,4963,-1427,1745190601312394450
1858720,-3949,-5216,-49,9272,5237,-1332,1745190601312394450
1858912,-3992,-5230,-244,8831,5363,-1171,1745190601312394450
1859104,-4034,-5227,-428,8373,5664,-1096,1745190601312394450
1859296,-4085,-5193,-602,7855,6153,-1345,1745190601369499709
1859488,-4079,-5120,-767,7306,7109,-1871,1745190601369499709
1859680,-3902,-4991,-910,6767,8562,-1707,1745190601369499709
1859872,-3518,-4844,-1038,6429,10259,-1687,1745190601369499709
1860064,-2955,-4781,-1150,6466,11527,-1627,1745190601369499709
1860256,-2333,-4775,-1241,6588,11887,-1509,1745190601369499709
1860448,-1693,-4738,-1317,6485,11824,-1629,1745190601369499709
1860640,-1006,-4652,-1363,6238,11710,-1280,1745190601369499709
1860832,-289,-4519,-1366,6015,11639,-701,1745190601369499709
1861024,423,-4396,-1329,5678,11284,-329,1745190601369499709
1861216,1057,-4245,-1283,5137,10281,-738,1745190601369499709
1861408,1534,-4047,-1242,4429,8478,-1229,1745190601369499709
1861600,1830,-3826,-1188,3743,6193,-1905,1745190601429561713
1861792,1995,-3643,-1095,3346,3838,-3039,1745190601429561713
1861984,2055,-3484,-982,3095,1851,-4454,1745190601429561713
1862176,2015,-3392,-849,3116,75,-5649,1745190601429561713
1862368,1909,-3298,-733,3383,-1368,-6574,1745190601429561713
1862560,1728,-3226,-677,3596,-2195,-7038,1745190601429561713
1862752,1490,-3152,-702,3958,-2460,-7351,1745190601429561713
1862944,1213,-3037,-774,4319,-2112,-7317,1745190601429561713
1863136,933,-2912,-874,4536,-1439,-6932,1745190601429561713
1863328,712,-2795,-983,4449,-395,-6527,1745190601429561713
1863520,579,-2675,-1087,4126,909,-6238,1745190601429561713
1863712,548,-2542,-1175,3730,2149,-5881,1745190601429561713
1863904,455,-2397,-1237,3252,4485,-9269,1745190601487351758
1864096,-156,-2297,-1305,3508,2402,-900,1745190601487351758
1864288,827,-2044,-1402,3300,3613,-3638,1745190601487351758
1864480,880,-1937,-1373,3061,3674,-3857,1745190601487351758
1864672,908,-1787,-1352,3006,3274,-3750,1745190601487351758
1864864,899,-1651,-1324,3133,2759,-3784,1745190601487351758
1865056,851,-1524,-1294,3341,2232,-4157,1745190601487351758
1865248,761,-1393,-1259,3608,1776,-4533,1745190601487351758
1865440,643,-1264,-1229,3846,1416,-4777,1745190601487351758
1865632,541,-1136,-1200,4011,1278,-5383,1745190601487351758
1865824,472,-1009,-1159,4050,1362,-6172,1745190601487351758
1866016,437,-858,-1136,4251,1584,-7011,1745190601487351758
1866208,452,-715,-1114,4426,1993,-7754,1745190601547802247
1866400,511,-584,-1086,4567,2349,-8251,1745190601547802247
1866592,631,-473,-1051,4764,2561,-8548,1745190601547802247
1866784,819,-389,-1011,4836,2755,-9104,1745190601547802247
1866976,1005,-303,-971,4830,2675,-9894,1745190601547802247
1867168,1194,-222,-947,4827,2418,-10540,1745190601547802247
1867360,1371,-144,-950,4757,2143,-11077,1745190601547802247
1867552,1494,-91,-948,4984,1800,-10767,1745190601547802247
1867744,1644,-54,-936,5054,1591,-10301,1745190601547802247
1867936,1687,30,-942,4753,1637,-9517,1745190601547802247
1868128,1619,60,-875,4598,1444,-8385,1745190601547802247
1868320,1514,67,-697,4373,858,-6448,1745190601547802247
1868512,1443,96,-462,3918,202,-5032,1745190601614112215
1868704,1437,166,-242,3343,-349,-3666,1745190601614112215
1868896,1455,251,-135,2868,-421,-2630,1745190601614112215
1869088,1423,351,-240,2505,-101,-2290,1745190601614112215
1869280,1227,414,-450,2159,-61,-2182,1745190601614112215
1869472,951,456,-580,1978,-658,-1966,1745190601614112215
1869664,855,424,-503,1675,-1257,-1724,1745190601614112215
1869856,866,417,-249,1457,-1600,-1879,1745190601614112215
1870048,825,419,-35,1599,-2101,-1697,1745190601614112215
1870240,712,427,-16,1902,-2522,-1484,1745190601614112215
1870432,554,466,-128,2288,-2909,-1318,1745190601614112215
1870624,343,513,-256,2492,-2991,-1189,1745190601614112215
1870816,133,562,-314,2818,-2934,-1145,1745190601661091317
1871008,-56,589,-323,3073,-2979,-1186,1745190601661091317
1871200,-196,613,-293,3197,-2975,-1576,1745190601661091317
1871392,-291,641,-248,3312,-2820,-2364,1745190601661091317
1871584,-369,668,-239,3496,-2259,-3059,1745190601661091317
1871776,-424,675,-269,3568,-1535,-3651,1745190601661091317
1871968,-459,673,-308,3531,-883,-4128,1745190601661091317
1872160,-432,682,-296,3494,-362,-4700,1745190601661091317
1872352,-349,694,-247,3499,65,-5394,1745190601661091317
1872544,-237,698,-200,3590,430,-6086,1745190601661091317
1872736,-142,679,-210,3501,584,-6670,1745190601661091317
1872928,-61,657,-236,3368,542,-7061,1745190601661091317
1873120,21,658,-236,3201,458,-7289,1745190601732416342
1873312,91,663,-201,3052,555,-7394,1745190601732416342
1873504,134,675,-147,3027,820,-7389,1745190601732416342
1873696,175,686,-114,3014,1074,-7477,1745190601732416342
1873888,180,691,-106,2955,1225,-7692,1745190601732416342
1874080,161,697,-113,2897,1413,-7503,1745190601732416342
1874272,128,704,-121,2781,1521,-7333,1745190601732416342
1874464,132,702,-110,2769,1682,-7348,1745190601732416342
1874656,148,712,-78,2708,1488,-7034,1745190601732416342
1874848,199,731,-40,2640,998,-6992,1745190601732416342
1875040,292,760,-28,2787,1036,-6986,1745190601732416342
1875232,395,781,-71,3203,1680,-7587,1745190601732416342
1875424,500,793,-155,3714,2164,-8484,1745190601777642856
1875616,553,798,-230,4184,1673,-8944,1745190601777642856
1875808,550,761,-254,4503,531,-9161,1745190601777642856
1876000,529,674,-191,4633,-380,-9602,1745190601777642856
1876192,494,578,-86,4686,-871,-10139,1745190601777642856
1876384,398,473,-46,4575,-1612,-11659,1745190601777642856
1876576,197,387,-61,4136,-2578,-11373,1745190601777642856
1876768,-75,328,-83,3637,-2813,-11057,1745190601777642856
1876960,-316,273,-75,3404,-2386,-10385,1745190601777642856
1877152,-464,213,-42,3310,-1415,-9676,1745190601777642856
1877344,-543,162,-12,3276,-212,-9286,1745190601777642856
1877536,-531,140,-4,3186,730,-8833,1745190601777642856
1877728,-458,154,8,3022,912,-8247,1745190601840605198
1877920,-443,187,43,2969,-12,-7985,1745190601840605198
1878112,-475,199,96,3098,-2003,-8748,1745190601840605198
1878304,-522,170,160,3140,-4142,-9609,1745190601840605198
1878496,-626,107,227,2968,-5405,-10264,1745190601840605198
1878688,-775,49,241,2639,-5459,-10276,1745190601840605198
1878880,-940,19,197,2294,-4559,-10022,1745190601840605198
1879072,-1051,18,146,2101,-3295,-9681,1745190601840605198
1879264,-1064,24,124,2078,-2200,-9651,1745190601840605198
1879456,-1000,34,156,2246,-1605,-9784,1745190601840605198
1879648,-906,45,222,2420,-1470,-9910,1745190601840605198
1879840,-832,49,273,2567,-1491,-9916,1745190601840605198
1880032,-793,47,292,2579,-1322,-9893,1745190601900485796
1880224,-790,44,287,2522,-902,-9797,1745190601900485796
1880416,-820,38,272,2457,-284,-9551,1745190601900485796
1880608,-867,34,256,2353,401,-9238,1745190601900485796
1880800,-918,34,239,2270,951,-9153,1745190601900485796
1880992,-931,42,211,2100,1298,-9100,1745190601900485796
1881184,-879,51,186,1838,1616,-9013,1745190601900485796
1881376,-772,65,184,1573,1891,-8792,1745190601900485796
1881568,-641,85,201,1409,2010,-8562,1745190601900485796
1881760,-507,114,216,1357,1995,-8515,1745190601900485796
1881952,-387,147,214,1430,1973,-8433,1745190601900485796
1882144,-276,180,203,1514,2053,-8040,1745190601900485796
1882336,-187,212,196,1673,1977,-8099,1745190602024224874
1882528,-124,240,199,1790,1649,-8256,1745190602024224874
1882720,-92,247,217,1784,1162,-8344,1745190602024224874
1882912,-96,245,228,1744,776,-8350,1745190602024224874
1883104,-136,245,217,1708,680,-8247,1745190602024224874
1883296,-192,244,192,1632,771,-8154,1745190602024224874
1883488,-229,243,178,1538,810,-8158,1745190602024224874
1883680,-236,243,177,1498,838,-8176,1745190602024224874
1883872,-238,247,188,1500,802,-8273,1745190602024224874
1884064,-250,246,195,1537,722,-8405,1745190602024224874
1884256,-264,240,196,1579,713,-8522,1745190602024224874
1884448,-283,227,184,1643,823,-8590,1745190602024224874
1884640,-301,215,164,1691,1100,-8538,1745190602032272457
1884832,-311,198,150,1726,1449,-8614,1745190602032272457
1885024,-291,179,147,1719,1767,-8739,1745190602032272457
1885216,-250,161,141,1619,1919,-8722,1745190602032272457
1885408,-240,171,113,1644,1563,-8586,1745190602032272457
1885600,-286,228,43,1798,642,-7949,1745190602032272457
1885792,-236,256,9,1846,-442,-7281,1745190602032272457
1885984,-90,216,52,1716,-982,-7179,1745190602032272457
1886176,48,142,160,895,-493,-7416,1745190602032272457
1886368,50,108,318,58,387,-7745,1745190602032272457
1886560,-87,159,401,311,771,-7684,1745190602032272457
1886752,-156,242,311,1547,825,-7330,1745190602032272457
1886944,-105,286,140,2564,804,-7030,1745190602072320216
1887136,-16,270,49,2858,681,-6956,1745190602072320216
1887328,28,228,100,2705,491,-6978,1745190602072320216
1887520,4,195,193,2474,320,-7053,1745190602072320216
1887712,-63,176,220,2261,411,-7256,1745190602072320216
1887904,-137,162,174,2041,880,-7297,1745190602072320216
1888096,-152,116,127,1222,2983,-5166,1745190602072320216
1888288,555,30,170,1943,2813,-8715,1745190602072320216
1888480,242,195,98,2962,1873,-8067,1745190602072320216
1888672,73,265,105,2368,1712,-7952,1745190602072320216
1888864,98,195,71,2360,1850,-8297,1745190602072320216
1889056,101,159,38,2210,1810,-8280,1745190602072320216
1889248,82,113,33,2073,1304,-8276,1745190602134853239
1889440,51,92,29,2208,740,-8402,1745190602134853239
1889632,22,122,24,2307,555,-8394,1745190602134853239
1889824,-1,129,30,2354,893,-8299,1745190602134853239
1890016,-7,117,57,2095,884,-8178,1745190602134853239
1890208,-26,121,53,1880,588,-8011,1745190602134853239
1890400,-40,121,34,1903,396,-7686,1745190602134853239
1890592,-54,64,41,2801,164,-7449,1745190602134853239
1890784,-93,-25,75,3453,133,-7338,1745190602134853239
1890976,-142,-107,126,3930,162,-7224,1745190602134853239
1891168,-176,-172,164,3328,338,-7184,1745190602134853239
1891360,-182,-161,161,1969,529,-7173,1745190602134853239
1891552,-177,-124,121,1086,753,-7293,1745190602186382872
1891744,-163,-80,80,701,922,-7427,1745190602186382872
1891936,-132,-35,58,719,1009,-7526,1745190602186382872
1892128,-80,11,55,1121,1047,-7643,1745190602186382872
1892320,-26,42,59,1710,920,-7840,1745190602186382872
1892512,11,53,59,2214,686,-7999,1745190602186382872
1892704,31,43,54,2478,422,-7868,1745190602186382872
1892896,42,28,55,2575,286,-7907,1745190602186382872
1893088,47,19,66,2563,270,-7761,1745190602186382872
1893280,53,16,73,2527,487,-7235,1745190602186382872
1893472,111,-48,79,2844,2287,-5389,1745190602186382872
1893664,207,-185,78,1403,188,-6178,1745190602186382872
1894432,-379,-26,-80,1935,1623,-6031,1745190603411458504
1939552,-301,-225,-97,3555,942,-7891,1745190603411458504
1939744,-474,-202,-102,2307,184,-8031,1745190603411458504
1939936,-335,-222,-144,2460,710,-7625,1745190603411458504
1940128,-383,-175,-123,2353,867,-7625,1745190603411458504
1940320,-387,-193,-107,2453,805,-7558,1745190603411458504
1940512,-405,-216,-110,2592,725,-7558,1745190603411458504
1940704,-449,-196,-120,2736,723,-7457,1745190603411458504
1940896,-465,-231,-124,2525,648,-7770,1745190603411458504
1941088,-473,-222,-114,2200,824,-7820,1745190603411458504
1941280,-445,-193,-107,2075,1104,-7826,1745190603411458504
1941472,-399,-200,-109,2169,1178,-7864,1745190603411458504
1941664,-385,-185,-122,2098,1102,-7964,1745190603461363829
1941856,-362,-146,-131,1446,1042,-7955,1745190603461363829
1942048,-341,-71,-137,690,884,-7905,1745190603461363829
1942240,-345,31,-166,449,648,-7870,1745190603461363829
1942432,-362,105,-216,697,480,-7841,1745190603461363829
1942624,-399,169,-271,1136,547,-7719,1745190603461363829
1942816,-437,245,-300,1457,622,-7619,1745190603461363829
1943008,-444,313,-287,1796,976,-7633,1745190603461363829
1943200,-418,388,-244,2077,1254,-7755,1745190603461363829
1943392,-396,466,-194,2456,1481,-7712,1745190603461363829
1943584,-403,514,-142,3265,1404,-7652,1745190603461363829
1943776,-445,497,-85,4334,1319,-7819,1745190603461363829
1943968,-470,431,-36,5161,2175,-7889,1745190603521229637
1944160,-514,334,-18,5399,3918,-9731,1745190603521229637
1944352,-1278,176,-23,4367,4560,-6516,1745190603521229637
1944544,-597,165,-110,6540,2219,-9112,1745190603521229637
1944736,-231,47,-244,5060,2188,-8840,1745190603521229637
1944928,58,-77,-262,4883,1341,-8760,1745190603521229637
1945120,419,-261,-171,5115,1836,-8757,1745190603521229637
1945312,1025,-380,109,4950,2526,-7911,1745190603521229637
1945504,1542,-439,412,4103,1020,-8522,1745190603521229637
1945696,1968,-433,601,3495,-749,-8482,1745190603521229637
1945888,2126,-469,685,2582,-3027,-8590,1745190603521229637
1946080,1833,-435,609,846,-5276,-8378,1745190603521229637
1946272,1217,-376,435,-374,-6023,-7589,1745190603580016756
1946464,453,-272,266,-937,-5191,-7048,1745190603580016756
1946656,-270,-161,160,-874,-2889,-6753,1745190603580016756
1946848,-804,-63,132,-106,385,-6981,1745190603580016756
1947040,-1106,-8,127,1193,3862,-7297,1745190603580016756
1947232,-1138,-7,84,2271,6697,-7395,1745190603580016756
1947424,-963,-25,33,3113,8299,-7391,1745190603580016756
1947616,-692,-46,5,3377,8686,-7376,1745190603580016756
1947808,-397,-62,-14,3137,7573,-7272,1745190603580016756
1948000,-144,-70,-7,2635,5702,-7189,1745190603580016756
1948192,20,-68,4,2199,3763,-7177,1745190603580016756
1948384,94,-58,6,1987,2133,-7103,1745190603580016756
1948576,106,-43,5,2064,906,-7008,1745190603638336275
1948768,99,-17,15,2336,50,-6888,1745190603638336275
1948960,85,8,37,2777,-469,-6984,1745190603638336275
1949152,68,22,60,3320,-795,-7275,1745190603638336275
1949344,58,15,66,3818,-1062,-7706,1745190603638336275
1949536,58,-7,42,3966,-1202,-8029,1745190603638336275
1949728,67,-39,7,3848,-1553,-7997,1745190603638336275
1949920,71,-56,-6,3552,-1752,-7838,1745190603638336275
1950112,66,-64,4,3245,-1787,-7738,1745190603638336275
1950304,65,-65,27,2988,-1642,-7719,1745190603638336275
1950496,79,-70,51,2713,-1165,-7482,1745190603638336275
1950688,88,-66,70,2429,-585,-6812,1745190603638336275
1950880,94,-43,88,2316,-196,-6621,1745190603696687565
1951072,150,-14,110,2353,132,-6618,1745190603696687565
1951264,232,18,117,2336,645,-6544,1745190603696687565
1951456,284,52,104,2313,1095,-6602,1745190603696687565
1951648,331,93,79,2275,1378,-6658,1745190603696687565
1951840,385,127,58,2239,1479,-6841,1745190603696687565
1952032,443,153,58,2251,1386,-7232,1745190603696687565
1952224,483,162,75,2281,1089,-7449,1745190603696687565
1952416,495,173,100,2222,567,-7628,1745190603696687565
1952608,498,179,138,2198,8,-8132,1745190603696687565
1952800,477,172,164,2220,-442,-8743,1745190603696687565
1952992,447,153,169,2176,-790,-8900,1745190603696687565
1953184,433,131,168,2128,-952,-9160,1745190603764755537
1953376,415,111,171,2027,-1004,-9170,1745190603764755537
1953568,382,89,179,1930,-1088,-9075,1745190603764755537
1953760,351,77,205,1882,-1116,-8156,1745190603764755537
1953952,237,105,227,2005,-1409,-7061,1745190603764755537
1954144,77,108,267,2649,-2057,-7864,1745190603764755537
1954336,28,79,288,3171,-1643,-8361,1745190603764755537
1954528,-32,19,258,3444,-588,-8609,1745190603764755537
1954720,-109,-30,195,3591,323,-8559,1745190603764755537
1954912,-179,-53,144,3730,680,-8329,1745190603764755537
1955104,-172,-73,136,3949,495,-8173,1745190603764755537
1955296,-140,-85,171,4139,-30,-8103,1745190603764755537
1955488,-174,-95,222,4314,-820,-7907,1745190603812104115
1955680,-279,-112,274,4506,-1812,-7898,1745190603812104115
1955872,-407,-156,315,4682,-2458,-7813,1745190603812104115
1956064,-558,-204,327,4770,-2405,-7714,1745190603812104115
1956256,-736,-251,319,4848,-2117,-7764,1745190603812104115
1956448,-893,-284,313,4925,-1774,-7559,1745190603812104115
1956640,-1014,-309,306,4946,-1250,-7402,1745190603812104115
1956832,-1104,-324,305,5027,-862,-7333,1745190603812104115
1957024,-1187,-326,319,5109,-939,-7136,1745190603812104115
1957216,-1243,-332,360,5263,-1148,-6922,1745190603812104115
1957408,-1254,-346,398,5405,-956,-6673,1745190603812104115
1957600,-1241,-358,394,5447,-315,-6492,1745190603812104115
1957792,-1215,-364,362,5431,399,-6266,1745190603872318044
1957984,-1178,-358,346,5383,771,-6150,1745190603872318044
1958176,-1098,-348,370,5335,756,-6073,1745190603872318044
1958368,-987,-328,425,5200,454,-5622,1745190603872318044
1958560,-873,-293,501,4989,-299,-5431,1745190603872318044
1958752,-782,-238,602,4719,-1387,-5125,1745190603872318044
1958944,-738,-176,699,4472,-2363,-4848,1745190603872318044
1959136,-770,-116,762,4318,-2996,-4687,1745190603872318044
1959328,-879,-61,788,4300,-3242,-4558,1745190603872318044
1959520,-1038,-16,804,4362,-3182,-4597,1745190603872318044
1959712,-1206,25,832,4506,-2832,-4717,1745190603872318044
1959904,-1345,60,870,4724,-2279,-4834,1745190603872318044
1960096,-1433,84,908,4962,-1597,-101,1745190603928735966
1960288,-1462,101,935,5158,-905,-5108,1745190603928735966
1960480,-1439,114,954,5267,-283,-5247,1745190603928735966
1960672,-1365,130,971,5307,171,-5379,1745190603928735966
1960864,-1247,148,994,5285,427,-5466,1745190603928735966
1961056,-1102,165,1019,5203,547,-5614,1745190603928735966
1961248,-946,185,1044,5024,569,-5751,1745190603928735966
1961440,-795,208,1066,4834,541,-5849,1745190603928735966
1961632,-664,235,1080,4646,472,-5897,1745190603928735966
1961824,-556,267,1090,4432,422,-5919,1745190603928735966
1962016,-472,308,1101,4245,347,-5903,1745190603928735966
1962208,-409,358,1119,4095,339,-5851,1745190603928735966
1962400,-359,408,1141,3955,355,-5792,1745190603989628952
1962592,-324,458,1163,3855,380,-5755,1745190603989628952
1962784,-299,498,1178,3722,413,-5614,1745190603989628952
1962976,-270,546,1197,3655,444,-5444,1745190603989628952
1963168,-250,608,1223,3620,481,-5271,1745190603989628952
1963360,-239,661,1248,3601,470,-5099,1745190603989628952
1963552,-232,707,1263,3566,507,-4963,1745190603989628952
1963744,-240,751,1274,3545,526,-4747,1745190603989628952
1963936,-256,798,1288,3512,534,-4491,1745190603989628952
1964128,-281,844,1302,3497,591,-4278,1745190603989628952
1964320,-318,883,1316,3499,703,-4063,1745190603989628952
1964512,-372,922,1329,3479,794,-3792,1745190603989628952
1964512,-372,922,1329,3479,794,-3792,1745190604047157905
1964896,-510,1005,1348,3364,958,-3378,1745190604047157905
1965088,-573,1053,1352,3299,1078,-3227,1745190604047157905
1965280,-635,1102,1355,3193,1232,-3081,1745190604047157905
1965472,-703,1156,1365,3134,1417,-2948,1745190604047157905
1965664,-767,1218,1376,3143,1605,-2838,1745190604047157905
1965856,-819,1282,1385,3169,1730,-2756,1745190604047157905
1966048,-863,1352,1398,3257,1882,-2705,1745190604047157905
1966240,-908,1427,1416,3398,2025,-2709,1745190604047157905
1966432,-954,1503,1437,3631,2103,-2675,1745190604047157905
1966624,-985,1574,1452,3910,2232,-2586,1745190604047157905
1966816,-1012,1640,1462,4227,2339,-2512,1745190604047157905
1967008,-1034,1700,1465,4546,2518,-2489,1745190604105929243
1967200,-1048,1763,1460,4901,2729,-2502,1745190604105929243
1967392,-1058,1825,1444,5270,3003,-2552,1745190604105929243
1967584,-1056,1888,1426,5682,3224,-2525,1745190604105929243
1967776,-1046,1954,1414,6059,3391,-2323,1745190604105929243
1967968,-1030,2029,1413,6455,3527,-2158,1745190604105929243
1968160,-996,2104,1410,6845,3697,-2037,1745190604105929243
1968352,-954,2177,1406,7207,3884,-1982,1745190604105929243
1968544,-915,2237,1398,7597,4037,-1942,1745190604105929243
1968736,-872,2293,1393,7890,4169,-1814,1745190604105929243
1968928,-845,2351,1392,8221,4133,-1483,1745190604105929243
1969120,-803,2402,1380,8462,4172,-1185,1745190604105929243
1969312,-727,2461,1362,8641,4333,-1141,1745190604164170691
1969504,-655,2533,1351,8832,4545,-1089,1745190604164170691
1969696,-585,2617,1337,9071,4760,-1107,1745190604164170691
1969888,-510,2716,1329,9312,4900,-1002,1745190604164170691
1970080,-425,2835,1328,9607,4950,-680,1745190604164170691
1970272,-330,2971,1336,9955,4917,-308,1745190604164170691
1970464,-240,3119,1339,10404,4808,218,1745190604164170691
1970656,-179,3266,1325,10828,4619,1000,1745190604164170691
1970848,-153,3410,1294,11348,4539,1278,1745190604164170691
1971040,-144,3555,1258,11957,4636,1150,1745190604164170691
1971232,-143,3698,1241,12674,4815,943,1745190604164170691
1971424,-116,3819,1251,13498,5061,697,1745190604164170691
1971616,-40,3919,1286,14332,5356,345,1745190604281273006
1971808,99,3984,1325,15115,5623,-96,1745190604281273006
1972000,290,4014,1345,15708,5805,-574,1745190604281273006
1972192,518,4016,1337,16041,5853,-1173,1745190604281273006
1972384,770,4000,1300,16063,5764,-1640,1745190604281273006
1972576,1031,3984,1238,15822,5516,-2310,1745190604281273006
1972768,1287,3970,1153,15321,5192,-2781,1745190604281273006
1972960,1520,3978,1063,14688,4784,-3104,1745190604281273006
1973152,1725,3994,974,14019,4364,-3208,1745190604281273006
1973344,1897,4026,894,13412,3910,-3203,1745190604281273006
1973536,2024,4055,814,12956,3520,-3085,1745190604281273006
1973728,2107,4098,751,12638,3143,-2723,1745190604281273006
1973920,2163,4130,704,12443,2701,-2258,1745190604288697782
1974112,2198,4145,640,12359,2291,-1682,1745190604288697782
1974304,2207,4154,560,12308,2069,-1361,1745190604288697782
1974496,2199,4162,476,12294,2028,-1216,1745190604288697782
1974688,2171,4163,389,12361,2081,-1096,1745190604288697782
1974880,2129,4161,303,12441,2215,-908,1745190604288697782
1975072,2081,4146,225,12556,2409,-724,1745190604288697782
1975264,2023,4115,160,12737,2554,-469,1745190604288697782
1975456,1946,4065,103,12907,2732,-380,1745190604288697782
1975648,1863,4008,51,12994,3023,-287,1745190604288697782
1975840,1778,3942,7,13007,3236,143,1745190604288697782
1976032,1690,3851,-46,12998,3357,435,1745190604288697782
1976224,1602,3746,-112,12914,3412,493,1745190604344079880
1976416,1486,3668,-183,12725,3434,208,1745190604344079880
1976608,1353,3619,-258,12489,3458,-37,1745190604344079880
1976800,1203,3587,-328,12273,3503,-180,1745190604344079880
1976992,1056,3564,-379,12078,3654,-420,1745190604344079880
1977184,930,3551,-410,11900,3986,-849,1745190604344079880
1977376,839,3544,-421,11793,4388,-1294,1745190604344079880
1977568,796,3551,-414,11739,4668,-1747,1745190604344079880
1977760,814,3543,-397,11787,4863,-2312,1745190604344079880
1977952,877,3505,-378,11965,4861,-2887,1745190604344079880
1978144,953,3438,-371,12189,4696,-3542,1745190604344079880
1978336,1021,3353,-396,12416,4378,-4007,1745190604344079880
1978528,1069,3253,-447,12623,3998,-4000,1745190604403081789
1978720,1104,3131,-517,12771,3709,-3872,1745190604403081789
1978912,1150,2993,-600,12843,3743,-3686,1745190604403081789
1979104,1217,2845,-676,12785,4054,-2867,1745190604403081789
1979296,1307,2697,-742,12662,4627,-2076,1745190604403081789
1979488,1437,2562,-817,12512,5433,-1581,1745190604403081789
1979680,1590,2460,-920,12385,6266,-1356,1745190604403081789
1979872,1768,2393,-1051,12340,6904,-1263,1745190604403081789
1980064,1969,2340,-1181,12417,7278,-1300,1745190604403081789
1980256,2193,2285,-1293,12656,7305,-1553,1745190604403081789
1980448,2420,2209,-1380,13071,6835,-1801,1745190604403081789
1980640,2608,2082,-1457,13612,5876,-2285,1745190604403081789
1980832,2730,1907,-1535,14119,4651,-2865,1745190604456402552
1981024,2762,1685,-1628,14452,3271,-3212,1745190604456402552
1981216,2692,1446,-1746,14559,2080,-3579,1745190604456402552
1981408,2528,1216,-1874,14402,1093,-3818,1745190604456402552
1981600,2300,1001,-1998,14060,362,-3796,1745190604456402552
1981792,2053,801,-2112,13502,32,-3582,1745190604456402552
1981984,1802,619,-2218,12848,162,-3264,1745190604456402552
1982176,1565,449,-2326,12130,435,-2860,1745190604456402552
1982368,1335,295,-2425,11480,596,-2640,1745190604456402552
1982560,1109,153,-2504,10921,534,-2523,1745190604456402552
1982752,886,27,-2552,10436,411,-2325,1745190604456402552
1982944,664,-70,-2575,9925,534,-2075,1745190604456402552
1983136,441,-138,-2574,9529,773,-1913,1745190604519818067
1983328,230,-181,-2561,9237,962,-1942,1745190604519818067
1983520,59,-218,-2541,9059,939,-1946,1745190604519818067
1983712,-59,-264,-2512,8983,652,-1954,1745190604519818067
1983904,-137,-330,-2477,8918,125,-2075,1745190604519818067
1984096,-189,-406,-2441,8819,-522,-2271,1745190604519818067
1984288,-249,-488,-2408,8638,-1153,-2335,1745190604519818067
1984480,-321,-575,-2389,8310,-1487,-2283,1745190604519818067
1984672,-393,-653,-2400,7881,-1458,-1897,1745190604519818067
1984864,-469,-714,-2428,7376,-1252,-1611,1745190604519818067
1985056,-539,-768,-2455,6898,-1090,-1358,1745190604519818067
1985248,-560,-805,-2466,6403,-953,-1159,1745190604519818067
1985440,-525,-825,-2434,5889,-772,-1036,1745190604584475653
1985632,-472,-850,-2339,5535,-816,-650,1745190604584475653
1985824,-375,-877,-2260,5165,-796,-305,1745190604584475653
1986016,-264,-863,-2215,4756,-696,-229,1745190604584475653
1986208,-167,-829,-2188,4395,-624,-91,1745190604584475653
1986400,-79,-792,-2130,4105,-688,76,1745190604584475653
1986592,11,-772,-2008,3981,-909,208,1745190604584475653
1986784,84,-763,-1853,3926,-1012,548,1745190604584475653
1986976,86,-738,-1709,3944,-884,793,1745190604584475653
1987168,25,-686,-1592,4172,-596,1029,1745190604584475653
1987360,13,-681,-1544,4341,-264,1162,1745190604584475653
1987552,26,-674,-1506,4507,-373,1225,1745190604584475653
1987744,69,-657,-1462,4664,-689,1021,1745190604634611549
1987936,137,-645,-1362,4863,-1215,687,1745190604634611549
1988128,183,-648,-1228,5037,-1859,344,1745190604634611549
1988320,186,-668,-1100,5165,-2362,196,1745190604634611549
1988512,147,-695,-991,5212,-2576,190,1745190604634611549
1988704,70,-731,-898,5180,-2519,221,1745190604634611549
1988896,-22,-760,-831,5111,-2221,463,1745190604634611549
1989088,-119,-773,-777,4996,-1538,831,1745190604634611549
1989280,-201,-754,-716,4968,-759,1088,1745190604634611549
1989472,-258,-715,-633,5096,-105,1294,1745190604634611549
1989664,-284,-675,-530,5324,405,1407,1745190604634611549
1989856,-291,-642,-423,5632,705,1510,1745190604634611549
1990048,-282,-618,-328,5934,1088,1598,1745190604695443077
1990240,-263,-591,-253,6212,1650,1671,1745190604695443077
1990432,-239,-544,-192,6508,2197,1795,1745190604695443077
1990624,-192,-491,-135,6858,2450,1891,1745190604695443077
1990816,-101,-443,-70,7269,2494,1939,1745190604695443077
1991008,12,-396,0,7698,2400,1857,1745190604695443077
1991200,116,-354,73,8139,2274,1577,1745190604695443077
1991392,184,-321,140,8568,2050,1261,1745190604695443077
1991584,211,-308,186,8933,2002,1070,1745190604695443077
1991776,199,-315,205,9205,2131,1005,1745190604695443077
1991968,158,-334,202,9363,2497,1125,1745190604695443077
1992160,102,-352,189,9396,3137,1254,1745190604695443077
1992352,42,-360,191,9383,3802,1317,1745190604753630983
1992544,-3,-356,225,9337,4279,1393,1745190604753630983
1992736,-31,-347,294,9346,4459,1411,1745190604753630983
1992928,-39,-340,371,9370,4423,1308,1745190604753630983
1993120,-43,-340,444,9394,4202,1148,1745190604753630983
1993312,-50,-342,503,9321,3930,987,1745190604753630983
1993504,-76,-345,540,9261,3736,930,1745190604753630983
1993696,-97,-347,551,9147,3770,910,1745190604753630983
1993888,-96,-332,565,8965,4126,1180,1745190604753630983
1994080,-73,-317,589,8851,4599,1432,1745190604753630983
1994272,-33,-297,604,8765,5010,1640,1745190604753630983
1994464,22,-280,616,8689,5068,1913,1745190604753630983
1994656,86,-270,622,8583,5018,2215,1745190604814982037
1994848,135,-252,616,8472,5031,2459,1745190604814982037
1995040,148,-217,602,8379,5089,2608,1745190604814982037
1995232,144,-172,585,8355,5061,2713,1745190604814982037
1995424,151,-129,572,8356,4935,2815,1745190604814982037
1995616,188,-100,562,8366,4711,2768,1745190604814982037
1995808,231,-75,547,8328,4476,2609,1745190604814982037
1996000,254,-47,520,8267,4259,2429,1745190604814982037
1996192,250,-22,483,8192,4078,2199,1745190604814982037
1996384,227,-4,450,8113,3938,1947,1745190604814982037
1996576,193,8,430,8027,3846,1747,1745190604814982037
1996768,140,9,415,7935,3826,1527,1745190604814982037
1996960,70,8,402,7788,3933,1379,1745190604868408528
1997152,-12,5,393,7635,4019,1374,1745190604868408528
1997344,-87,-1,387,7482,4204,1425,1745190604868408528
1997536,-149,-8,397,7282,4488,1570,1745190604868408528
1997728,-201,-12,414,7081,4778,1663,1745190604868408528
1997920,-247,-9,425,6881,5063,1671,1745190604868408528
1998112,-275,7,429,6695,5362,1633,1745190604868408528
1998304,-266,34,440,6559,5563,1835,1745190604868408528
1998496,-216,57,463,6474,5604,1981,1745190604868408528
1998688,-130,76,497,6423,5528,2075,1745190604868408528
1998880,-36,99,532,6406,5394,2095,1745190604868408528
1999072,42,124,557,6429,5203,2100,1745190604868408528
1999264,103,144,568,6444,4993,2015,1745190604928828758
1999456,153,159,574,6467,4697,1937,1745190604928828758
1999648,197,164,574,6488,4509,1851,1745190604928828758
1999840,229,167,571,6412,4447,1846,1745190604928828758
2000032,237,173,565,6379,4420,1838,1745190604928828758
2000224,227,183,557,6337,4395,1810,1745190604928828758
2000416,212,191,554,6314,4356,1789,1745190604928828758
2000608,196,196,554,6314,4309,1782,1745190604928828758
2000800,170,200,551,6348,4291,1799,1745190604928828758
2000992,134,204,545,6384,4332,1778,1745190604928828758
2001184,90,206,536,6424,4358,1774,1745190604928828758
2001376,44,208,523,6454,4371,1760,1745190604928828758
2001568,4,205,511,6496,4363,1762,1745190604994968674
2001760,-30,201,499,6493,4440,1768,1745190604994968674
2001952,-52,197,489,6482,4652,1768,1745190604994968674
2002144,-64,195,481,6496,4875,1811,1745190604994968674
2002336,-60,196,472,6519,5128,1896,1745190604994968674
2002528,-40,199,457,6557,5360,1956,1745190604994968674
2002720,-7,200,438,6645,5494,1950,1745190604994968674
2002912,40,201,417,6727,5572,1939,1745190604994968674
2003104,94,198,396,6817,5597,1926,1745190604994968674
2003296,152,190,375,6890,5545,2039,1745190604994968674
2003488,208,181,355,6968,5413,2132,1745190604994968674
2003680,258,169,336,7012,5275,2202,1745190604994968674
2003872,295,159,314,7050,5084,2217,1745190605046842627
2004064,312,148,286,7052,4972,2217,1745190605046842627
2004256,309,134,250,7022,4936,2239,1745190605046842627
2004448,288,116,209,6936,4989,2296,1745190605046842627
2004640,259,100,167,6832,5097,2266,1745190605046842627
2004832,224,88,130,6718,5183,2223,1745190605046842627
2005024,190,80,102,6643,5151,2216,1745190605046842627
2005216,154,72,82,6579,5089,2275,1745190605046842627
2005408,109,63,65,6539,5074,2344,1745190605046842627
2005600,53,58,42,6522,5122,2394,1745190605046842627
2005792,-4,53,13,6495,5250,2324,1745190605046842627
2005984,-46,53,-24,6481,5448,2342,1745190605046842627
2006176,-60,54,-62,6493,5647,2400,1745190605103986845
2006368,-41,52,-97,6494,5712,2530,1745190605103986845
2006560,-3,46,-129,6449,5657,2558,1745190605103986845
2006752,29,42,-154,6415,5498,2583,1745190605103986845
2006944,39,40,-175,6398,5215,2552,1745190605103986845
2007136,32,35,-192,6389,4968,2579,1745190605103986845
2007328,10,25,-211,6383,4863,2627,1745190605103986845
2007520,-23,11,-237,6358,4923,2677,1745190605103986845
2007712,-58,4,-275,6322,4999,2699,1745190605103986845
2007904,-84,2,-316,6263,5037,2735,1745190605103986845
2008096,-96,2,-355,6231,5070,2730,1745190605103986845
2008288,-106,8,-386,6219,5063,2680,1745190605103986845
2008480,-118,19,-413,6250,5019,2567,1745190605163336876
2008672,-131,30,-438,6309,4922,2395,1745190605163336876
2008864,-139,35,-464,6374,4776,2246,1745190605163336876
2009056,-143,37,-494,6439,4598,2095,1745190605163336876
2009248,-147,34,-523,6463,4386,1959,1745190605163336876
2009440,-150,26,-548,6469,4155,1882,1745190605163336876
2009632,-155,16,-564,6454,3995,1843,1745190605163336876
2009824,-165,8,-572,6428,3951,1799,1745190605163336876
2010016,-181,4,-576,6420,4087,1796,1745190605163336876
2010208,-190,2,-577,6423,4222,1954,1745190605163336876
2010400,-183,-3,-573,6429,4322,2124,1745190605163336876
2010592,-160,-6,-563,6451,4435,2254,1745190605163336876
2010784,-140,-6,-551,6519,4550,2287,1745190605221350200
2010976,-135,2,-541,6620,4518,2209,1745190605221350200
2011168,-141,10,-532,6785,4343,2081,1745190605221350200
2011360,-146,13,-521,6971,4138,1870,1745190605221350200
2011552,-158,12,-510,7165,4005,1697,1745190605221350200
2011744,-174,6,-503,7323,3925,1582,1745190605221350200
2011936,-187,-2,-500,7493,3899,1497,1745190605221350200
2012128,-188,-14,-497,7629,3924,1462,1745190605221350200
2012320,-183,-29,-494,7753,3981,1456,1745190605221350200
2012512,-178,-44,-490,7859,4071,1483,1745190605221350200
2012704,-174,-61,-483,7954,4168,1542,1745190605221350200
2012896,-167,-75,-474,8020,4224,1585,1745190605221350200
2013088,-158,-91,-466,8063,4274,1581,1745190605283211197
2013280,-155,-103,-457,8085,4240,1609,1745190605283211197
2013472,-166,-111,-448,8100,4034,1629,1745190605283211197
2013664,-177,-118,-431,8112,3789,1626,1745190605283211197
2013856,-181,-124,-402,8098,3603,1611,1745190605283211197
2014048,-178,-130,-373,8089,3489,1555,1745190605283211197
2014240,-171,-130,-348,8109,3411,1512,1745190605283211197
2014432,-158,-128,-328,8120,3355,1555,1745190605283211197
2014624,-135,-128,-305,8140,3283,1613,1745190605283211197
2014816,-110,-128,-272,8121,3185,1644,1745190605283211197
2015008,-97,-126,-226,8132,3083,1683,1745190605283211197
2015200,-98,-124,-174,8154,3021,1673,1745190605283211197
2015392,-117,-120,-120,8182,2976,1630,1745190605402256829
2015584,-148,-118,-62,8206,2931,1526,1745190605402256829
2015776,-184,-118,-1,8244,2844,1376,1745190605402256829
2015968,-218,-121,64,8270,2768,1259,1745190605402256829
2016160,-254,-125,126,8279,2789,1187,1745190605402256829
2016352,-296,-125,181,8266,2894,1087,1745190605402256829
2016544,-333,-120,230,8266,3025,1006,1745190605402256829
2016736,-348,-115,275,8280,3130,962,1745190605402256829
2016928,-336,-112,320,8290,3140,933,1745190605402256829
2017120,-304,-113,364,8297,3087,908,1745190605402256829
2017312,-270,-115,405,8298,2948,884,1745190605402256829
2017504,-248,-115,440,8280,2905,820,1745190605402256829
2017696,-294,-102,486,8253,2731,874,1745190605409499262
2017888,-301,-123,535,8465,2465,1066,1745190605409499262
2018080,-237,-177,563,8192,2402,765,1745190605409499262
2018272,-243,-135,551,7889,2344,710,1745190605409499262
2018464,-279,-101,558,7788,2108,631,1745190605409499262
2018656,-301,-87,594,7760,1853,521,1745190605409499262
2018848,-332,-93,649,7746,1672,446,1745190605409499262
2019040,-411,-110,719,7837,1560,364,1745190605409499262
2019232,-505,-125,777,7889,1416,244,1745190605409499262
2019424,-598,-142,813,7879,1326,72,1745190605409499262
2019616,-679,-159,836,7837,1283,-133,1745190605409499262
2019808,-747,-174,852,7760,1193,-370,1745190605409499262
2020000,-808,-184,877,7646,1057,-683,1745190605452592567
2020192,-865,-192,912,7544,856,-1043,1745190605452592567
2020384,-914,-201,961,7514,646,-1451,1745190605452592567
2020576,-958,-214,1017,7519,475,-1861,1745190605452592567
2020768,-997,-235,1076,7573,342,-2284,1745190605452592567
2020960,-1026,-265,1133,7659,133,-2690,1745190605452592567
2021152,-1057,-306,1191,7782,-64,-2987,1745190605452592567
2021344,-1098,-356,1247,7803,-49,-2838,1745190605452592567
2021536,-1151,-407,1291,7874,275,-2687,1745190605452592567
2021728,-1246,-453,1315,7883,430,-2368,1745190605452592567
2021920,-1361,-487,1338,7930,501,-2088,1745190605452592567
2022112,-1467,-524,1368,8032,447,-1848,1745190605452592567
2022304,-1550,-573,1402,8164,429,-1791,1745190605513493885
2022496,-1601,-637,1430,8312,517,-1857,1745190605513493885
2022688,-1633,-699,1454,8508,765,-2036,1745190605513493885
2022880,-1650,-751,1481,8731,1087,-2334,1745190605513493885
2023072,-1652,-831,1523,9033,1449,-2671,1745190605513493885
2023264,-1633,-902,1590,9398,1699,-3065,1745190605513493885
2023456,-1607,-1007,1669,9692,1970,-3368,1745190605513493885
2023648,-1534,-1153,1641,9860,2309,-3748,1745190605513493885
2023840,-1458,-1260,1628,10070,2371,-4105,1745190605513493885
2024032,-1380,-1405,1586,10149,2561,-4460,1745190605513493885
2024224,-1323,-1557,1531,10196,2804,-4741,1745190605513493885
2024416,-1292,-1711,1485,10219,2997,-4910,1745190605513493885
2024608,-1270,-1850,1448,10205,3275,-4843,1745190605570444198
2024800,-1260,-1976,1431,10221,3519,-4812,1745190605570444198
2024992,-1235,-2103,1400,10340,3816,-4685,1745190605570444198
2025184,-1230,-2219,1385,10541,4021,-4338,1745190605570444198
2025376,-1219,-2331,1378,10750,4274,-4077,1745190605570444198
2025568,-1197,-2435,1376,11032,4618,-3996,1745190605570444198
2025760,-1158,-2545,1368,11383,5070,-4054,1745190605570444198
2025952,-1100,-2665,1351,11698,5471,-3978,1745190605570444198
2026144,-1014,-2790,1321,11940,5764,-4038,1745190605570444198
2026336,-904,-2921,1284,12215,5906,-4126,1745190605570444198
2026528,-778,-3068,1238,12453,6037,-4294,1745190605570444198
2026720,-647,-3213,1179,12655,6255,-4644,1745190605570444198
2026912,-519,-3361,1101,12831,6486,-4765,1745190605628554813
2027104,-404,-3514,1001,12933,6596,-4568,1745190605628554813
2027296,-298,-3676,882,12963,6636,-4279,1745190605628554813
2027488,-198,-3825,751,12817,6649,-4106,1745190605628554813
2027680,-98,-3949,617,12568,6682,-3903,1745190605628554813
2027872,-3,-4066,480,12281,6785,-3751,1745190605628554813
2028064,92,-4199,333,12045,6765,-3722,1745190605628554813
2028256,167,-4336,190,11791,6507,-3732,1745190605628554813
2028448,198,-4456,90,11528,6097,-3755,1745190605628554813
2028640,175,-4559,38,11267,5654,-3905,1745190605628554813
2028832,125,-4656,-3,11020,5270,-4165,1745190605628554813
2029024,67,-4748,-64,10780,5012,-4482,1745190605628554813
2029216,-6,-4821,-145,10543,4804,-4656,1745190605708488614
2029408,-101,-4872,-233,10370,4614,-4969,1745190605708488614
2029600,-196,-4904,-316,10243,4462,-5106,1745190605708488614
2029792,-270,-4928,-386,10112,4396,-5028,1745190605708488614
2029984,-305,-4943,-445,9950,4473,-4751,1745190605708488614
2030176,-315,-4948,-515,9791,4718,-4448,1745190605708488614
2030368,-312,-4944,-617,9602,5097,-4224,1745190605708488614
2030560,-295,-4929,-739,9380,5466,-4035,1745190605708488614
2030752,-247,-4915,-869,9148,5745,-3896,1745190605708488614
2030944,-156,-4906,-994,8996,6006,-3677,1745190605708488614
2031136,-33,-4928,-1097,8910,6212,-3354,1745190605708488614
2031328,90,-4963,-1176,8801,6300,-3012,1745190605708488614
2031520,205,-4984,-1238,8565,6206,-2776,1745190605745311195
2031712,302,-4983,-1287,8310,6014,-2450,1745190605745311195
2031904,379,-4996,-1341,7929,5827,-2107,1745190605745311195
2032096,433,-4935,-1404,7396,5680,-1911,1745190605745311195
2032288,474,-4830,-1465,6840,5642,-1899,1745190605745311195
2032480,549,-4706,-1522,6222,5691,-1762,1745190605745311195
2032672,673,-4529,-1564,5593,5950,-1703,1745190605745311195
2032864,844,-4342,-1596,5091,6384,-1680,1745190605745311195
2033056,1064,-4153,-1629,4683,6935,-1748,1745190605745311195
2033248,1328,-3955,-1656,4467,7446,-1968,1745190605745311195
2033440,1654,-3762,-1672,4466,7883,-2206,1745190605745311195
2033632,2021,-3594,-1674,4635,8239,-2296,1745190605745311195
2033824,2376,-3456,-1668,4931,8381,-2415,1745190605812572820
2034016,2686,-3340,-1656,5264,8138,-2566,1745190605812572820
2034208,2918,-3237,-1637,5581,7431,-2692,1745190605812572820
2034400,3063,-3155,-1609,5844,6422,-2774,1745190605812572820
2034592,3113,-3090,-1561,6020,5318,-2807,1745190605812572820
2034784,3070,-3042,-1495,6120,4388,-2786,1745190605812572820
2034976,2940,-2999,-1429,6077,3683,-2634,1745190605812572820
2035168,2737,-2946,-1370,6002,3255,-2436,1745190605812572820
2035360,2493,-2888,-1320,5925,3081,-2161,1745190605812572820
2035552,2223,-2822,-1284,5831,3166,-1717,1745190605812572820
2035744,1954,-2753,-1280,5637,3498,-1515,1745190605812572820
2035936,1716,-2676,-1307,5407,4010,-1505,1745190605812572820
2036128,1513,-2571,-1340,5178,4549,-1123,1745190605861650757
2036320,1339,-2452,-1355,4940,5002,-1193,1745190605861650757
2036512,1203,-2320,-1350,4814,5250,-1376,1745190605861650757
2036704,1096,-2184,-1329,4748,5353,-1711,1745190605861650757
2036896,989,-2056,-1303,4801,5298,-2432,1745190605861650757
2037088,880,-1927,-1275,4933,5261,-3248,1745190605861650757
2037280,741,-1818,-1263,5307,5299,-4039,1745190605861650757
2037472,562,-1715,-1284,5860,5252,-4266,1745190605861650757
2037664,385,-1626,-1332,6387,5262,-4577,1745190605861650757
2037856,250,-1527,-1399,6762,5450,-4998,1745190605861650757
2038048,161,-1431,-1470,7086,5589,-5347,1745190605861650757
2038240,137,-1317,-1527,7321,5645,-5700,1745190605861650757
2038432,176,-1216,-1562,7400,5686,-6182,1745190605922313901
2038624,265,-1121,-1563,7538,5607,-6588,1745190605922313901
2038816,382,-1024,-1540,7786,5462,-6958,1745190605922313901
2039008,506,-927,-1497,8163,5187,-7272,1745190605922313901
2039200,638,-851,-1453,8484,4737,-7552,1745190605922313901
2039392,787,-791,-1424,8576,4221,-7646,1745190605922313901
2039584,943,-734,-1403,8491,3685,-7451,1745190605922313901
2039776,1064,-676,-1367,8346,3069,-7264,1745190605922313901
2039968,1122,-621,-1316,8206,2366,-7047,1745190605922313901
2040160,1121,-580,-1271,7920,1695,-6694,1745190605922313901
2040352,1087,-531,-1244,7447,1139,-6319,1745190605922313901
2040544,1027,-457,-1222,6973,554,-6042,1745190605922313901
2040736,961,-366,-1197,6579,52,-6069,1745190605978613178
2040928,885,-264,-1165,6329,-350,-6325,1745190605978613178
2041120,792,-181,-1139,6160,-856,-6512,1745190605978613178
2041312,690,-117,-1109,6005,-1472,-6578,1745190605978613178
2041504,576,-57,-1063,5804,-1974,-6406,1745190605978613178
2041696,441,19,-1005,5521,-2326,-6079,1745190605978613178
2041888,300,110,-952,5249,-2327,-5928,1745190605978613178
2042080,142,201,-923,4985,-2344,-5852,1745190605978613178
2042272,-30,297,-851,4782,-2791,-5820,1745190605978613178
2042464,-138,314,-746,4859,-3206,-5584,1745190605978613178
2042656,-123,379,-842,4357,-2406,-5330,1745190605978613178
2042848,-126,506,-972,3983,-662,-5161,1745190605978613178
2043040,-220,592,-965,3851,-286,-5456,1745190606039166792
2043232,-226,654,-775,4045,-1266,-5704,1745190606039166792
2043424,-20,710,-575,4306,-1665,-6151,1745190606039166792
2043616,156,745,-453,4754,-1497,-6288,1745190606039166792
2043808,252,741,-314,5313,-1903,-6002,1745190606039166792
2044000,397,713,-179,5643,-2462,-6083,1745190606039166792
2044192,570,694,-155,5699,-2436,-5774,1745190606039166792
2044384,710,711,-247,5470,-1671,-4773,1745190606039166792
2044576,780,757,-388,4947,-1070,-1146,1745190606039166792
2044768,676,858,-389,4489,-4332,-2218,1745190606039166792
2044960,416,870,45,5900,-11297,-8857,1745190606039166792
2045152,169,733,734,7294,-14480,-11436,1745190606039166792
2045344,-201,484,1396,9049,-15332,-11591,1745190606097061211
2045536,-1247,333,1085,8687,-11928,-12885,1745190606097061211
