timestamp,gyr_x,gyr_y,gyr_z,acc_x,acc_y,acc_z,pkt_time_ns
538912,-41,-403,-163,112,682,-8046,1745155663241865996
539104,-7,-333,-175,-117,1425,-7811,1745155663241865996
539296,25,-291,-153,-260,1648,-7712,1745155663241865996
539488,57,-222,-141,-113,1524,-7888,1745155663241865996
539680,105,-178,-149,171,1499,-7973,1745155663241865996
539872,128,-140,-159,378,1471,-8065,1745155663241865996
540064,158,-106,-166,497,1385,-8157,1745155663241865996
540256,187,-87,-169,596,1280,-8248,1745155663241865996
540448,190,-86,-168,867,1029,-8278,1745155663241865996
540640,195,-102,-172,1023,1024,-8239,1745155663241865996
540832,202,-121,-172,953,1241,-8247,1745155663241865996
541024,213,-124,-170,755,1369,-8208,1745155663241865996
541216,223,-116,-177,574,1349,-8183,1745155663298925475
541408,224,-103,-188,348,1282,-8237,1745155663298925475
541600,227,-80,-199,153,1202,-8280,1745155663298925475
541792,228,-49,-206,-28,1195,-8284,1745155663298925475
541984,225,-3,-206,-115,1251,-8329,1745155663298925475
542176,226,52,-195,-171,1348,-8344,1745155663298925475
542368,230,99,-181,-192,1335,-8362,1745155663298925475
542560,238,161,-167,-131,1274,-8377,1745155663298925475
542752,250,207,-151,-65,1240,-8398,1745155663298925475
542944,267,245,-134,-3,1252,-8424,1745155663298925475
543136,291,281,-117,14,1340,-8436,1745155663298925475
543328,321,322,-99,-36,1525,-8441,1745155663298925475
543520,360,368,-81,-109,1732,-8388,1745155663358334359
543712,409,417,-60,-174,1792,-8338,1745155663358334359
543904,460,457,-33,188,1622,-7807,1745155663358334359
544096,413,463,-22,339,27,-9196,1745155663358334359
544288,450,446,13,528,2472,-7855,1745155663358334359
544480,580,420,100,198,2115,-7849,1745155663358334359
544672,700,480,129,166,1094,-7870,1745155663358334359
544864,918,472,122,94,884,-8035,1745155663358334359
545056,1186,570,181,-36,337,-8033,1745155663358334359
545248,442,533,174,83,-2046,-7710,1745155663358334359
545440,-196,364,44,1081,-3616,-7641,1745155663358334359
545632,-16,446,-13,1384,-2538,-7629,1745155663358334359
545824,-266,419,-42,1814,-1583,-7346,1745155663414718115
546016,-337,341,-89,2000,-293,-7378,1745155663414718115
546208,-341,299,-145,2073,908,-7291,1745155663414718115
546400,-279,219,-207,2009,1721,-7207,1745155663414718115
546592,-175,136,-257,1904,2136,-7278,1745155663414718115
546784,-59,72,-272,1797,2198,-7430,1745155663414718115
546976,52,16,-247,1679,1863,-7572,1745155663414718115
547168,126,-20,-203,1580,1371,-7713,1745155663414718115
547360,159,-48,-168,1437,866,-7888,1745155663414718115
547552,155,-66,-149,1274,509,-8054,1745155663414718115
547744,119,-64,-140,1084,345,-8173,1745155663414718115
547936,69,-48,-134,932,328,-8242,1745155663414718115
548128,11,-24,-128,796,345,-8379,1745155663477358011
548320,-48,1,-123,771,373,-8424,1745155663477358011
548512,-91,18,-123,787,431,-8353,1745155663477358011
548704,-121,34,-128,865,525,-8335,1745155663477358011
548896,-148,40,-136,963,604,-8316,1745155663477358011
549088,-176,35,-142,1061,667,-8231,1745155663477358011
549280,-209,23,-144,1133,649,-8153,1745155663477358011
549472,-243,11,-148,1133,636,-8022,1745155663477358011
549664,-266,-3,-151,1133,665,-7899,1745155663477358011
549856,-276,-20,-151,1049,705,-7795,1745155663477358011
550048,-281,-37,-145,987,718,-7715,1745155663477358011
550240,-281,-51,-140,955,727,-7666,1745155663477358011
550432,-273,-65,-138,921,724,-7615,1745155663581766276
550624,-256,-77,-140,908,746,-7552,1745155663581766276
550816,-240,-89,-145,914,770,-7501,1745155663581766276
551008,-228,-97,-150,920,817,-7457,1745155663581766276
551200,-219,-109,-153,949,847,-7420,1745155663581766276
551392,-205,-125,-153,953,888,-7408,1745155663581766276
551584,-188,-139,-150,980,955,-7421,1745155663581766276
551776,-169,-147,-147,1002,1001,-7468,1745155663581766276
551968,-154,-153,-147,1028,1055,-7555,1745155663581766276
552160,-139,-160,-147,1013,1083,-7639,1745155663581766276
552352,-125,-166,-146,1000,1116,-7784,1745155663581766276
552544,-115,-170,-141,946,1151,-7985,1745155663581766276
552736,-108,-175,-134,901,1160,-8190,1745155663595120998
552928,-106,-174,-126,849,1163,-8393,1745155663595120998
553120,-116,-168,-117,777,1152,-8585,1745155663595120998
553312,-135,-161,-108,715,1110,-8726,1745155663595120998
553504,-159,-150,-99,667,1027,-8814,1745155663595120998
553696,-190,-136,-90,633,936,-8869,1745155663595120998
553888,-222,-125,-82,623,838,-8855,1745155663595120998
554080,-252,-116,-77,603,764,-8724,1745155663595120998
554272,-285,-106,-75,611,753,-8597,1745155663595120998
554464,-326,-97,-74,584,770,-8556,1745155663595120998
554656,-362,-88,-71,591,823,-8425,1745155663595120998
554848,-381,-82,-68,589,946,-8244,1745155663595120998
555040,-386,-72,-67,594,1096,-8183,1745155663648641290
555232,-376,-59,-67,570,1260,-8091,1745155663648641290
555424,-349,-48,-71,560,1426,-7962,1745155663648641290
555616,-306,-39,-77,548,1553,-7885,1745155663648641290
555808,-257,-31,-79,545,1621,-7840,1745155663648641290
556000,-208,-23,-77,569,1619,-7827,1745155663648641290
556192,-157,-21,-70,615,1551,-7843,1745155663648641290
556384,-108,-24,-61,664,1478,-7822,1745155663648641290
556576,-73,-27,-52,720,1376,-7816,1745155663648641290
556768,-53,-33,-46,721,1296,-7853,1745155663648641290
556960,-36,-42,-43,736,1229,-7842,1745155663648641290
557152,-22,-46,-42,726,1184,-7800,1745155663648641290
557344,-15,-48,-42,686,1162,-7861,1745155663709084280
557536,-14,-45,-43,652,1179,-7958,1745155663709084280
557728,-13,-39,-40,627,1191,-8037,1745155663709084280
557920,-10,-31,-32,599,1184,-8118,1745155663709084280
558112,-6,-20,-24,610,1211,-8220,1745155663709084280
558304,-12,-8,-19,630,1217,-8309,1745155663709084280
558496,-28,8,-14,656,1212,-8396,1745155663709084280
558688,-50,20,-6,673,1250,-8437,1745155663709084280
558880,-79,31,3,693,1273,-8432,1745155663709084280
559072,-109,41,14,716,1316,-8435,1745155663709084280
559264,-135,48,23,762,1354,-8454,1745155663709084280
559456,-155,55,28,772,1393,-8419,1745155663709084280
559648,-169,63,30,773,1399,-8347,1745155663766734587
559840,-177,70,31,806,1378,-8342,1745155663766734587
560032,-181,75,31,807,1349,-8306,1745155663766734587
560224,-187,85,30,807,1294,-8313,1745155663766734587
560416,-193,95,28,798,1232,-8441,1745155663766734587
560608,-195,100,25,818,1130,-8553,1745155663766734587
560800,-191,103,19,897,1035,-8641,1745155663766734587
560992,-192,105,9,1041,886,-8702,1745155663766734587
561184,-196,92,-4,1259,720,-8664,1745155663766734587
561376,-199,74,-26,1501,582,-8651,1745155663766734587
561568,-208,48,-64,1719,419,-8522,1745155663766734587
561760,-233,21,-119,1873,247,-8519,1745155663766734587
561952,-255,-9,-178,1880,165,-8611,1745155663823932033
562144,-277,-39,-220,1845,157,-8637,1745155663823932033
562336,-296,-60,-235,1866,216,-8541,1745155663823932033
562528,-317,-67,-232,1899,409,-8429,1745155663823932033
562720,-347,-46,-226,1857,698,-8345,1745155663823932033
562912,-380,-2,-231,1855,935,-8363,1745155663823932033
563104,-409,34,-254,1762,1078,-8345,1745155663823932033
563296,-403,85,-285,1642,1182,-8331,1745155663823932033
563488,-375,125,-294,1601,1124,-8113,1745155663823932033
563680,-321,128,-291,1715,1172,-8128,1745155663823932033
563872,-251,141,-311,1939,1427,-8332,1745155663823932033
564064,-202,139,-360,2188,1675,-8333,1745155663823932033
564256,-113,106,-411,2376,1916,-7827,1745155663884414970
564448,2,93,-459,2515,2052,-7332,1745155663884414970
564640,85,101,-502,2571,1908,-7059,1745155663884414970
564832,107,102,-539,2555,1561,-6942,1745155663884414970
565024,79,110,-571,2429,1188,-6917,1745155663884414970
565216,36,130,-587,2207,930,-7168,1745155663884414970
565408,-37,145,-594,2028,1059,-7460,1745155663884414970
565600,-117,187,-624,1875,1631,-7590,1745155663884414970
565792,-161,282,-680,1823,2376,-7411,1745155663884414970
565984,-119,361,-745,2007,3076,-7552,1745155663884414970
566176,10,396,-814,2666,3327,-7604,1745155663884414970
566368,174,298,-868,3637,3549,-8872,1745155663884414970
566560,300,110,-928,4327,3963,-9653,1745155663954487767
566752,451,-33,-942,4768,4545,-10340,1745155663954487767
566944,667,-133,-928,5129,5024,-10933,1745155663954487767
567136,996,-304,-913,5324,4710,-9711,1745155663954487767
567328,1411,-471,-894,5079,3856,-7540,1745155663954487767
567520,1764,-590,-890,4458,2959,-7218,1745155663954487767
567712,1990,-716,-887,3999,2191,-8056,1745155663954487767
567904,2103,-837,-863,3649,1770,-8461,1745155663954487767
568096,2053,-832,-729,3667,1409,-7779,1745155663954487767
568288,1795,-713,-407,4077,901,-6187,1745155663954487767
568480,1756,-849,-324,3931,522,-6456,1745155663954487767
568672,1892,-1122,-505,2952,421,-6738,1745155663954487767
568864,1905,-1170,-742,1775,131,-7077,1745155664001303954
569056,1764,-1073,-874,947,-620,-7450,1745155664001303954
569248,1536,-974,-897,756,-1581,-7694,1745155664001303954
569440,1301,-825,-831,1184,-2320,-8012,1745155664001303954
569632,1059,-765,-727,1824,-2300,-8199,1745155664001303954
569824,815,-728,-659,2352,-1831,-8200,1745155664001303954
570016,603,-690,-647,2486,-1203,-7952,1745155664001303954
570208,485,-625,-685,2238,-449,-7747,1745155664001303954
570400,435,-542,-733,1704,246,-7460,1745155664001303954
570592,421,-434,-776,1017,658,-7194,1745155664001303954
570784,440,-287,-793,424,827,-7014,1745155664001303954
570976,462,-108,-764,60,725,-6825,1745155664001303954
571168,464,95,-685,5,558,-6903,1745155664058073123
571360,433,308,-561,285,307,-6770,1745155664058073123
571552,308,527,-374,462,-21,-6377,1745155664058073123
571744,237,739,-195,609,-522,-5411,1745155664058073123
571936,154,804,-248,639,-694,-5030,1745155664058073123
572128,216,928,-303,448,-132,-5504,1745155664058073123
572320,156,1096,-275,439,-162,-5336,1745155664058073123
572512,95,1258,-224,577,-218,-5094,1745155664058073123
572704,29,1411,-145,814,-244,-4829,1745155664058073123
572896,-51,1554,-59,933,-264,-4553,1745155664058073123
573088,-135,1699,24,962,-267,-4284,1745155664058073123
573280,-215,1849,98,971,-276,-4102,1745155664058073123
573472,-303,2001,162,1002,-285,-4006,1745155664122793730
573664,-405,2147,225,1067,-379,-3949,1745155664122793730
573856,-517,2290,296,1133,-489,-3888,1745155664122793730
574048,-640,2428,378,1240,-612,-3784,1745155664122793730
574240,-777,2561,464,1412,-686,-3689,1745155664122793730
574432,-915,2684,542,1596,-733,-3602,1745155664122793730
574624,-1047,2805,609,1791,-730,-3642,1745155664122793730
574816,-1173,2903,665,1908,-734,-3628,1745155664122793730
575008,-1284,2987,723,2047,-754,-3674,1745155664122793730
575200,-1382,3056,792,2261,-809,-3746,1745155664122793730
575392,-1471,3102,872,2488,-805,-3528,1745155664122793730
575584,-1547,3159,959,2591,-692,-3245,1745155664122793730
575776,-1595,3243,1047,2636,-483,-3112,1745155664174557580
575968,-1617,3330,1117,2691,-116,-3124,1745155664174557580
576160,-1619,3419,1167,2787,336,-3252,1745155664174557580
576352,-1601,3515,1209,2919,951,-3458,1745155664174557580
576544,-1556,3616,1251,3127,1684,-3748,1745155664174557580
576736,-1500,3709,1291,3455,2416,-4025,1745155664174557580
576928,-1434,3785,1328,3845,3047,-4264,1745155664174557580
577120,-1370,3838,1363,4187,3452,-4441,1745155664174557580
577312,-1293,3861,1388,4484,3676,-4627,1745155664174557580
577504,-1198,3871,1409,4633,3797,-4918,1745155664174557580
577696,-1118,3888,1449,4679,3807,-5296,1745155664174557580
577888,-1048,3926,1508,4654,3616,-5495,1745155664174557580
578080,-984,3965,1550,4568,3347,-5713,1745155664233625894
578272,-934,4012,1569,4433,3091,-5841,1745155664233625894
578464,-891,4074,1575,4350,2919,-5830,1745155664233625894
578656,-878,4133,1564,4354,2703,-5811,1745155664233625894
578848,-899,4194,1535,4516,2473,-5754,1745155664233625894
579040,-952,4243,1491,4769,2207,-5613,1745155664233625894
579232,-1028,4278,1432,5061,1998,-5510,1745155664233625894
579424,-1113,4296,1365,5334,1878,-5429,1745155664233625894
579616,-1194,4311,1299,5556,1937,-5228,1745155664233625894
579808,-1271,4326,1227,5774,2128,-4860,1745155664233625894
580000,-1349,4336,1143,6053,2428,-4570,1745155664233625894
580192,-1423,4333,1046,6320,2728,-4260,1745155664233625894
580384,-1493,4296,931,6725,2726,-3769,1745155664291063651
580576,-1515,4202,779,7070,3064,-3829,1745155664291063651
580768,-1522,4110,669,7457,3373,-3846,1745155664291063651
580960,-1498,4016,563,7869,3822,-3916,1745155664291063651
581152,-1449,3916,448,8217,4447,-4000,1745155664291063651
581344,-1386,3811,326,8428,5150,-4039,1745155664291063651
581536,-1317,3715,207,8488,5807,-4092,1745155664291063651
581728,-1235,3629,108,8460,6394,-4118,1745155664291063651
581920,-1129,3569,31,8409,6730,-4377,1745155664291063651
582112,-1021,3513,-36,8228,7009,-4601,1745155664291063651
582304,-903,3461,-53,8158,7184,-4688,1745155664291063651
582496,-799,3425,-40,8145,7181,-4874,1745155664291063651
582688,-731,3392,-3,8242,6858,-4951,1745155664368213780
582880,-677,3346,25,8317,6459,-5018,1745155664368213780
583072,-628,3295,55,8370,6079,-4988,1745155664368213780
583264,-580,3266,68,8481,5689,-4732,1745155664368213780
583456,-564,3232,22,8559,5228,-4453,1745155664368213780
583648,-573,3191,-22,8550,4591,-3900,1745155664368213780
583840,-544,3094,-37,8655,3921,-3564,1745155664368213780
584032,-454,2972,-55,8807,3426,-3522,1745155664368213780
584224,-347,2845,-129,8945,3210,-3615,1745155664368213780
584416,-258,2721,-292,9039,3235,-3762,1745155664368213780
584608,-193,2628,-540,8950,3984,-3980,1745155664368213780
584800,-170,2559,-775,8903,4819,-4046,1745155664368213780
584992,-171,2498,-999,8932,5676,-3923,1745155664413372273
585184,-188,2408,-1202,9069,6456,-3631,1745155664413372273
585376,-188,2296,-1358,9186,6970,-3420,1745155664413372273
585568,-152,2178,-1460,9310,7556,-3205,1745155664413372273
585760,-85,2082,-1494,9428,7854,-3381,1745155664413372273
585952,-28,1971,-1453,9576,7812,-3519,1745155664413372273
586144,23,1883,-1382,9848,7546,-3605,1745155664413372273
586336,68,1792,-1360,10043,6969,-3725,1745155664413372273
586528,100,1695,-1388,10020,6382,-3889,1745155664413372273
586720,117,1593,-1406,9871,5788,-4000,1745155664413372273
586912,119,1504,-1410,9605,5318,-4079,1745155664413372273
587104,99,1444,-1396,9234,5023,-4097,1745155664413372273
587296,62,1405,-1366,8987,4700,-4012,1745155664466322258
587488,22,1380,-1352,8780,4362,-3928,1745155664466322258
587680,-11,1357,-1376,8662,4046,-3757,1745155664466322258
587872,-41,1333,-1450,8656,3693,-3526,1745155664466322258
588064,-71,1309,-1564,8558,3710,-3355,1745155664466322258
588256,-112,1293,-1626,8531,3606,-3128,1745155664466322258
588448,-149,1256,-1657,8579,3536,-2826,1745155664466322258
588640,-181,1207,-1674,8626,3592,-2569,1745155664466322258
588832,-215,1157,-1691,8653,3683,-2343,1745155664466322258
589024,-248,1102,-1708,8603,3797,-2064,1745155664466322258
589216,-263,1054,-1720,8622,3916,-1802,1745155664466322258
589408,-266,1008,-1750,8589,3994,-1676,1745155664466322258
589600,-265,951,-1779,8566,4019,-1485,1745155664525399531
589792,-251,902,-1792,8486,4075,-1420,1745155664525399531
589984,-236,869,-1795,8441,4135,-1477,1745155664525399531
590176,-227,844,-1801,8403,4202,-1436,1745155664525399531
590368,-223,824,-1814,8416,4208,-1337,1745155664525399531
590560,-226,795,-1819,8414,4184,-1250,1745155664525399531
590752,-217,765,-1818,8408,4201,-1198,1745155664525399531
590944,-207,744,-1819,8367,4194,-1224,1745155664525399531
591136,-204,720,-1817,8289,4255,-1208,1745155664525399531
591328,-202,697,-1811,8248,4285,-1035,1745155664525399531
591520,-187,671,-1810,8194,4365,-890,1745155664525399531
591712,-168,646,-1807,8174,4446,-818,1745155664525399531
591904,-153,621,-1806,8198,4520,-692,1745155664585020705
592096,-142,596,-1807,8207,4637,-559,1745155664585020705
592288,-131,575,-1811,8215,4716,-524,1745155664585020705
592480,-120,535,-1812,8211,4790,-371,1745155664585020705
592672,-103,496,-1810,8203,4833,-373,1745155664585020705
592864,-97,458,-1811,8198,4795,-296,1745155664585020705
593056,-99,419,-1813,8166,4731,-309,1745155664585020705
593248,-109,381,-1810,8075,4688,-262,1745155664585020705
593440,-115,343,-1805,7992,4659,-195,1745155664585020705
593632,-117,311,-1796,7915,4670,-112,1745155664585020705
593824,-126,287,-1784,7834,4735,-58,1745155664585020705
594016,-138,271,-1782,7695,4917,-44,1745155664585020705
594208,-161,263,-1770,7616,5047,-62,1745155664642803459
594400,-184,254,-1760,7662,5073,-109,1745155664642803459
594592,-203,242,-1773,7755,5068,-113,1745155664642803459
594784,-229,228,-1795,7719,5247,-94,1745155664642803459
594976,-261,217,-1806,7631,5449,30,1745155664642803459
595168,-275,201,-1818,7539,5651,170,1745155664642803459
595360,-263,178,-1828,7393,5914,268,1745155664642803459
595552,-247,158,-1829,7285,6051,316,1745155664642803459
595744,-242,138,-1835,7190,6151,384,1745155664642803459
595936,-242,117,-1839,7094,6207,458,1745155664642803459
596128,-239,94,-1848,6967,6304,520,1745155664642803459
596320,-234,71,-1857,6818,6503,508,1745155664642803459
596512,-237,56,-1843,6746,6540,618,1745155664706860582
596704,-210,48,-1828,6733,6606,597,1745155664706860582
596896,-195,42,-1821,6657,6769,514,1745155664706860582
597088,-198,40,-1809,6610,6863,496,1745155664706860582
597280,-196,40,-1818,6684,6782,469,1745155664706860582
597472,-200,33,-1874,6747,6823,492,1745155664706860582
597664,-197,30,-1902,6675,7023,544,1745155664706860582
597856,-177,24,-1870,6683,7063,662,1745155664706860582
598048,-146,6,-1846,6738,7102,657,1745155664706860582
598240,-120,-16,-1834,6785,7042,658,1745155664706860582
598432,-109,-44,-1831,6827,6913,667,1745155664706860582
598624,-110,-83,-1832,6763,6793,637,1745155664706860582
598816,-132,-112,-1824,6589,6782,670,1745155664767177218
599008,-157,-127,-1815,6327,6836,692,1745155664767177218
599200,-165,-137,-1804,6123,6864,723,1745155664767177218
599392,-153,-139,-1797,6015,6851,711,1745155664767177218
599584,-133,-144,-1792,6013,6781,635,1745155664767177218
599776,-114,-159,-1788,6156,6634,360,1745155664767177218
599968,-111,-186,-1794,6341,6422,142,1745155664767177218
600160,-121,-226,-1806,6477,6217,-82,1745155664767177218
600352,-134,-280,-1805,6546,6176,-114,1745155664767177218
600544,-146,-337,-1793,6504,6367,-105,1745155664767177218
600736,-161,-380,-1779,6383,6545,-144,1745155664767177218
600928,-176,-415,-1769,6312,6638,-123,1745155664767177218
601120,-191,-455,-1753,6163,6744,-113,1745155664819003880
601312,-198,-486,-1720,6223,6883,-152,1745155664819003880
601504,-198,-536,-1694,6529,6848,-246,1745155664819003880
601696,-213,-568,-1706,6159,6810,-210,1745155664819003880
601888,-227,-594,-1669,5934,7171,-62,1745155664819003880
602080,-205,-620,-1564,5792,7379,84,1745155664819003880
602272,-159,-633,-1522,5692,7260,24,1745155664819003880
602464,-123,-658,-1523,5821,6954,-58,1745155664819003880
602656,-109,-693,-1498,6023,6603,-99,1745155664819003880
602848,-124,-727,-1467,5876,6309,-64,1745155664819003880
603040,-143,-760,-1434,5690,6209,-55,1745155664819003880
603232,-165,-794,-1408,5417,6137,141,1745155664819003880
603424,-166,-811,-1383,4980,6236,237,1745155664879438276
603616,-171,-807,-1340,4776,6259,344,1745155664879438276
603808,-167,-798,-1303,4746,6213,444,1745155664879438276
604000,-162,-793,-1274,4793,6135,459,1745155664879438276
604192,-165,-792,-1242,4799,6120,474,1745155664879438276
604384,-172,-792,-1206,4730,6139,537,1745155664879438276
604576,-177,-792,-1164,4617,6224,648,1745155664879438276
604768,-176,-785,-1136,4442,6405,724,1745155664879438276
604960,-162,-781,-1100,4430,6503,749,1745155664879438276
605152,-142,-784,-1051,4330,6454,803,1745155664879438276
605344,-121,-775,-1011,4220,6297,899,1745155664879438276
605536,-115,-766,-976,4159,6113,928,1745155664879438276
605728,-120,-761,-945,3893,6003,895,1745155664937567537
605920,-128,-742,-912,3816,5820,953,1745155664937567537
606112,-135,-725,-889,3784,5917,936,1745155664937567537
606304,-152,-707,-866,3659,5942,1032,1745155664937567537
606496,-150,-735,-837,3493,6001,1632,1745155664937567537
606688,-140,-755,-809,3592,6360,264,1745155664937567537
606880,-158,-641,-769,3556,6436,1052,1745155664937567537
607072,-147,-644,-744,3489,6528,1068,1745155664937567537
607264,-142,-618,-732,3269,6515,1092,1745155664937567537
607456,-117,-604,-699,3198,6662,1146,1745155664937567537
607648,-92,-579,-650,3228,6641,1086,1745155664937567537
607840,-73,-560,-618,3238,6556,1111,1745155664937567537
608032,-68,-540,-595,3197,6512,1123,1745155664994833160
608224,-76,-511,-556,3082,6515,1229,1745155664994833160
608416,-56,-484,-513,3008,6571,1315,1745155664994833160
608608,-29,-459,-474,3028,6640,1173,1745155664994833160
608800,-49,-429,-446,3115,6492,1235,1745155664994833160
608992,-25,-414,-420,3059,6592,1249,1745155664994833160
609184,-3,-406,-392,3246,6683,1219,1745155664994833160
609376,-8,-398,-377,3200,6669,1303,1745155664994833160
609568,-9,-392,-357,3041,6703,1416,1745155664994833160
609760,-9,-372,-337,2873,6720,1406,1745155664994833160
609952,-9,-343,-316,2721,6691,1418,1745155664994833160
610144,-2,-315,-289,2759,6680,1441,1745155664994833160
610336,5,-292,-271,2867,6659,1409,1745155665145131474
610528,-3,-276,-272,2823,6655,1336,1745155665145131474
610720,-12,-261,-243,2764,6703,1287,1745155665145131474
610912,-13,-241,-211,2688,6805,1286,1745155665145131474
611104,-12,-212,-184,2492,6876,1237,1745155665145131474
611296,-1,-180,-156,2479,6919,1138,1745155665145131474
611488,9,-153,-125,2494,6927,1095,1745155665145131474
611680,23,-125,-103,2782,6780,1032,1745155665145131474
611872,25,-125,-105,2798,6711,1083,1745155665145131474
612064,38,-131,-66,2672,6858,1066,1745155665145131474
612256,51,-121,-35,2641,6950,1048,1745155665145131474
612448,55,-112,-30,2677,6927,994,1745155665145131474
612640,58,-107,-26,2681,6875,1005,1745155665154716178
612832,60,-101,-16,2582,6855,915,1745155665154716178
613024,53,-96,-4,2509,6831,823,1745155665154716178
613216,41,-92,3,2471,6868,781,1745155665154716178
613408,23,-81,12,2446,6950,726,1745155665154716178
613600,-1,-66,28,2452,7115,711,1745155665154716178
613792,-13,-53,41,2475,7315,681,1745155665154716178
613984,-16,-45,53,2445,7516,642,1745155665154716178
614176,-13,-38,70,2456,7633,510,1745155665154716178
614368,-8,-38,90,2453,7639,373,1745155665154716178
614560,-6,-35,113,2452,7584,296,1745155665154716178
614752,-8,-33,137,2430,7571,252,1745155665154716178
614944,-14,-23,160,2359,7644,230,1745155665185621677
615136,-17,-18,187,2379,7759,311,1745155665185621677
615328,-10,-11,207,2366,7922,382,1745155665185621677
615520,8,-9,220,2388,8074,511,1745155665185621677
615712,36,-12,225,2427,8146,674,1745155665185621677
615904,66,-18,225,2398,8151,728,1745155665185621677
616096,95,-26,222,2409,8062,722,1745155665185621677
616288,121,-40,214,2429,7943,719,1745155665185621677
616480,139,-45,206,2362,7869,705,1745155665185621677
616672,145,-46,199,2267,7785,715,1745155665185621677
616864,145,-38,195,2257,7716,669,1745155665185621677
617056,144,-35,195,2316,7723,647,1745155665185621677
617248,128,-30,199,2317,7794,697,1745155665231447561
617440,113,-17,204,2319,7875,709,1745155665231447561
617632,106,-11,203,2324,7958,807,1745155665231447561
617824,105,-12,195,2402,8079,851,1745155665231447561
618016,91,-11,186,2359,8146,867,1745155665231447561
618208,77,-9,185,2346,8122,870,1745155665231447561
618400,65,-9,180,2311,8119,875,1745155665231447561
618592,54,-1,169,2233,8216,784,1745155665231447561
618784,45,11,165,2181,8267,742,1745155665231447561
618976,52,23,161,2174,8327,695,1745155665231447561
619168,72,29,154,2286,8345,629,1745155665231447561
619360,88,33,152,2358,8317,556,1745155665231447561
619552,103,31,155,2455,8304,624,1745155665288614799
619744,118,17,159,2502,8301,630,1745155665288614799
619936,121,5,168,2474,8360,669,1745155665288614799
620128,132,-1,169,2404,8391,684,1745155665288614799
620320,137,-11,173,2370,8269,774,1745155665288614799
620512,140,-13,171,2365,8189,797,1745155665288614799
620704,143,-13,166,2360,8173,899,1745155665288614799
620896,150,-10,169,2375,8148,774,1745155665288614799
621088,136,-10,171,2471,8068,790,1745155665288614799
621280,127,-12,166,2519,7976,695,1745155665288614799
621472,107,-15,164,2619,7882,777,1745155665288614799
621664,94,-19,163,2580,7902,811,1745155665288614799
621856,87,-16,157,2536,7968,703,1745155665345443186
622048,74,-13,149,2499,7981,764,1745155665345443186
622240,80,-3,142,2438,8002,775,1745155665345443186
622432,88,7,143,2448,8023,733,1745155665345443186
622624,100,17,140,2558,8023,650,1745155665345443186
622816,98,20,143,2709,7920,551,1745155665345443186
623008,103,26,155,2799,7988,526,1745155665345443186
623200,121,23,160,2834,8065,450,1745155665345443186
623392,154,25,159,2738,8212,440,1745155665345443186
623584,204,33,158,2680,8293,466,1745155665345443186
623776,257,46,175,2731,8329,496,1745155665345443186
623968,310,65,194,2868,8294,404,1745155665345443186
624160,359,71,211,3008,8232,386,1745155665403379844
624352,404,72,225,3099,8131,411,1745155665403379844
624544,446,71,246,3144,7995,508,1745155665403379844
624736,485,68,267,3135,7877,640,1745155665403379844
624928,520,67,281,3128,7712,759,1745155665403379844
625120,551,68,285,3166,7455,781,1745155665403379844
625312,569,59,295,3510,7138,730,1745155665403379844
625504,563,42,313,3577,6923,857,1745155665403379844
625696,551,64,322,3335,6844,852,1745155665403379844
625888,539,78,353,3286,6758,930,1745155665403379844
626080,535,123,375,3122,6683,1002,1745155665403379844
626272,537,183,393,3287,6503,958,1745155665403379844
626464,535,231,433,3797,6182,894,1745155665468846329
626656,522,263,476,4368,5863,823,1745155665468846329
626848,497,285,528,4687,5553,708,1745155665468846329
627040,455,273,603,5447,5099,474,1745155665468846329
627232,414,254,692,5370,5153,755,1745155665468846329
627424,399,280,744,4930,5292,760,1745155665468846329
627616,394,305,802,4845,5067,749,1745155665468846329
627808,403,322,884,5096,4770,814,1745155665468846329
628000,414,351,975,5352,4206,693,1745155665468846329
628192,398,364,1066,5612,3577,558,1745155665468846329
628384,345,403,1163,5815,2859,677,1745155665468846329
628576,291,393,1252,6039,2340,786,1745155665468846329
628768,229,333,1354,6066,1964,535,1745155665519869457
628960,145,334,1472,6099,1768,421,1745155665519869457
629152,64,351,1579,6280,1977,524,1745155665519869457
629344,35,398,1696,6021,2420,379,1745155665519869457
629536,-5,466,1826,6295,2764,354,1745155665519869457
629728,7,505,1934,6729,3153,376,1745155665519869457
629920,56,536,2037,7128,3546,225,1745155665519869457
630112,95,538,2144,7658,3753,5,1745155665519869457
630304,114,576,2235,7982,3714,402,1745155665519869457
630496,155,501,2316,8335,3760,-114,1745155665519869457
630688,190,454,2405,8495,3721,-136,1745155665519869457
630880,201,432,2483,8508,3649,-236,1745155665519869457
631072,231,407,2584,8463,3521,-324,1745155665588553257
631264,242,394,2688,8597,3217,-419,1745155665588553257
631456,228,364,2765,8819,2808,-399,1745155665588553257
631648,182,337,2828,8830,2479,-368,1745155665588553257
631840,108,304,2922,8782,2307,-299,1745155665588553257
632032,-3,298,3055,8557,2516,-369,1745155665588553257
632224,-130,307,3374,7323,4013,-508,1745155665588553257
632416,-146,320,3967,9491,1156,37,1745155665588553257
632608,-183,265,3527,9599,1792,-503,1745155665588553257
632800,-346,255,3314,9539,1785,-497,1745155665588553257
632992,-439,203,3356,9664,1880,-668,1745155665588553257
633184,-508,171,3433,9642,2279,-839,1745155665588553257
633376,-521,148,3506,9812,2723,-940,1745155665637019533
633568,-507,104,3548,10032,3275,-949,1745155665637019533
633760,-499,53,3584,10263,3674,-1142,1745155665637019533
633952,-493,16,3608,10478,3747,-1509,1745155665637019533
634144,-487,-44,3648,10549,3801,-1813,1745155665637019533
634336,-462,-124,3744,11057,3545,-2116,1745155665637019533
634528,-455,-206,3777,11267,3359,-2348,1745155665637019533
634720,-463,-265,3780,11174,3437,-2476,1745155665637019533
634912,-471,-312,3812,11084,3736,-2596,1745155665637019533
635104,-468,-367,3863,11315,3791,-2775,1745155665637019533
635296,-479,-448,3870,11740,3535,-2881,1745155665637019533
635488,-524,-562,3842,12010,3212,-2829,1745155665637019533
635680,-626,-675,3817,12072,2956,-2844,1745155665696993985
635872,-782,-755,3832,12052,2730,-2964,1745155665696993985
636064,-960,-833,3870,12062,2616,-3243,1745155665696993985
636256,-1127,-875,3913,11983,2704,-3590,1745155665696993985
636448,-1232,-920,3954,12128,3167,-3754,1745155665696993985
636640,-1302,-941,3952,12312,4027,-3704,1745155665696993985
636832,-1359,-1000,3933,12489,5250,-3353,1745155665696993985
637024,-1371,-1037,3919,12668,6479,-3202,1745155665696993985
637216,-1338,-1078,3892,12830,7688,-3215,1745155665696993985
637408,-1238,-1163,3860,13228,8598,-3124,1745155665696993985
637600,-1076,-1311,3801,13664,9221,-2860,1745155665696993985
637792,-868,-1486,3715,13937,9731,-2536,1745155665696993985
637984,-635,-1653,3615,14021,9941,-2552,1745155665754486168
638176,-431,-1803,3473,14012,9804,-2681,1745155665754486168
638368,-246,-1976,3317,13878,9278,-2972,1745155665754486168
638560,-57,-2165,3168,13683,8500,-3417,1745155665754486168
638752,87,-2321,3017,13261,7703,-3985,1745155665754486168
638944,158,-2431,2891,12758,7003,-4494,1745155665754486168
639136,148,-2502,2793,12495,6319,-4887,1745155665754486168
639328,73,-2543,2678,12191,5869,-5010,1745155665754486168
639520,-25,-2539,2548,11716,5933,-4945,1745155665754486168
639712,-140,-2524,2440,11470,6309,-4804,1745155665754486168
639904,-235,-2537,2334,11456,6793,-4546,1745155665754486168
640096,-298,-2570,2213,11349,7450,-4075,1745155665754486168
640288,-318,-2621,2125,11232,8174,-3527,1745155665823016011
640480,-291,-2689,2062,11006,8766,-3180,1745155665823016011
640672,-226,-2769,1989,10812,9337,-2886,1745155665823016011
640864,-111,-2877,1928,10599,9624,-2672,1745155665823016011
641056,41,-3010,1896,10492,9545,-2624,1745155665823016011
641248,206,-3159,1880,10435,9162,-2495,1745155665823016011
641440,363,-3261,1810,10353,8867,-2492,1745155665823016011
641632,492,-3319,1673,10311,8549,-2620,1745155665823016011
641824,591,-3365,1485,10211,7988,-2828,1745155665823016011
642016,695,-3412,1291,10067,7221,-3112,1745155665823016011
642208,805,-3458,1107,9703,6400,-3467,1745155665823016011
642400,911,-3479,951,9185,5797,-3911,1745155665823016011
642592,984,-3445,818,8613,5313,-4346,1745155665870764793
642784,1008,-3372,687,8231,4982,-4687,1745155665870764793
642976,986,-3291,562,8067,4822,-4834,1745155665870764793
643168,929,-3208,449,7839,4718,-4853,1745155665870764793
643360,842,-3109,346,7622,4793,-4715,1745155665870764793
643552,742,-3014,264,7459,5069,-4415,1745155665870764793
643744,651,-2944,210,7256,5343,-4129,1745155665870764793
643936,581,-2898,200,7292,5567,-3836,1745155665870764793
644128,533,-2886,188,7420,5703,-3543,1745155665870764793
644320,498,-2888,146,7470,5759,-3255,1745155665870764793
644512,475,-2892,79,7399,5769,-3068,1745155665870764793
644704,466,-2889,7,7429,5720,-2989,1745155665870764793
644896,472,-2882,-90,7452,5571,-3043,1745155665937668713
645088,496,-2866,-213,7413,5425,-3201,1745155665937668713
645280,552,-2853,-332,7328,5231,-3459,1745155665937668713
645472,627,-2849,-444,7181,5019,-3734,1745155665937668713
645664,703,-2834,-550,7095,4797,-4086,1745155665937668713
645856,755,-2808,-672,7026,4565,-4440,1745155665937668713
646048,779,-2768,-806,7008,4291,-4704,1745155665937668713
646240,789,-2722,-939,7091,3842,-4884,1745155665937668713
646432,794,-2688,-1109,7033,3621,-4954,1745155665937668713
646624,794,-2664,-1249,6930,3264,-4946,1745155665937668713
646816,785,-2654,-1346,6828,2940,-4903,1745155665937668713
647008,750,-2652,-1427,6689,2648,-4703,1745155665937668713
647200,680,-2659,-1489,6459,2437,-4350,1745155666003255250
647392,570,-2664,-1535,6279,2338,-3989,1745155666003255250
647584,432,-2655,-1589,5995,2253,-3697,1745155666003255250
647776,306,-2637,-1649,5668,2292,-3442,1745155666003255250
647968,197,-2610,-1699,5316,2391,-3516,1745155666003255250
648160,95,-2586,-1731,5097,2449,-3512,1745155666003255250
648352,23,-2565,-1754,5055,2556,-3542,1745155666003255250
648544,-31,-2541,-1758,5052,2616,-3755,1745155666003255250
648736,-80,-2515,-1746,5234,2560,-3821,1745155666003255250
648928,-79,-2501,-1759,5453,2535,-3909,1745155666003255250
649120,-65,-2498,-1792,5476,2403,-4230,1745155666003255250
649312,-27,-2484,-1830,5372,2309,-4477,1745155666003255250
649504,51,-2471,-1884,5139,2121,-4696,1745155666045681685
649696,119,-2458,-1938,4901,1915,-4852,1745155666045681685
649888,159,-2436,-1972,4709,1669,-4919,1745155666045681685
650080,188,-2426,-1991,4546,1356,-5001,1745155666045681685
650272,226,-2405,-2003,4309,1151,-5195,1745155666045681685
650464,266,-2377,-1998,4186,1001,-5309,1745155666045681685
650656,294,-2350,-1997,4153,895,-5242,1745155666045681685
650848,303,-2338,-1997,4225,710,-5204,1745155666045681685
651040,303,-2341,-2006,4310,441,-5145,1745155666045681685
651232,313,-2362,-2019,4249,261,-5095,1745155666045681685
651424,325,-2382,-2011,4194,49,-5084,1745155666045681685
651616,334,-2399,-1998,4100,-122,-5095,1745155666045681685
651808,341,-2408,-1977,3990,-240,-5047,1745155666112188786
652000,345,-2429,-1945,3958,-394,-5059,1745155666112188786
652192,344,-2469,-1910,3993,-551,-5028,1745155666112188786
652384,343,-2513,-1873,3931,-648,-4942,1745155666112188786
652576,346,-2539,-1838,3693,-664,-4907,1745155666112188786
652768,349,-2542,-1806,3418,-707,-4932,1745155666112188786
652960,343,-2529,-1784,3116,-666,-4964,1745155666112188786
653152,335,-2517,-1742,2834,-611,-5056,1745155666112188786
653344,322,-2506,-1678,2548,-664,-5199,1745155666112188786
653536,311,-2474,-1617,2312,-745,-5392,1745155666112188786
653728,305,-2437,-1571,2099,-829,-5585,1745155666112188786
653920,307,-2388,-1528,1903,-846,-5789,1745155666112188786
654112,309,-2329,-1471,1778,-884,-5851,1745155666162777230
654304,304,-2272,-1409,1743,-834,-6176,1745155666162777230
654496,254,-2200,-1356,1716,-994,-6068,1745155666162777230
654688,243,-2140,-1308,1747,-1024,-6125,1745155666162777230
654880,235,-2103,-1261,1774,-1106,-5947,1745155666162777230
655072,327,-2062,-1215,1747,-1474,-5266,1745155666162777230
655264,604,-2047,-1187,1826,-762,-6802,1745155666162777230
655456,225,-1976,-1124,1727,-1235,-6248,1745155666162777230
655648,136,-1934,-1088,1641,-1336,-5962,1745155666162777230
655840,140,-1901,-1060,1405,-1210,-5917,1745155666162777230
656032,147,-1824,-1020,1150,-1079,-6000,1745155666162777230
656224,162,-1744,-979,999,-920,-6126,1745155666162777230
656416,174,-1688,-942,982,-848,-6245,1745155666236422599
656608,172,-1646,-900,937,-710,-6194,1745155666236422599
656800,180,-1572,-838,668,-497,-6394,1745155666236422599
656992,189,-1443,-772,367,-225,-6644,1745155666236422599
657184,205,-1304,-706,174,97,-6856,1745155666236422599
657376,213,-1177,-632,145,369,-7120,1745155666236422599
657568,212,-1045,-546,246,507,-7313,1745155666236422599
657760,207,-928,-458,407,459,-7399,1745155666236422599
657952,200,-817,-375,612,355,-7468,1745155666236422599
658144,191,-726,-296,826,219,-7518,1745155666236422599
658336,172,-642,-224,953,-23,-7465,1745155666236422599
658528,151,-567,-169,1018,-144,-7417,1745155666236422599
658720,129,-516,-117,900,-213,-7274,1745155666279075126
658912,120,-434,-43,789,-187,-7147,1745155666279075126
659104,96,-390,14,900,-428,-7021,1745155666279075126
659296,65,-341,3,1006,-679,-6833,1745155666279075126
659488,20,-300,-39,1016,-907,-6672,1745155666279075126
659680,-22,-275,-59,1003,-1019,-6513,1745155666279075126
659872,-58,-255,-49,930,-1008,-6381,1745155666279075126
660064,-87,-228,-21,833,-970,-6220,1745155666279075126
660256,-106,-209,2,818,-931,-6163,1745155666279075126
660448,-111,-171,2,783,-831,-6128,1745155666279075126
660640,-104,-128,-1,842,-737,-6285,1745155666279075126
660832,-84,-97,-4,938,-721,-6544,1745155666279075126
661024,-62,-60,-6,1098,-760,-6838,1745155666338000265
661216,-42,-29,-5,1189,-751,-7122,1745155666338000265
661408,-26,10,3,1272,-755,-7364,1745155666338000265
661600,-16,45,2,1345,-746,-7569,1745155666338000265
661792,-5,87,-5,1358,-699,-7791,1745155666338000265
661984,17,131,-10,1318,-584,-8006,1745155666338000265
662176,44,178,-10,1311,-496,-8121,1745155666338000265
662368,72,229,-4,1295,-378,-8186,1745155666338000265
662560,93,269,14,1322,-298,-8148,1745155666338000265
662752,104,302,47,1392,-187,-8029,1745155666338000265
662944,113,345,100,1382,-145,-7927,1745155666338000265
663136,120,371,156,1522,-258,-7795,1745155666338000265
663328,129,375,194,1632,-507,-7618,1745155666410199293
663520,131,380,224,1794,-844,-7430,1745155666410199293
663712,111,382,257,1905,-1133,-7228,1745155666410199293
663904,69,373,287,1932,-1427,-7113,1745155666410199293
664096,19,376,302,1861,-1563,-7100,1745155666410199293
664288,-37,384,305,1754,-1563,-7191,1745155666410199293
664480,-98,401,295,1644,-1481,-7265,1745155666410199293
664672,-162,418,276,1649,-1345,-7448,1745155666410199293
664864,-219,431,242,1691,-1198,-7654,1745155666410199293
665056,-274,451,211,1768,-943,-7790,1745155666410199293
665248,-314,455,198,1915,-677,-7960,1745155666410199293
665440,-337,467,195,2085,-380,-8119,1745155666410199293
665632,-341,471,195,2272,-124,-8312,1745155666455440546
665824,-328,435,199,2469,133,-8362,1745155666455440546
666016,-293,399,205,2617,288,-8435,1745155666455440546
666208,-244,358,206,2653,346,-8550,1745155666455440546
666400,-187,319,202,2650,392,-8605,1745155666455440546
666592,-135,284,201,2570,348,-8665,1745155666455440546
666784,-91,256,203,2422,330,-8725,1745155666455440546
666976,-58,233,215,2272,319,-8796,1745155666455440546
667168,-40,218,232,2097,297,-8834,1745155666455440546
667360,-40,217,249,1931,230,-8798,1745155666455440546
667552,-54,215,263,1821,203,-8657,1745155666455440546
667744,-57,244,277,1688,228,-8467,1745155666455440546
667936,-52,269,292,1621,248,-8525,1745155666515469425
668128,-85,296,291,1547,254,-8387,1745155666515469425
668320,-122,323,290,1525,229,-8184,1745155666515469425
668512,-158,339,294,1469,172,-8019,1745155666515469425
668704,-187,355,305,1443,157,-7820,1745155666515469425
668896,-219,370,322,1411,148,-7635,1745155666515469425
669088,-252,381,335,1397,102,-7496,1745155666515469425
669280,-284,390,335,1378,72,-7373,1745155666515469425
669472,-305,392,331,1351,58,-7345,1745155666515469425
669664,-327,389,327,1300,60,-7326,1745155666515469425
669856,-345,390,318,1252,112,-7307,1745155666515469425
670048,-363,393,309,1236,188,-7279,1745155666515469425
670240,-378,396,298,1225,317,-7286,1745155666572158178
670432,-386,402,284,1256,522,-7308,1745155666572158178
670624,-386,407,271,1289,763,-7327,1745155666572158178
670816,-378,409,254,1326,962,-7364,1745155666572158178
671008,-363,411,237,1386,1153,-7401,1745155666572158178
671200,-338,409,222,1456,1264,-7442,1745155666572158178
671392,-300,405,214,1492,1290,-7478,1745155666572158178
671584,-259,394,210,1521,1247,-7545,1745155666572158178
671776,-213,369,206,1500,1184,-7684,1745155666572158178
671968,-167,342,196,1454,1153,-7799,1745155666572158178
672160,-119,326,184,1410,1164,-7898,1745155666572158178
672352,-66,316,170,1387,1154,-8003,1745155666572158178
672544,-4,301,143,1364,1149,-8113,1745155666632577365
672736,62,274,100,1337,1189,-8296,1745155666632577365
672928,129,230,52,1415,1270,-8649,1745155666632577365
673120,162,202,40,1465,1369,-9270,1745155666632577365
673312,149,178,57,1667,1244,-9571,1745155666632577365
673504,136,107,52,1888,1102,-9905,1745155666632577365
673696,110,-8,41,2123,908,-10233,1745155666632577365
673888,67,-138,41,2318,681,-10382,1745155666632577365
674080,19,-256,42,2386,542,-10410,1745155666632577365
674272,-26,-339,37,2256,590,-10404,1745155666632577365
674464,-64,-385,25,1948,746,-10287,1745155666632577365
674656,-98,-401,18,1529,886,-10137,1745155666632577365
674848,-134,-385,25,1085,904,-9951,1745155666689167057
675040,-171,-349,48,661,798,-9696,1745155666689167057
675232,-215,-298,86,330,584,-9441,1745155666689167057
675424,-267,-239,129,100,361,-9241,1745155666689167057
675616,-330,-172,165,-11,186,-9133,1745155666689167057
675808,-399,-101,186,-68,167,-9023,1745155666689167057
676000,-470,-31,189,-48,293,-8857,1745155666689167057
676192,-532,31,177,40,544,-8632,1745155666689167057
676384,-571,81,148,191,862,-8359,1745155666689167057
676576,-578,121,95,381,1206,-8037,1745155666689167057
676768,-546,137,31,654,1562,-7734,1745155666689167057
676960,-482,132,-24,939,1800,-7534,1745155666689167057
677152,-401,106,-57,1229,1901,-7364,1745155666762261181
677344,-312,66,-54,1479,1876,-7255,1745155666762261181
677536,-219,20,-29,1683,1672,-7111,1745155666762261181
677728,-131,-33,-4,1753,1434,-7019,1745155666762261181
677920,-52,-88,12,1737,1189,-7008,1745155666762261181
678112,7,-132,14,1581,974,-7064,1745155666762261181
678304,41,-160,2,1414,828,-7118,1745155666762261181
678496,61,-171,-14,1208,746,-7209,1745155666762261181
678688,71,-166,-27,1049,728,-7379,1745155666762261181
678880,69,-152,-37,937,716,-7564,1745155666762261181
679072,64,-132,-44,916,682,-7780,1745155666762261181
679264,60,-112,-44,951,646,-7987,1745155666762261181
679456,60,-96,-37,1046,585,-8202,1745155666816808703
679648,61,-86,-24,1160,530,-8367,1745155666816808703
679840,62,-86,-12,1282,476,-8539,1745155666816808703
680032,58,-90,-6,1337,420,-8696,1745155666816808703
680224,46,-97,-10,1349,373,-8820,1745155666816808703
680416,26,-106,-17,1298,321,-8870,1745155666816808703
680608,-1,-114,-16,1206,310,-8871,1745155666816808703
680800,-32,-114,-11,1087,368,-8847,1745155666816808703
680992,-58,-107,-6,926,514,-8779,1745155666816808703
681184,-83,-91,-3,799,691,-8564,1745155666816808703
681376,-99,-72,-7,684,857,-8400,1745155666816808703
681568,-104,-56,-17,572,959,-8271,1745155666816808703
681760,-101,-40,-31,526,1050,-8137,1745155666864565194
681952,-94,-24,-45,545,1123,-8033,1745155666864565194
682144,-81,-12,-55,571,1193,-7924,1745155666864565194
682336,-64,-5,-61,644,1217,-7856,1745155666864565194
682528,-47,-5,-64,702,1205,-7773,1745155666864565194
682720,-31,-7,-66,713,1166,-7674,1745155666864565194
682912,-17,-6,-67,686,1104,-7625,1745155666864565194
683104,2,-3,-67,634,1028,-7649,1745155666864565194
683296,26,-4,-60,591,955,-7754,1745155666864565194
683488,52,-9,-48,570,907,-7875,1745155666864565194
683680,77,-19,-37,585,827,-7971,1745155666864565194
683872,100,-23,-30,612,779,-8053,1745155666864565194
684064,122,-25,-32,669,733,-8068,1745155666924830373
684256,140,-28,-42,733,729,-8017,1745155666924830373
684448,151,-38,-71,758,713,-7973,1745155666924830373
684640,142,-47,-94,738,997,-8368,1745155666924830373
684832,103,-5,-67,747,896,-8186,1745155666924830373
685024,95,15,-54,753,940,-8196,1745155666924830373
685216,102,18,-36,784,895,-8237,1745155666924830373
685408,111,26,-11,821,819,-8287,1745155666924830373
685600,118,23,14,896,614,-8356,1745155666924830373
685792,118,10,29,920,402,-8391,1745155666924830373
685984,100,-16,9,786,302,-8435,1745155666924830373
686176,49,-26,-35,578,426,-8166,1745155666924830373
686368,-19,7,-62,436,694,-8044,1745155666982392399
686560,-36,32,-70,342,1004,-8209,1745155666982392399
686752,-29,29,-76,363,1225,-8129,1745155666982392399
686944,-36,40,-78,425,1189,-8048,1745155666982392399
687136,-24,55,-69,541,1052,-8101,1745155666982392399
687328,17,53,-51,639,950,-8037,1745155666982392399
687520,52,50,-34,707,879,-7978,1745155666982392399
687712,63,41,-29,714,810,-7954,1745155666982392399
687904,64,29,-30,697,795,-7936,1745155666982392399
688096,64,24,-30,637,808,-7936,1745155666982392399
688288,63,22,-27,567,837,-7931,1745155666982392399
688480,63,24,-25,550,867,-7943,1745155666982392399
688672,71,23,-29,551,880,-7984,1745155667052770923
688864,82,25,-34,575,900,-7969,1745155667052770923
689056,91,25,-35,635,877,-7979,1745155667052770923
689248,97,26,-32,683,816,-8018,1745155667052770923
689440,98,24,-27,737,771,-8084,1745155667052770923
689632,95,22,-21,763,727,-8153,1745155667052770923
689824,88,19,-16,778,696,-8196,1745155667052770923
690016,80,16,-8,779,704,-8197,1745155667052770923
690208,73,15,-1,769,699,-8214,1745155667052770923
690400,62,16,4,776,694,-8244,1745155667052770923
690592,50,17,4,780,683,-8225,1745155667052770923
690784,41,19,4,770,690,-8183,1745155667052770923
690976,35,22,4,797,662,-8133,1745155667098227226
691168,27,23,-3,816,687,-8083,1745155667098227226
691360,18,22,-10,843,731,-8031,1745155667098227226
691552,9,20,-12,863,768,-7981,1745155667098227226
691744,0,22,-8,886,791,-7957,1745155667098227226
691936,-5,21,-4,883,798,-7910,1745155667098227226
692128,-4,18,1,905,792,-7894,1745155667098227226
692320,-2,13,3,920,743,-7882,1745155667098227226
692512,1,5,3,931,706,-7881,1745155667098227226
692704,3,-2,1,942,690,-7884,1745155667098227226
692896,5,-8,-4,937,665,-7872,1745155667098227226
693088,6,-14,-13,938,652,-7869,1745155667098227226
693280,3,-23,-22,899,669,-7879,1745155667163538140
693472,-1,-30,-25,862,692,-7890,1745155667163538140
693664,-4,-35,-25,843,720,-7895,1745155667163538140
693856,-4,-38,-22,812,753,-7937,1745155667163538140
694048,-1,-41,-18,788,773,-7989,1745155667163538140
694240,6,-43,-15,763,794,-8033,1745155667163538140
694432,10,-45,-12,758,800,-8089,1745155667163538140
694624,15,-44,-9,724,791,-8162,1745155667163538140
694816,18,-44,-6,704,778,-8223,1745155667163538140
695008,22,-44,-4,662,753,-8258,1745155667163538140
695200,28,-41,-1,633,729,-8248,1745155667163538140
695392,32,-39,2,607,696,-8243,1745155667163538140
695584,31,-37,4,583,668,-8212,1745155667227063185
695776,25,-34,6,584,656,-8177,1745155667227063185
695968,15,-31,8,549,663,-8148,1745155667227063185
696160,5,-29,10,544,726,-8109,1745155667227063185
696352,-6,-25,13,542,785,-8069,1745155667227063185
696544,-13,-20,15,532,853,-8044,1745155667227063185
696736,-13,-15,17,539,914,-8012,1745155667227063185
696928,-6,-10,17,575,930,-7969,1745155667227063185
697120,6,-7,15,598,902,-7966,1745155667227063185
697312,18,-6,9,634,837,-7995,1745155667227063185
697504,26,-8,1,658,782,-8050,1745155667227063185
697696,33,-11,-1,655,722,-8102,1745155667227063185
697888,37,-13,4,640,666,-8156,1745155667278383029
698080,35,-11,11,620,620,-8220,1745155667278383029
698272,30,-7,17,599,563,-8249,1745155667278383029
698464,26,-2,19,618,524,-8257,1745155667278383029
698656,24,3,16,627,513,-8282,1745155667278383029
698848,22,9,11,657,520,-8262,1745155667278383029
699040,16,14,6,688,528,-8229,1745155667278383029
699232,8,18,2,721,548,-8163,1745155667278383029
699424,3,20,-3,728,592,-8091,1745155667278383029
699616,-3,21,-5,761,666,-8079,1745155667278383029
699808,-8,25,-6,766,741,-8071,1745155667278383029
700000,-11,28,-6,766,799,-8064,1745155667278383029
700192,-8,30,-4,781,848,-8041,1745155667332987373
700384,-1,30,-2,800,861,-8032,1745155667332987373
700576,9,29,-2,822,833,-8019,1745155667332987373
700768,20,25,-4,844,786,-7992,1745155667332987373
700960,29,18,-6,845,748,-7986,1745155667332987373
701152,33,12,-9,821,687,-8006,1745155667332987373
701344,33,8,-12,782,639,-8008,1745155667332987373
701536,30,6,-15,745,586,-8010,1745155667332987373
701728,23,7,-17,712,550,-8036,1745155667332987373
701920,16,10,-18,689,527,-8044,1745155667332987373
702112,9,15,-18,662,539,-8056,1745155667332987373
702304,5,19,-16,674,562,-8067,1745155667332987373
702496,0,23,-15,703,588,-8062,1745155667438913854
702688,-3,23,-18,736,614,-8062,1745155667438913854
702880,-3,19,-23,766,660,-8057,1745155667438913854
703072,-1,15,-27,757,713,-8071,1745155667438913854
703264,-1,10,-30,738,736,-8088,1745155667438913854
703456,-3,7,-29,703,737,-8110,1745155667438913854
703648,-5,5,-28,659,728,-8098,1745155667438913854
703840,-5,5,-29,636,696,-8093,1745155667438913854
704032,-7,7,-31,604,689,-8111,1745155667438913854
704224,-11,9,-32,582,691,-8109,1745155667438913854
704416,-18,11,-31,579,691,-8107,1745155667438913854
704608,-23,14,-27,602,700,-8112,1745155667438913854
704800,-26,15,-22,615,700,-8101,1745155667454039184
704992,-29,16,-20,635,713,-8083,1745155667454039184
705184,-30,16,-22,641,725,-8054,1745155667454039184
705376,-28,14,-23,655,724,-8017,1745155667454039184
705568,-24,13,-21,654,728,-8016,1745155667454039184
705760,-17,12,-20,665,733,-7985,1745155667454039184
705952,-11,10,-17,685,725,-7993,1745155667454039184
706144,-5,6,-17,702,719,-7986,1745155667454039184
706336,0,5,-16,696,708,-8002,1745155667454039184
706528,3,3,-15,711,715,-8017,1745155667454039184
706720,4,2,-15,717,695,-8011,1745155667454039184
706912,6,0,-13,741,677,-8020,1745155667454039184
707104,11,9,-15,484,599,-7648,1745155667516096899
707296,26,73,-23,156,347,-6728,1745155667516096899
707488,-97,-95,-6,3112,-2052,-8048,1745155667516096899
707680,-475,-408,-49,4093,-3708,-8563,1745155667516096899
707872,-604,-500,-65,2840,-120,-7826,1745155667516096899
708064,-456,-541,-5,1215,2906,-6941,1745155667516096899
708256,-211,-463,47,236,3170,-7249,1745155667516096899
708448,-92,-415,40,-444,2288,-7755,1745155667516096899
708640,-91,-387,5,-751,1690,-7865,1745155667516096899
708832,-86,-339,-13,-985,1332,-7761,1745155667516096899
709024,-42,-211,0,-1118,1078,-7837,1745155667516096899
709216,12,-57,12,-1007,1013,-7975,1745155667516096899
709408,51,68,7,-578,1123,-8062,1745155667584778823
709600,72,139,-4,-23,1232,-8151,1745155667584778823
709792,87,157,-3,453,1282,-8181,1745155667584778823
709984,105,149,13,771,1243,-8175,1745155667584778823
710176,121,134,40,855,1110,-8211,1745155667584778823
710368,122,114,70,824,835,-8281,1745155667584778823
710560,104,74,91,1003,582,-8318,1745155667584778823
710752,78,7,94,1310,595,-8235,1745155667584778823
710944,53,-46,80,1368,824,-8119,1745155667584778823
711136,34,-88,59,1303,990,-8039,1745155667584778823
711328,15,-122,33,1146,927,-7968,1745155667584778823
711520,-5,-144,15,954,650,-7968,1745155667584778823
712480,-89,-300,-24,919,224,-8226,1745155668817006161
758560,-112,24,4,506,894,-7813,1745155668817006161
758752,2,-72,4,416,330,-8174,1745155668817006161
758944,-11,-80,2,272,761,-8003,1745155668817006161
759136,-6,-86,17,229,930,-8007,1745155668817006161
759328,7,-86,15,226,871,-8069,1745155668817006161
759520,-16,-75,6,149,819,-8070,1745155668817006161
759712,-14,-63,-3,39,805,-8059,1745155668817006161
759904,-14,-49,0,-76,837,-8064,1745155668817006161
760096,-18,-21,4,-88,854,-8098,1745155668817006161
760288,-16,0,1,-43,851,-8133,1745155668817006161
760480,-25,17,-1,10,804,-8177,1745155668817006161
760672,-31,35,1,87,790,-8200,1745155668874519802
760864,-35,42,5,161,786,-8218,1745155668874519802
761056,-44,45,11,259,820,-8227,1745155668874519802
761248,-49,45,12,312,813,-8246,1745155668874519802
761440,-57,37,11,331,822,-8245,1745155668874519802
761632,-68,34,10,327,820,-8205,1745155668874519802
761824,-75,29,8,336,816,-8170,1745155668874519802
762016,-84,24,6,344,851,-8136,1745155668874519802
762208,-89,23,3,305,916,-8122,1745155668874519802
762400,-89,28,1,258,989,-8099,1745155668874519802
762592,-83,35,-2,233,1083,-8123,1745155668874519802
762784,-68,48,-4,200,1224,-8116,1745155668874519802
762976,-45,61,-6,196,1340,-8126,1745155668928756911
763168,-19,74,-6,257,1387,-8173,1745155668928756911
763360,6,81,-4,351,1368,-8257,1745155668928756911
763552,30,83,-3,415,1347,-8338,1745155668928756911
763744,56,83,-5,456,1368,-8428,1745155668928756911
763936,88,80,-10,465,1365,-8445,1745155668928756911
764128,113,84,-17,399,1275,-8484,1745155668928756911
764320,131,91,-27,342,1180,-8471,1745155668928756911
764512,145,103,-37,257,1088,-8443,1745155668928756911
764704,157,122,-50,208,991,-8360,1745155668928756911
764896,137,135,-70,270,68,-8224,1745155668928756911
765088,51,143,-124,174,739,-8642,1745155668928756911
765280,175,173,-121,391,1770,-8022,1745155668997275451
765472,212,170,-85,337,1451,-8145,1745155668997275451
765664,230,204,-83,292,828,-8278,1745155668997275451
765856,209,189,-93,414,430,-8102,1745155668997275451
766048,357,203,-97,476,103,-8258,1745155668997275451
766240,642,252,-47,520,267,-8253,1745155668997275451
766432,597,245,-40,640,765,-7958,1745155668997275451
766624,301,160,-70,746,975,-7905,1745155668997275451
766816,112,147,-121,-197,-442,-8077,1745155668997275451
767008,-844,240,-242,-1309,-5098,-7993,1745155668997275451
767200,-534,427,-304,-1109,-3339,-8647,1745155668997275451
767392,-708,519,-242,21,-1695,-8093,1745155668997275451
767584,-833,499,-187,1077,110,-7974,1745155669046293077
767776,-820,466,-215,1896,1698,-8030,1745155669046293077
767968,-771,366,-311,2455,2536,-7828,1745155669046293077
768160,-589,211,-435,2619,3374,-8065,1745155669046293077
768352,-414,112,-430,2551,3351,-8295,1745155669046293077
768544,-257,22,-379,2323,3060,-8468,1745155669046293077
768736,-144,-87,-315,1979,2472,-8564,1745155669046293077
768928,-85,-157,-258,1578,1763,-8524,1745155669046293077
769120,-56,-200,-230,1185,1062,-8473,1745155669046293077
769312,-48,-213,-227,735,486,-8355,1745155669046293077
769504,-47,-170,-239,277,225,-8601,1745155669046293077
769696,-48,-92,-251,-2,154,-8421,1745155669046293077
769888,-82,2,-255,-124,55,-8143,1745155669124289239
770080,-123,71,-257,-64,-142,-8621,1745155669124289239
770272,-160,86,-252,177,-288,-8689,1745155669124289239
770464,-199,95,-242,522,-148,-8609,1745155669124289239
770656,-250,108,-241,870,163,-8728,1745155669124289239
770848,-309,114,-255,1165,475,-8775,1745155669124289239
771040,-346,104,-282,1323,742,-8743,1745155669124289239
771232,-348,90,-311,1312,978,-8863,1745155669124289239
771424,-315,86,-333,1142,1133,-9051,1745155669124289239
771616,-266,98,-343,920,1197,-9043,1745155669124289239
771808,-216,120,-348,790,1175,-9039,1745155669124289239
772000,-193,133,-349,788,1055,-8965,1745155669124289239
772192,-201,151,-354,799,862,-8865,1745155669169534555
772384,-234,166,-363,848,680,-8891,1745155669169534555
772576,-282,173,-371,951,488,-9015,1745155669169534555
772768,-340,162,-378,1112,353,-8954,1745155669169534555
772960,-397,136,-381,1270,328,-8973,1745155669169534555
773152,-442,96,-381,1406,485,-9121,1745155669169534555
773344,-488,56,-385,1535,747,-9448,1745155669169534555
773536,-550,18,-396,1690,981,-9905,1745155669169534555
773728,-613,-30,-405,1847,1280,-10365,1745155669169534555
773920,-665,-83,-404,2047,1550,-11001,1745155669169534555
774112,-699,-162,-405,2250,1722,-11454,1745155669169534555
774304,-703,-236,-404,2370,1672,-10916,1745155669169534555
774496,-690,-286,-388,2390,1345,-10191,1745155669221566371
774688,-658,-332,-369,2454,940,-9607,1745155669221566371
774880,-642,-381,-380,2464,894,-9429,1745155669221566371
775072,-706,-430,-412,2334,1212,-9295,1745155669221566371
775264,-826,-451,-440,2181,1641,-9038,1745155669221566371
775456,-939,-478,-448,2130,1967,-8652,1745155669221566371
775648,-1021,-528,-429,2210,2176,-8246,1745155669221566371
775840,-1069,-583,-365,2369,2252,-8183,1745155669221566371
776032,-1089,-636,-266,2602,2213,-8080,1745155669221566371
776224,-1071,-696,-157,2890,2098,-8193,1745155669221566371
776416,-1032,-754,-45,3238,2081,-8568,1745155669221566371
776608,-1015,-775,129,4068,2528,-8774,1745155669221566371
776800,-986,-840,352,4851,2600,-8989,1745155669281499418
776992,-806,-1054,483,5091,2555,-9538,1745155669281499418
777184,-545,-1315,484,4771,2392,-9534,1745155669281499418
777376,-292,-1504,432,4123,2091,-9557,1745155669281499418
777568,-105,-1602,380,3323,1604,-9535,1745155669281499418
777760,20,-1639,354,2564,938,-9445,1745155669281499418
777952,112,-1634,384,1935,285,-9471,1745155669281499418
778144,184,-1614,477,1685,-260,-9562,1745155669281499418
778336,227,-1601,591,1693,-544,-9710,1745155669281499418
778528,228,-1583,684,1755,-555,-9817,1745155669281499418
778720,199,-1561,738,1832,-357,-9741,1745155669281499418
778912,168,-1535,772,1908,-136,-9603,1745155669281499418
779104,154,-1513,807,2014,29,-9439,1745155669342876982
779296,168,-1515,853,2086,60,-9272,1745155669342876982
779488,210,-1538,914,2136,-29,-9137,1745155669342876982
779680,269,-1584,992,2139,-223,-9084,1745155669342876982
779872,330,-1643,1076,2071,-505,-8972,1745155669342876982
780064,376,-1694,1167,1888,-717,-8706,1745155669342876982
780256,408,-1728,1265,1610,-874,-8392,1745155669342876982
780448,432,-1720,1358,1270,-950,-8211,1745155669342876982
780640,445,-1708,1439,896,-982,-8174,1745155669342876982
780832,454,-1692,1511,524,-985,-8129,1745155669342876982
781024,452,-1635,1580,256,-994,-8174,1745155669342876982
781216,445,-1602,1656,142,-1035,-8154,1745155669342876982
781408,430,-1566,1743,186,-1068,-8018,1745155669403062422
781600,406,-1533,1839,253,-1090,-7872,1745155669403062422
781792,380,-1517,1933,294,-1032,-7730,1745155669403062422
781984,372,-1474,2022,290,-810,-7657,1745155669403062422
782176,383,-1433,2102,271,-465,-7496,1745155669403062422
782368,411,-1401,2176,272,-106,-7394,1745155669403062422
782560,457,-1389,2238,265,173,-7253,1745155669403062422
782752,513,-1378,2296,255,297,-7037,1745155669403062422
782944,586,-1361,2350,169,288,-6968,1745155669403062422
783136,663,-1347,2407,126,230,-6835,1745155669403062422
783328,744,-1332,2471,44,110,-6712,1745155669403062422
783520,828,-1316,2536,-25,38,-6623,1745155669403062422
783712,904,-1293,2597,-165,62,-6489,1745155669535909958
783904,969,-1255,2656,-310,170,-6374,1745155669535909958
784096,1027,-1203,2711,-451,268,-6278,1745155669535909958
784288,1080,-1139,2762,-569,388,-6069,1745155669535909958
784480,1130,-1060,2808,-571,536,-5944,1745155669535909958
784672,1176,-975,2855,-523,761,-5926,1745155669535909958
784864,1202,-891,2900,-407,992,-5843,1745155669535909958
785056,1210,-810,2939,-259,1139,-5540,1745155669535909958
785248,1214,-736,2978,-114,1193,-5326,1745155669535909958
785440,1226,-674,3017,-34,1208,-5096,1745155669535909958
785632,1246,-612,3054,-106,1227,-4837,1745155669535909958
785824,1267,-546,3094,-242,1259,-4747,1745155669535909958
786016,1287,-478,3132,-395,1260,-4710,1745155669543145257
786208,1308,-398,3171,-555,1216,-4633,1745155669543145257
786400,1326,-308,3211,-657,1088,-4558,1745155669543145257
786592,1341,-213,3251,-663,866,-4514,1745155669543145257
786784,1337,-118,3292,-616,736,-4648,1745155669543145257
786976,1271,-14,3367,-537,479,-4536,1745155669543145257
787168,1271,104,3411,-435,366,-4103,1745155669543145257
787360,1188,203,3422,-329,728,-4157,1745155669543145257
787552,1143,318,3457,-10,972,-3972,1745155669543145257
787744,1087,405,3426,331,1546,-3869,1745155669543145257
787936,978,476,3400,687,2047,-3828,1745155669543145257
788128,863,560,3410,1091,2269,-3593,1745155669543145257
788320,744,646,3383,1283,2352,-3275,1745155669583680043
788512,599,725,3350,1271,2441,-3292,1745155669583680043
788704,420,832,3360,1140,2258,-3046,1745155669583680043
788896,243,975,3358,1051,2094,-2979,1745155669583680043
789088,39,1148,3349,826,1889,-2793,1745155669583680043
789280,-139,1343,3357,728,1780,-2378,1745155669583680043
789472,-278,1547,3351,779,1846,-2078,1745155669583680043
789664,-418,1756,3326,982,2074,-1891,1745155669583680043
789856,-557,1962,3298,1245,2442,-1697,1745155669583680043
790048,-665,2168,3274,1559,3015,-1427,1745155669583680043
790240,-729,2383,3256,1882,3759,-1297,1745155669583680043
790432,-746,2599,3224,2318,4493,-1228,1745155669583680043
790624,-691,2809,3163,2531,5533,-1346,1745155669632206891
790816,-592,3022,3113,2752,6346,-1459,1745155669632206891
791008,-442,3232,3041,2916,7222,-1578,1745155669632206891
791200,-263,3441,2984,3210,7707,-1664,1745155669632206891
791392,-42,3642,2892,3528,8154,-1802,1745155669632206891
791584,189,3842,2789,3882,8405,-1910,1745155669632206891
791776,408,4040,2693,4127,8727,-2031,1745155669632206891
791968,613,4232,2650,4534,8542,-2030,1745155669632206891
792160,838,4404,2557,4880,8574,-1937,1745155669632206891
792352,1054,4554,2441,5125,8601,-1854,1745155669632206891
792544,1255,4690,2334,5302,8591,-1706,1745155669632206891
792736,1445,4824,2225,5529,8536,-1485,1745155669632206891
792928,1632,4950,2109,5754,8243,-1333,1745155669689492409
793120,1813,5068,1974,6055,7780,-1214,1745155669689492409
793312,1991,5159,1824,6316,7182,-1162,1745155669689492409
793504,2158,5232,1671,6627,6614,-1176,1745155669689492409
793696,2312,5291,1504,7028,5959,-1316,1745155669689492409
793888,2430,5295,1347,7356,5768,-1639,1745155669689492409
794080,2520,5291,1191,7758,5331,-2047,1745155669689492409
794272,2567,5293,968,8225,5633,-2579,1745155669689492409
794464,2559,5317,718,8658,5769,-3031,1745155669689492409
794656,2544,5346,442,9016,5937,-3400,1745155669689492409
794848,2555,5377,171,9274,5972,-3743,1745155669689492409
795040,2589,5384,-55,9407,5989,-4087,1745155669689492409
795232,2618,5376,-217,9448,5975,-4349,1745155669749667485
795424,2647,5368,-323,9529,5925,-4316,1745155669749667485
795616,2695,5342,-442,9749,5782,-4317,1745155669749667485
795808,2741,5353,-600,9936,5851,-4462,1745155669749667485
796000,2788,5423,-777,10110,5581,-4281,1745155669749667485
796192,2813,5441,-947,10380,5453,-4359,1745155669749667485
796384,2800,5462,-1066,10686,5153,-4317,1745155669749667485
796576,2751,5456,-1142,10843,4609,-3126,1745155669749667485
796768,2841,5256,-1283,11552,3714,-2895,1745155669749667485
796960,2950,5046,-1566,11515,4114,-3201,1745155669749667485
797152,2948,4925,-1735,11641,3825,-3312,1745155669749667485
797344,2916,4807,-1886,11671,3527,-3355,1745155669749667485
797536,2899,4701,-2023,11623,3289,-3274,1745155669808705591
797728,2902,4606,-2127,11621,3050,-3114,1745155669808705591
797920,2905,4514,-2225,11691,2755,-3158,1745155669808705591
798112,2881,4421,-2345,11699,2446,-3378,1745155669808705591
798304,2840,4336,-2470,11697,2144,-3414,1745155669808705591
798496,2810,4260,-2580,11743,1921,-3240,1745155669808705591
798688,2773,4203,-2672,11783,1791,-2972,1745155669808705591
798880,2703,4149,-2753,11859,1780,-2665,1745155669808705591
799072,2596,4097,-2830,11929,1835,-2516,1745155669808705591
799264,2465,4056,-2903,11990,1940,-2409,1745155669808705591
799456,2332,4010,-2963,12048,2066,-2108,1745155669808705591
799648,2228,3952,-2991,12166,2183,-1739,1745155669808705591
799840,2165,3884,-3011,12348,2203,-1549,1745155669864522477
800032,2120,3812,-3051,12505,2066,-1475,1745155669864522477
800224,2064,3740,-3117,12479,1992,-1385,1745155669864522477
800416,2000,3641,-3119,12499,1997,-1377,1745155669864522477
800608,1929,3527,-3055,12685,1857,-1339,1745155669864522477
800800,1850,3408,-3003,12893,1613,-1166,1745155669864522477
800992,1776,3283,-2986,13017,1239,-710,1745155669864522477
801184,1768,3151,-3027,13008,1074,-468,1745155669864522477
801376,1761,3029,-3075,12840,1207,-765,1745155669864522477
801568,1730,2926,-3097,12677,1329,-1305,1745155669864522477
801760,1654,2830,-3137,12627,1439,-1623,1745155669864522477
801952,1537,2709,-3199,12472,1740,-1902,1745155669864522477
802144,1418,2592,-3199,12227,2235,-1868,1745155669944506746
802336,1316,2496,-3119,12055,2840,-1744,1745155669944506746
802528,1225,2424,-3020,11951,3240,-1745,1745155669944506746
802720,1144,2363,-2962,11842,3448,-1637,1745155669944506746
802912,1090,2286,-2934,11633,3611,-1401,1745155669944506746
803104,1076,2208,-2883,11354,3713,-1211,1745155669944506746
803296,1094,2133,-2809,11181,3662,-1041,1745155669944506746
803488,1137,2055,-2735,11115,3473,-951,1745155669944506746
803680,1185,1970,-2677,11026,3188,-867,1745155669944506746
803872,1232,1874,-2625,10907,3016,-774,1745155669944506746
804064,1262,1780,-2567,10751,2970,-618,1745155669944506746
804256,1257,1700,-2526,10609,2856,-422,1745155669944506746
804448,1225,1625,-2512,10432,2983,-508,1745155670006070767
804640,1144,1555,-2492,10406,3011,-584,1745155670006070767
804832,1043,1462,-2474,10389,3027,-451,1745155670006070767
805024,949,1364,-2463,10351,3039,-264,1745155670006070767
805216,867,1271,-2453,10213,3244,-289,1745155670006070767
805408,777,1199,-2423,10014,3473,-405,1745155670006070767
805600,692,1146,-2391,9817,3679,-405,1745155670006070767
805792,630,1078,-2359,9648,3789,-208,1745155670006070767
805984,624,987,-2336,9643,3871,-185,1745155670006070767
806176,606,902,-2325,9535,3985,-74,1745155670006070767
806368,564,834,-2282,9420,4073,-9,1745155670006070767
806560,515,765,-2216,9338,4147,-68,1745155670006070767
806752,460,687,-2149,9258,4097,-199,1745155670037324544
806944,414,583,-2113,9236,3962,-323,1745155670037324544
807136,371,483,-2103,9076,3858,-449,1745155670037324544
807328,331,407,-2087,8857,3853,-565,1745155670037324544
807520,287,325,-2083,8908,3633,-624,1745155670037324544
807712,221,275,-2086,8344,3951,-526,1745155670037324544
807904,173,229,-2014,8237,4048,-577,1745155670037324544
808096,147,168,-1989,8227,4091,-625,1745155670037324544
808288,111,119,-1992,8126,4202,-619,1745155670037324544
808480,71,68,-1971,8076,4300,-593,1745155670037324544
808672,16,20,-1932,7931,4380,-557,1745155670037324544
808864,-33,-22,-1889,7726,4519,-509,1745155670037324544
809056,-82,-56,-1849,7504,4652,-489,1745155670101661144
809248,-120,-83,-1813,7321,4793,-342,1745155670101661144
809440,-138,-96,-1779,7188,4978,-255,1745155670101661144
809632,-137,-107,-1748,7156,5070,-232,1745155670101661144
809824,-119,-133,-1714,7279,5175,-283,1745155670101661144
810016,-93,-162,-1685,7372,4937,-310,1745155670101661144
810208,-90,-184,-1679,7405,4702,-487,1745155670101661144
810400,-97,-210,-1657,7442,4614,-427,1745155670101661144
810592,-102,-242,-1622,7378,4683,-322,1745155670101661144
810784,-105,-278,-1598,7362,4777,-172,1745155670101661144
810976,-97,-328,-1582,7289,4861,-123,1745155670101661144
811168,-101,-370,-1565,7165,4819,-75,1745155670101661144
811360,-137,-418,-1533,6921,4833,146,1745155670159820457
811552,-170,-423,-1501,6580,5116,127,1745155670159820457
811744,-208,-437,-1480,6264,5294,200,1745155670159820457
811936,-234,-447,-1462,6052,5497,397,1745155670159820457
812128,-227,-452,-1458,5835,5554,386,1745155670159820457
812320,-226,-465,-1449,5883,5087,595,1745155670159820457
812512,-212,-481,-1555,5674,4990,616,1745155670159820457
812704,-191,-482,-1670,5345,5472,624,1745155670159820457
812896,-177,-466,-1661,5108,5753,510,1745155670159820457
813088,-178,-436,-1574,5003,6231,648,1745155670159820457
813280,-162,-417,-1466,5183,6296,626,1745155670159820457
813472,-159,-407,-1422,5399,6279,781,1745155670159820457
813664,-134,-406,-1392,5381,6566,712,1745155670215010994
813856,-108,-410,-1304,5640,6431,859,1745155670215010994
814048,-99,-415,-1275,5693,6551,794,1745155670215010994
814240,-101,-423,-1244,5669,6674,876,1745155670215010994
814432,-96,-436,-1211,5700,6734,939,1745155670215010994
814624,-86,-452,-1189,5736,6651,1046,1745155670215010994
814816,-76,-473,-1175,5712,6586,1192,1745155670215010994
815008,-72,-491,-1159,5561,6563,1309,1745155670215010994
815200,-80,-502,-1141,5357,6572,1342,1745155670215010994
815392,-94,-515,-1125,5300,6551,1375,1745155670215010994
815584,-110,-528,-1130,5295,6456,1386,1745155670215010994
815776,-134,-533,-1139,5189,6425,1450,1745155670215010994
815968,-160,-538,-1128,5134,6447,1496,1745155670306299379
816160,-189,-545,-1117,5139,6462,1418,1745155670306299379
816352,-222,-542,-1112,5097,6529,1357,1745155670306299379
816544,-253,-524,-1106,5060,6697,1362,1745155670306299379
816736,-272,-499,-1089,5120,7003,1353,1745155670306299379
816928,-277,-478,-1080,5091,7298,1205,1745155670306299379
817120,-269,-462,-1062,5262,7366,1139,1745155670306299379
817312,-254,-445,-1070,5385,7455,1034,1745155670306299379
817504,-235,-449,-1081,5419,7550,1086,1745155670306299379
817696,-203,-457,-1083,5427,7506,1032,1745155670306299379
817888,-165,-478,-1085,5403,7163,1046,1745155670306299379
818080,-130,-497,-1076,5280,7013,941,1745155670306299379
818272,-100,-517,-1064,5209,6830,939,1745155670335979108
818464,-81,-535,-1068,5087,6738,1022,1745155670335979108
818656,-81,-539,-1064,4891,6835,1140,1745155670335979108
818848,-100,-535,-1043,4580,7138,1319,1745155670335979108
819040,-114,-517,-1013,4440,7126,1315,1745155670335979108
819232,-129,-501,-994,4405,7214,1374,1745155670335979108
819424,-127,-477,-962,4478,7121,1351,1745155670335979108
819616,-124,-460,-940,4835,6691,1160,1745155670335979108
819808,-148,-473,-919,4845,6594,1236,1745155670335979108
820000,-170,-558,-901,5005,6139,1343,1745155670335979108
820192,-195,-557,-885,4930,6232,226,1745155670335979108
820384,-224,-483,-831,4740,6373,841,1745155670335979108
820576,-228,-486,-781,4503,6820,1005,1745155670405527900
820768,-228,-469,-738,4383,6934,1135,1745155670405527900
820960,-213,-457,-710,4405,6701,1269,1745155670405527900
821152,-192,-449,-687,4495,6684,1210,1745155670405527900
821344,-163,-448,-657,4457,6840,1302,1745155670405527900
821536,-124,-462,-620,4572,6517,1275,1745155670405527900
821728,-94,-485,-595,4509,6320,1416,1745155670405527900
821920,-63,-499,-576,4344,6431,1474,1745155670405527900
822112,-49,-509,-564,4221,6469,1572,1745155670405527900
822304,-36,-514,-549,4095,6494,1525,1745155670405527900
822496,-42,-510,-524,4010,6488,1394,1745155670405527900
822688,-62,-502,-496,3996,6370,1274,1745155670405527900
822880,-84,-499,-471,4052,6368,1143,1745155670448982242
823072,-101,-493,-446,3901,6483,1054,1745155670448982242
823264,-117,-486,-389,3823,6552,1024,1745155670448982242
823456,-137,-482,-343,3837,6579,1098,1745155670448982242
823648,-159,-471,-320,3718,6667,1116,1745155670448982242
823840,-184,-456,-290,3676,6659,1055,1745155670448982242
824032,-202,-445,-254,3622,6678,1042,1745155670448982242
824224,-204,-440,-209,3563,6744,1030,1745155670448982242
824416,-204,-435,-173,3519,6797,1108,1745155670448982242
824608,-194,-437,-145,3461,6918,1190,1745155670448982242
824800,-184,-437,-120,3363,7088,1280,1745155670448982242
824992,-172,-435,-97,3299,7211,1351,1745155670448982242
825184,-150,-432,-78,3242,7270,1474,1745155670525928154
825376,-126,-429,-63,3218,7336,1545,1745155670525928154
825568,-124,-426,-54,3176,7310,1656,1745155670525928154
825760,-125,-422,-50,3096,7332,1763,1745155670525928154
825952,-128,-420,-45,2984,7294,1905,1745155670525928154
826144,-122,-415,-50,2913,7265,1980,1745155670525928154
826336,-118,-407,-70,2825,7242,1919,1745155670525928154
826528,-136,-395,-76,2682,7112,1856,1745155670525928154
826720,-156,-368,-68,2581,7109,1809,1745155670525928154
826912,-168,-331,-66,2449,7227,1750,1745155670525928154
827104,-170,-297,-65,2406,7361,1725,1745155670525928154
827296,-159,-269,-63,2364,7566,1744,1745155670525928154
827488,-146,-232,-51,2312,7725,1792,1745155670565623104
827680,-132,-194,-46,2399,7751,1794,1745155670565623104
827872,-116,-173,-42,2449,7695,1874,1745155670565623104
828064,-93,-157,-31,2477,7588,1964,1745155670565623104
828256,-68,-146,-26,2432,7475,2000,1745155670565623104
828448,-53,-135,-23,2381,7376,2034,1745155670565623104
828640,-40,-128,-20,2347,7262,2007,1745155670565623104
828832,-36,-118,-13,2285,7149,1940,1745155670565623104
829024,-33,-100,2,2266,7109,1931,1745155670565623104
829216,-32,-85,10,2308,7103,1795,1745155670565623104
829408,-36,-73,8,2347,7120,1680,1745155670565623104
829600,-37,-61,9,2427,7157,1555,1745155670565623104
829792,-37,-52,13,2515,7179,1418,1745155670656043007
829984,-38,-52,17,2599,7208,1342,1745155670656043007
830176,-42,-52,26,2614,7266,1234,1745155670656043007
830368,-58,-50,36,2609,7310,1200,1745155670656043007
830560,-76,-47,47,2545,7400,1216,1745155670656043007
830752,-90,-34,55,2492,7484,1224,1745155670656043007
830944,-92,-18,64,2443,7559,1212,1745155670656043007
831136,-86,-5,74,2502,7643,1207,1745155670656043007
831328,-78,3,84,2561,7720,1220,1745155670656043007
831520,-72,9,93,2621,7749,1287,1745155670656043007
831712,-55,11,98,2663,7848,1296,1745155670656043007
831904,-33,8,98,2695,7939,1325,1745155670656043007
832096,-10,-2,92,2688,7944,1322,1745155670683194530
832288,17,-9,88,2713,7918,1313,1745155670683194530
832480,43,-20,83,2728,7826,1296,1745155670683194530
832672,59,-31,76,2727,7743,1283,1745155670683194530
832864,67,-37,70,2743,7682,1230,1745155670683194530
833056,62,-41,69,2771,7616,1169,1745155670683194530
833248,52,-46,70,2775,7605,1093,1745155670683194530
833440,39,-46,73,2825,7583,1126,1745155670683194530
833632,24,-54,72,2889,7574,1074,1745155670683194530
833824,1,-58,66,2862,7629,997,1745155670683194530
834016,-30,-58,68,2840,7680,967,1745155670683194530
834208,-54,-50,71,2806,7795,976,1745155670683194530
834400,-66,-44,76,2740,7920,1000,1745155670745177766
834592,-60,-35,78,2730,8061,1027,1745155670745177766
834784,-40,-29,84,2744,8163,1091,1745155670745177766
834976,-11,-25,92,2788,8224,1144,1745155670745177766
835168,19,-29,97,2840,8196,1151,1745155670745177766
835360,48,-42,99,2854,8093,1193,1745155670745177766
835552,73,-53,99,2800,7970,1205,1745155670745177766
835744,86,-62,98,2756,7864,1187,1745155670745177766
835936,91,-66,99,2737,7774,1178,1745155670745177766
836128,96,-64,95,2701,7708,1139,1745155670745177766
836320,93,-60,96,2736,7616,1095,1745155670745177766
836512,80,-60,94,2778,7483,1097,1745155670745177766
836704,68,-67,95,2821,7386,1126,1745155670823303875
836896,45,-82,99,2818,7314,1164,1745155670823303875
837088,17,-95,101,2737,7339,1222,1745155670823303875
837280,-15,-97,103,2592,7488,1261,1745155670823303875
837472,-43,-85,104,2474,7651,1346,1745155670823303875
837664,-50,-69,105,2444,7832,1404,1745155670823303875
837856,-53,-59,109,2451,7905,1402,1745155670823303875
838048,-60,-52,108,2520,7889,1314,1745155670823303875
838240,-65,-48,100,2549,7891,1266,1745155670823303875
838432,-64,-43,92,2561,7968,1236,1745155670823303875
838624,-50,-43,81,2600,8085,1187,1745155670823303875
838816,-34,-45,71,2642,8152,1089,1745155670823303875
839008,-19,-53,64,2700,8167,1059,1745155670863842880
839200,-7,-59,62,2703,8204,1007,1745155670863842880
839392,-1,-66,58,2690,8197,958,1745155670863842880
839584,1,-76,51,2689,8169,965,1745155670863842880
839776,-3,-85,45,2678,8106,985,1745155670863842880
839968,-17,-90,41,2667,7985,982,1745155670863842880
840160,-40,-95,40,2685,7815,1003,1745155670863842880
840352,-59,-103,35,2716,7729,1006,1745155670863842880
840544,-74,-110,29,2747,7651,1018,1745155670863842880
840736,-89,-117,22,2803,7651,1105,1745155670863842880
840928,-105,-122,21,2838,7717,1164,1745155670863842880
841120,-116,-121,20,2782,7872,1190,1745155670863842880
841312,-111,-118,25,2776,7990,1229,1745155670917045623
841504,-93,-117,24,2820,8057,1177,1745155670917045623
841696,-74,-119,18,2900,8026,1096,1745155670917045623
841888,-56,-124,15,3002,7933,1051,1745155670917045623
842080,-37,-129,14,3034,7847,1005,1745155670917045623
842272,-23,-131,12,3102,7834,1051,1745155670917045623
842464,-9,-141,1,3063,7821,1020,1745155670917045623
842656,-8,-152,-1,3055,7773,1041,1745155670917045623
842848,-12,-160,-1,3043,7724,1094,1745155670917045623
843040,-24,-160,0,2997,7739,1111,1745155670917045623
843232,-40,-155,5,3004,7787,1139,1745155670917045623
843424,-57,-143,6,2995,7804,1169,1745155670917045623
843616,-72,-131,7,3007,7811,1177,1745155670981770500
843808,-82,-116,10,3007,7822,1224,1745155670981770500
844000,-78,-105,12,3055,7831,1314,1745155670981770500
844192,-65,-93,12,3084,7776,1382,1745155670981770500
844384,-47,-84,12,3099,7727,1443,1745155670981770500
844576,-31,-73,17,3102,7636,1507,1745155670981770500
844768,-16,-61,29,3101,7540,1556,1745155670981770500
844960,-2,-46,38,3091,7417,1595,1745155670981770500
845152,15,-33,48,3080,7252,1666,1745155670981770500
845344,27,-19,58,3124,7120,1726,1745155670981770500
845536,33,-4,67,3207,6987,1807,1745155670981770500
845728,34,11,76,3273,6873,1823,1745155670981770500
845920,33,27,86,3326,6757,1808,1745155671061885497
846112,33,46,98,3358,6698,1816,1745155671061885497
846304,38,62,117,3399,6647,1814,1745155671061885497
846496,45,81,139,3441,6539,1779,1745155671061885497
846688,52,95,164,3669,6402,1685,1745155671061885497
846880,60,97,193,3711,6208,1797,1745155671061885497
847072,75,127,231,3667,6197,1621,1745155671061885497
847264,64,146,263,3758,5960,1627,1745155671061885497
847456,56,171,298,3826,5720,1595,1745155671061885497
847648,54,193,354,3932,5567,1587,1745155671061885497
847840,42,221,412,4059,5507,1612,1745155671061885497
848032,28,241,462,4174,5495,1667,1745155671061885497
848224,24,262,513,4224,5552,1706,1745155671097341111
848416,31,287,566,4307,5606,1707,1745155671097341111
848608,44,305,616,4462,5560,1680,1745155671097341111
848800,72,317,664,4617,5474,1584,1745155671097341111
848992,97,323,709,4785,5291,1460,1745155671097341111
849184,110,322,757,4990,5027,1254,1745155671097341111
849376,113,332,815,5164,4782,1070,1745155671097341111
849568,112,350,874,5202,4575,1289,1745155671097341111
849760,115,309,933,5301,4428,1049,1745155671097341111
849952,102,291,1005,5350,4244,977,1745155671097341111
850144,75,286,1082,5416,4022,919,1745155671097341111
850336,34,280,1168,5492,3785,954,1745155671097341111
850528,-23,264,1256,5512,3590,982,1745155671209706647
850720,-102,246,1343,5571,3341,975,1745155671209706647
850912,-199,229,1429,5588,3039,954,1745155671209706647
851104,-315,214,1526,5645,2725,1014,1745155671209706647
851296,-425,207,1619,5834,2614,1262,1745155671209706647
851488,-483,189,1690,5933,2497,1302,1745155671209706647
851680,-490,164,1768,6080,2475,1385,1745155671209706647
851872,-673,109,1850,6299,2052,1268,1745155671209706647
852064,-778,43,1931,6795,1746,1101,1745155671209706647
852256,-885,-30,1976,7191,1419,954,1745155671209706647
852448,-989,-121,2030,7623,1328,796,1745155671209706647
852640,-1098,-214,2115,7835,1335,454,1745155671209706647
852832,-1255,-300,2229,8088,1372,567,1745155671226431703
853024,-1394,-402,2327,8353,1685,701,1745155671226431703
853216,-1567,-503,2417,8555,1815,710,1745155671226431703
853408,-1778,-619,2498,8827,1840,923,1745155671226431703
853600,-1992,-757,2574,9120,2141,1197,1745155671226431703
853792,-2139,-824,2652,8809,2836,1570,1745155671226431703
853984,-2237,-851,2739,8746,3597,1582,1745155671226431703
854176,-2260,-921,2822,8671,4531,1869,1745155671226431703
854368,-2231,-941,2919,8706,5246,1706,1745155671226431703
854560,-2099,-980,3020,8645,6056,1559,1745155671226431703
854752,-2013,-1001,3203,9215,6106,1506,1745155671226431703
854944,-1866,-1093,3322,9663,5958,1231,1745155671226431703
855136,-1661,-1210,3365,10573,4860,1000,1745155671273792676
855328,-1504,-1355,3157,10697,4960,635,1745155671273792676
855520,-1400,-1476,3016,10756,4486,461,1745155671273792676
855712,-1301,-1621,2986,10647,4199,422,1745155671273792676
855904,-1257,-1784,2989,10648,4091,527,1745155671273792676
856096,-1275,-1921,2978,10399,4105,538,1745155671273792676
856288,-1362,-2014,2978,10170,4089,550,1745155671273792676
856480,-1506,-2073,2972,10332,4032,516,1745155671273792676
856672,-1666,-2123,2938,10426,3935,578,1745155671273792676
856864,-1810,-2177,2927,10669,3913,392,1745155671273792676
857056,-1965,-2208,2930,10949,3954,205,1745155671273792676
857248,-2103,-2217,2949,11263,4233,185,1745155671273792676
857440,-2215,-2241,2990,11741,4638,173,1745155671380382380
857632,-2300,-2238,3020,11977,5010,-115,1745155671380382380
857824,-2390,-2303,3044,12584,5395,376,1745155671380382380
858016,-2398,-2467,3049,13248,5629,800,1745155671380382380
858208,-2375,-2614,2952,13641,5420,753,1745155671380382380
858400,-2405,-2748,2758,13452,5163,389,1745155671380382380
858592,-2500,-2887,2597,13094,4807,319,1745155671380382380
858784,-2597,-2990,2523,12610,4780,422,1745155671380382380
858976,-2649,-3093,2520,12336,5003,699,1745155671380382380
859168,-2679,-3185,2511,12254,5502,903,1745155671380382380
859360,-2719,-3238,2449,12191,5794,685,1745155671380382380
859552,-2797,-3250,2309,12122,6008,332,1745155671380382380
859744,-2862,-3270,2171,12232,6089,2,1745155671387746739
859936,-2883,-3321,2052,12430,5997,-295,1745155671387746739
860128,-2864,-3392,1950,12414,6116,-385,1745155671387746739
860320,-2821,-3457,1865,12369,6281,-487,1745155671387746739
860512,-2789,-3507,1765,12314,6572,-776,1745155671387746739
860704,-2771,-3507,1615,12075,6636,-1412,1745155671387746739
860896,-2745,-3546,1487,11672,6611,-1341,1745155671387746739
861088,-2626,-3615,1419,11399,6544,-602,1745155671387746739
861280,-2471,-3696,1354,11344,6393,-105,1745155671387746739
861472,-2381,-3726,1226,11024,6179,259,1745155671387746739
861664,-2340,-3712,1071,10601,5936,259,1745155671387746739
861856,-2314,-3690,937,10315,5546,22,1745155671387746739
862048,-2276,-3650,828,10103,5100,-321,1745155671476290826
862240,-2225,-3615,721,10038,4838,-770,1745155671476290826
862432,-2179,-3581,598,10082,4674,-1313,1745155671476290826
862624,-2148,-3563,466,10132,4893,-1873,1745155671476290826
862816,-2108,-3523,344,10185,5218,-2315,1745155671476290826
863008,-2052,-3512,233,10096,5974,-2560,1745155671476290826
863200,-1964,-3483,151,10060,6573,-2806,1745155671476290826
863392,-1854,-3468,41,9998,7090,-2891,1745155671476290826
863584,-1697,-3478,-81,9936,7574,-2700,1745155671476290826
863776,-1513,-3509,-193,9893,7944,-2511,1745155671476290826
863968,-1287,-3545,-306,9906,8090,-2393,1745155671476290826
864160,-1067,-3584,-421,9733,8224,-2169,1745155671476290826
864352,-872,-3639,-486,9475,8179,-1726,1745155671523978255
864544,-712,-3681,-522,9326,7856,-1213,1745155671523978255
864736,-544,-3735,-538,9109,7472,-834,1745155671523978255
864928,-401,-3784,-545,8940,7183,-644,1745155671523978255
865120,-311,-3815,-588,8940,6983,-826,1745155671523978255
865312,-303,-3836,-692,8844,6617,-1094,1745155671523978255
865504,-316,-3838,-835,8658,6149,-1397,1745155671523978255
865696,-323,-3842,-969,8357,5691,-1455,1745155671523978255
865888,-304,-3822,-1074,8030,5462,-1684,1745155671523978255
866080,-296,-3784,-1168,7873,5708,-1864,1745155671523978255
866272,-312,-3724,-1308,7786,6260,-2115,1745155671523978255
866464,-381,-3668,-1497,7573,6864,-2386,1745155671523978255
866656,-462,-3609,-1680,7349,7874,-2243,1745155671566450003
866848,-495,-3549,-1808,7292,8666,-2286,1745155671566450003
867040,-502,-3499,-1943,7253,9274,-2189,1745155671566450003
867232,-466,-3431,-2122,7228,9938,-2236,1745155671566450003
867424,-434,-3377,-2279,7223,10440,-2153,1745155671566450003
867616,-399,-3330,-2362,7103,10951,-2037,1745155671566450003
867808,-344,-3290,-2364,7263,10460,-1774,1745155671566450003
868000,-238,-3249,-2459,7218,10468,-1542,1745155671566450003
868192,-90,-3192,-2571,7020,10415,-1487,1745155671566450003
868384,71,-3124,-2668,6843,10470,-1232,1745155671566450003
868576,232,-3040,-2765,6771,10515,-1299,1745155671566450003
868768,401,-2970,-2860,6809,10706,-1452,1745155671566450003
868960,576,-2903,-2962,6750,10859,-1485,1745155671626636745
869152,750,-2846,-3059,6626,10774,-1453,1745155671626636745
869344,910,-2786,-3146,6413,10527,-1422,1745155671626636745
869536,1058,-2725,-3211,5991,9784,-1676,1745155671626636745
869728,1178,-2656,-3216,5696,9288,-1677,1745155671626636745
869920,1228,-2546,-3259,5536,9038,-1828,1745155671626636745
870112,1224,-2465,-3350,5316,8529,-1857,1745155671626636745
870304,1221,-2382,-3430,5129,8006,-1629,1745155671626636745
870496,1215,-2311,-3495,4936,7178,-1817,1745155671626636745
870688,1162,-2253,-3522,4609,6603,-1850,1745155671626636745
870880,1065,-2171,-3513,4388,6455,-1803,1745155671626636745
871072,960,-2077,-3517,4250,6145,-1855,1745155671626636745
871264,866,-1985,-3548,4112,5673,-1934,1745155671681789158
871456,777,-1915,-3567,3825,5571,-1810,1745155671681789158
871648,744,-1827,-3547,3587,5910,-1854,1745155671681789158
871840,746,-1728,-3538,3510,5890,-2034,1745155671681789158
872032,736,-1635,-3571,3518,5890,-1859,1745155671681789158
872224,756,-1562,-3595,3406,6155,-1956,1745155671681789158
872416,799,-1495,-3589,3618,5662,-2437,1745155671681789158
872608,827,-1437,-3609,3610,5511,-2303,1745155671681789158
872800,907,-1382,-3621,3250,5859,-2256,1745155671681789158
872992,1034,-1313,-3575,2954,6059,-2371,1745155671681789158
873184,1172,-1244,-3518,2845,5966,-2644,1745155671681789158
873376,1271,-1193,-3482,2854,5699,-2662,1745155671681789158
873568,1345,-1156,-3461,2838,5317,-2550,1745155671772558120
873760,1422,-1105,-3454,2608,5092,-2629,1745155671772558120
873952,1499,-1026,-3436,2486,4669,-2874,1745155671772558120
874144,1559,-946,-3416,2407,4421,-2869,1745155671772558120
874336,1590,-872,-3390,2323,4120,-3057,1745155671772558120
874528,1584,-796,-3375,2139,3910,-3255,1745155671772558120
874720,1593,-725,-3336,1934,3675,-3401,1745155671772558120
874912,1601,-652,-3264,1766,3451,-3346,1745155671772558120
875104,1636,-564,-3188,1674,3401,-3330,1745155671772558120
875296,1681,-490,-3121,1540,3368,-3346,1745155671772558120
875488,1724,-429,-3066,1431,3330,-3445,1745155671772558120
875680,1754,-361,-3027,1387,3229,-3458,1745155671772558120
875872,1779,-297,-3002,1405,2994,-3421,1745155671794482607
876064,1809,-248,-2983,1337,2727,-3324,1745155671794482607
876256,1854,-195,-2954,1255,2488,-3240,1745155671794482607
876448,1898,-131,-2918,1147,2307,-3359,1745155671794482607
876640,1932,-55,-2887,945,2229,-3570,1745155671794482607
876832,1970,24,-2851,835,2247,-3759,1745155671794482607
877024,1998,95,-2814,861,2338,-3833,1745155671794482607
877216,2004,166,-2770,891,2398,-3897,1745155671794482607
877408,1993,245,-2716,983,2400,-3909,1745155671794482607
877600,1970,311,-2656,1091,2287,-4024,1745155671794482607
877792,1936,357,-2595,1242,2149,-4180,1745155671794482607
877984,1882,393,-2536,1313,2022,-4244,1745155671794482607
878176,1810,423,-2470,1299,1898,-4308,1745155671876833782
878368,1716,451,-2400,1356,1706,-4340,1745155671876833782
878560,1615,468,-2344,1516,1358,-4209,1745155671876833782
878752,1559,470,-2317,1330,1210,-4444,1745155671876833782
878944,1440,487,-2254,1036,1062,-4643,1745155671876833782
879136,1287,518,-2162,889,859,-4778,1745155671876833782
879328,1139,544,-2049,681,484,-4870,1745155671876833782
879520,995,565,-1923,613,88,-4882,1745155671876833782
879712,884,591,-1832,628,-296,-5065,1745155671876833782
879904,788,613,-1774,615,-605,-5279,1745155671876833782
880096,702,642,-1742,588,-811,-5443,1745155671876833782
880288,611,679,-1728,556,-865,-5643,1745155671876833782
880480,514,727,-1708,515,-768,-5864,1745155671939444096
880672,424,785,-1689,552,-575,-6073,1745155671939444096
880864,331,841,-1683,550,-369,-6266,1745155671939444096
881056,239,902,-1675,558,79,-6484,1745155671939444096
881248,168,959,-1650,677,621,-6625,1745155671939444096
881440,131,992,-1633,940,1297,-6909,1745155671939444096
881632,108,1031,-1629,1240,1939,-7247,1745155671939444096
881824,97,1081,-1635,1551,2471,-7536,1745155671939444096
882016,112,1123,-1627,1826,2843,-7689,1745155671939444096
882208,159,1139,-1602,2151,2980,-7804,1745155671939444096
882400,236,1122,-1566,2413,2896,-7904,1745155671939444096
882592,333,1076,-1512,2554,2712,-8041,1745155671939444096
882784,412,1009,-1443,2687,2361,-8223,1745155671983151978
882976,465,944,-1378,2757,1898,-8305,1745155671983151978
883168,504,878,-1326,2729,1400,-8330,1745155671983151978
883360,522,829,-1284,2639,936,-8314,1745155671983151978
883552,517,815,-1242,2442,614,-8256,1745155671983151978
883744,484,823,-1150,2249,364,-8232,1745155671983151978
883936,407,837,-1022,2225,-176,-8125,1745155671983151978
884128,324,834,-947,2442,-1216,-7718,1745155671983151978
884320,296,790,-1057,2219,-722,-7536,1745155671983151978
884512,181,712,-1143,2253,-874,-7932,1745155671983151978
884704,80,697,-1176,2241,-744,-8122,1745155671983151978
884896,-40,710,-1218,2234,-544,-8193,1745155671983151978
885088,-154,725,-1252,2212,-211,-8318,1745155672045181098
885280,-232,746,-1266,2228,164,-8424,1745155672045181098
885472,-276,755,-1257,2272,534,-8512,1745155672045181098
885664,-286,748,-1225,2380,850,-8574,1745155672045181098
885856,-262,733,-1178,2557,1067,-8799,1745155672045181098
886048,-228,739,-1121,2803,1207,-8900,1745155672045181098
886240,-170,728,-1072,3068,1260,-8789,1745155672045181098
886432,-104,683,-1035,3310,1226,-8867,1745155672045181098
886624,-53,625,-1000,3492,1096,-8824,1745155672045181098
886816,-5,554,-966,3620,891,-8776,1745155672045181098
887008,34,479,-934,3654,634,-8698,1745155672045181098
887200,70,403,-903,3543,403,-8618,1745155672045181098
887392,82,338,-864,3390,191,-8544,1745155672097952335
887584,84,277,-820,3157,29,-8465,1745155672097952335
887776,66,228,-769,2902,-85,-8449,1745155672097952335
887968,44,192,-711,2651,-168,-8388,1745155672097952335
888160,21,176,-649,2467,-277,-8330,1745155672097952335
888352,-3,177,-596,2303,-343,-8280,1745155672097952335
888544,-28,187,-548,2187,-326,-8407,1745155672097952335
888736,-70,211,-502,2141,-284,-8490,1745155672097952335
888928,-107,248,-461,2149,-180,-8535,1745155672097952335
889120,-138,293,-429,2263,19,-8548,1745155672097952335
889312,-168,332,-406,2409,221,-8547,1745155672097952335
889504,-192,352,-383,2571,410,-8497,1745155672097952335
889696,-204,355,-358,2822,560,-8591,1745155672167708000
889888,-209,361,-333,2986,558,-8427,1745155672167708000
890080,-204,349,-311,3121,509,-8343,1745155672167708000
890272,-183,323,-284,3193,481,-8260,1745155672167708000
890464,-154,293,-248,3185,429,-8157,1745155672167708000
890656,-118,267,-215,3141,329,-8098,1745155672167708000
890848,-51,260,-192,3087,83,-7830,1745155672167708000
891040,231,306,-173,2824,306,-8008,1745155672167708000
891232,54,276,-139,2752,53,-7589,1745155672167708000
891424,-123,186,-115,2633,-68,-7561,1745155672167708000
891616,-126,185,-94,2480,-82,-7562,1745155672167708000
891808,-137,214,-81,2302,-44,-7574,1745155672167708000
892000,-164,251,-69,2170,15,-7569,1745155672207972059
892192,-193,281,-64,2107,157,-7611,1745155672207972059
892384,-218,332,-57,2056,290,-7578,1745155672207972059
892576,-234,391,-46,2064,440,-7471,1745155672207972059
892768,-237,439,-23,2092,584,-7434,1745155672207972059
892960,-228,468,9,2199,655,-7404,1745155672207972059
893152,-211,485,42,2367,686,-7341,1745155672207972059
893344,-184,507,77,2578,692,-7278,1745155672207972059
893536,-156,519,121,2797,707,-7258,1745155672207972059
893728,-115,515,174,3001,736,-7319,1745155672207972059
893920,-60,493,222,3158,822,-7402,1745155672207972059
894112,13,454,246,3245,894,-7507,1745155672207972059
894304,87,398,248,3279,925,-7640,1745155672277125646
894496,160,344,234,3255,935,-7747,1745155672277125646
894688,229,306,213,3168,927,-7799,1745155672277125646
894880,292,284,194,3045,901,-7909,1745155672277125646
895072,366,273,188,2924,907,-8098,1745155672277125646
895264,451,258,209,2883,887,-8289,1745155672277125646
895456,539,232,237,2873,928,-8495,1745155672277125646
895648,634,201,252,2917,1012,-8665,1745155672277125646
895840,714,163,244,3007,1088,-8919,1745155672277125646
896032,758,110,220,3139,1042,-9225,1745155672277125646
896224,772,35,194,3280,781,-9542,1745155672277125646
896416,763,-64,193,3475,343,-9901,1745155672277125646
896608,725,-180,221,3674,-223,-10194,1745155672323643555
896800,641,-310,261,3755,-794,-10368,1745155672323643555
896992,516,-419,297,3674,-1253,-10444,1745155672323643555
897184,371,-474,314,3411,-1479,-10232,1745155672323643555
897376,220,-493,294,2992,-1327,-9922,1745155672323643555
897568,70,-475,227,2491,-874,-9648,1745155672323643555
897760,-69,-424,135,1958,-284,-9283,1745155672323643555
897952,-185,-359,52,1502,225,-8953,1745155672323643555
898144,-258,-291,-3,1160,627,-8585,1745155672323643555
898336,-292,-232,-29,937,870,-8316,1745155672323643555
898528,-297,-183,-30,824,989,-8127,1745155672323643555
898720,-284,-143,-13,777,997,-7932,1745155672323643555
898912,-259,-107,15,794,982,-7709,1745155672382893847
899104,-225,-72,41,829,999,-7540,1745155672382893847
899296,-189,-43,57,904,1120,-7371,1745155672382893847
899488,-150,-25,61,1052,1283,-7276,1745155672382893847
899680,-106,-20,54,1221,1454,-7257,1745155672382893847
899872,-61,-28,36,1340,1560,-7386,1745155672382893847
900064,-11,-51,15,1434,1596,-7319,1745155672382893847
900256,50,-86,-2,1452,1592,-7378,1745155672382893847
900448,111,-117,-16,1379,1524,-7533,1745155672382893847
900640,166,-141,-25,1241,1384,-7667,1745155672382893847
900832,209,-156,-28,1103,1223,-7756,1745155672382893847
901024,244,-159,-33,986,1091,-7898,1745155672382893847
901216,266,-150,-38,922,986,-8051,1745155672459269712
901408,261,-138,-37,843,824,-8188,1745155672459269712
901600,236,-126,-28,774,624,-8374,1745155672459269712
901792,204,-117,-13,673,430,-8552,1745155672459269712
901984,168,-110,7,635,301,-8673,1745155672459269712
902176,129,-98,23,598,245,-8756,1745155672459269712
902368,83,-79,31,561,271,-8841,1745155672459269712
902560,33,-52,31,603,375,-8813,1745155672459269712
902752,-15,-25,25,623,522,-8703,1745155672459269712
902944,-51,-2,16,643,746,-8631,1745155672459269712
903136,-73,20,5,680,979,-8518,1745155672459269712
903328,-83,40,-4,743,1189,-8376,1745155672459269712
903520,-87,61,-7,798,1355,-8257,1745155672497889984
903712,-81,74,-3,913,1403,-8152,1745155672497889984
903904,-66,80,-5,1005,1396,-8077,1745155672497889984
904096,-36,76,-12,1082,1321,-8036,1745155672497889984
904288,8,63,-16,1119,1171,-7947,1745155672497889984
904480,55,46,-11,1149,981,-7940,1745155672497889984
904672,94,23,-1,1128,772,-7950,1745155672497889984
904864,118,1,6,1057,542,-7905,1745155672497889984
905056,126,-11,13,967,279,-7881,1745155672497889984
905248,122,-13,20,926,84,-7916,1745155672497889984
905440,113,-19,22,892,0,-7940,1745155672497889984
905632,93,-21,16,894,65,-7941,1745155672497889984
905824,59,-14,6,899,182,-7904,1745155672561152270
906016,20,-3,-5,940,346,-7864,1745155672561152270
906208,-11,7,-14,999,496,-7860,1745155672561152270
906400,-26,5,-21,1074,635,-7885,1745155672561152270
906592,-26,-4,-24,1120,717,-7948,1745155672561152270
906784,-18,-19,-23,1169,762,-8026,1745155672561152270
906976,-11,-31,-18,1169,815,-8117,1745155672561152270
907168,-8,-39,-14,1148,883,-8153,1745155672561152270
907360,-4,-48,-11,1112,942,-8157,1745155672561152270
907552,3,-52,-13,1079,976,-8179,1745155672561152270
907744,9,-51,-16,1017,981,-8194,1745155672561152270
907936,13,-44,-17,972,949,-8212,1745155672561152270
908128,13,-34,-12,948,900,-8210,1745155672615724689
908320,12,-24,-7,941,832,-8196,1745155672615724689
908512,7,-17,-1,970,757,-8188,1745155672615724689
908704,0,-11,2,1008,656,-8192,1745155672615724689
908896,-9,-10,5,1023,569,-8163,1745155672615724689
909088,-20,-11,6,1040,504,-8145,1745155672615724689
909280,-33,-14,7,1031,465,-8121,1745155672615724689
909472,-51,-15,6,1021,474,-8120,1745155672615724689
909664,-68,-17,4,1025,497,-8082,1745155672615724689
909856,-80,-21,1,1009,560,-8053,1745155672615724689
910048,-87,-23,-5,999,643,-8045,1745155672615724689
910240,-90,-22,-9,1004,719,-8026,1745155672615724689
910432,-89,-22,-10,1001,779,-7999,1745155672678737759
910624,-85,-21,-10,987,815,-7988,1745155672678737759
910816,-76,-22,-8,1001,848,-7831,1745155672678737759
911008,-79,-57,-14,1105,901,-7040,1745155672678737759
911200,-236,-220,-145,2011,-1179,-6745,1745155672678737759
911392,-299,-446,-449,1739,100,-9055,1745155672678737759
911584,-302,-348,-227,1934,-730,-8226,1745155672678737759
911776,-290,-273,-140,1445,460,-7521,1745155672678737759
911968,-221,-292,-70,884,1645,-7553,1745155672678737759
912160,-129,-268,-20,663,2142,-7709,1745155672678737759
912352,-78,-271,-30,656,2087,-7800,1745155672678737759
912544,-51,-270,-65,689,1673,-7807,1745155672678737759
912736,-25,-249,-94,609,1295,-7822,1745155672733478977
912928,9,-209,-96,458,1100,-7850,1745155672733478977
913120,39,-163,-73,333,1066,-7851,1745155672733478977
913312,51,-121,-43,295,1098,-7891,1745155672733478977
913504,50,-89,-22,371,1073,-7957,1745155672733478977
913696,41,-70,-15,608,943,-8009,1745155672733478977
913888,25,-63,-15,821,838,-8066,1745155672733478977
914080,6,-67,-8,935,776,-8123,1745155672733478977
914272,-18,-74,2,972,749,-8142,1745155672733478977
914464,-39,-83,8,956,780,-8159,1745155672733478977
914656,-56,-90,5,884,827,-8175,1745155672733478977
914848,-69,-91,-3,787,865,-8189,1745155672733478977
915040,-77,-86,-13,750,906,-8201,1745155672802764907
915232,-77,-89,-20,829,928,-8160,1745155672802764907
915424,-68,-99,-23,929,972,-8124,1745155672802764907
915616,-54,-110,-25,946,1029,-8080,1745155672802764907
915808,-42,-116,-23,898,1046,-7991,1745155672802764907
916000,-41,-108,-21,825,1072,-7920,1745155672802764907
916192,-49,-92,-19,745,1150,-7895,1745155672802764907
916384,-51,-75,-24,660,1131,-7868,1745155672802764907
916576,-34,-66,-32,562,970,-7878,1745155672802764907
916768,0,-60,-31,465,809,-7952,1745155672802764907
916960,36,-53,-18,407,750,-8025,1745155672802764907
917152,53,-41,-4,419,767,-8061,1745155672802764907
1019488,-140,-66,-35,1002,876,-7841,1745155675446971169
1019680,-169,-95,-39,800,-323,-8089,1745155675446971169
1019872,-95,-238,-61,1007,136,-8316,1745155675446971169
1020064,-95,-296,-54,641,500,-7979,1745155675446971169
1020256,-86,-265,-33,421,551,-8228,1745155675446971169
1020448,-81,-282,-28,254,518,-8272,1745155675446971169
1020640,-98,-258,-31,92,500,-8374,1745155675446971169
1020832,-103,-238,-37,-61,296,-8450,1745155675446971169
1021024,-131,-210,-37,-244,113,-8492,1745155675446971169
1021216,-152,-164,-31,-418,24,-8466,1745155675446971169
1021408,-163,-124,-21,-528,78,-8406,1745155675446971169
1021600,-181,-65,-11,-583,209,-8302,1745155675446971169
1021792,-199,-2,-11,-437,-47,-1,1745155675512144011
1021984,-221,33,-23,-164,259,-8093,1745155675512144011
1022176,-249,63,-38,-8,97,-8071,1745155675512144011
1022368,-262,87,-43,61,232,-8051,1745155675512144011
1022560,-260,106,-35,19,372,-8002,1745155675512144011
1022752,-257,138,-21,21,525,-8039,1745155675512144011
1022944,-253,166,-15,52,643,-8093,1745155675512144011
1023136,-252,188,-15,102,819,-8149,1745155675512144011
1023328,-250,207,-22,147,973,-8208,1745155675512144011
1023520,-231,224,-20,199,1079,-8319,1745155675512144011
1023712,-191,222,-10,239,1204,-8383,1745155675512144011
1023904,-141,216,1,253,1379,-8427,1745155675512144011
1024096,-89,218,12,262,1548,-8411,1745155675568275738
1024288,-35,226,23,256,1657,-8432,1745155675568275738
1024480,24,237,37,228,1704,-8405,1745155675568275738
1024672,92,244,53,191,1708,-8416,1745155675568275738
1024864,164,252,69,145,1638,-8460,1745155675568275738
1025056,233,265,81,-16,1530,-8477,1745155675568275738
1025248,296,293,91,-199,1401,-8497,1745155675568275738
1025440,327,313,100,15,808,-7903,1745155675568275738
1025632,219,360,94,-589,-795,-9155,1745155675568275738
1025824,280,445,101,-280,409,-8110,1745155675568275738
1026016,598,512,157,-799,1139,-7704,1745155675568275738
1026208,1257,852,260,-1349,2794,-8397,1745155675568275738
1026400,761,753,246,-595,2001,-7758,1745155675627597540
1026592,832,737,292,-79,1240,-7878,1745155675627597540
1026784,733,689,403,4050,-2057,-9030,1745155675627597540
1026976,-119,59,628,6738,-6805,-6400,1745155675627597540
1027168,-258,-211,394,5247,-5015,-7274,1745155675627597540
1027360,-590,-351,256,3641,-3894,-7781,1745155675627597540
1027552,-809,-492,125,1899,-2376,-7774,1745155675627597540
1027744,-901,-418,-29,463,-747,-7549,1745155675627597540
1027936,-904,-360,-182,-725,669,-7769,1745155675627597540
1028128,-863,-321,-305,-1447,1772,-7869,1745155675627597540
1028320,-741,-233,-385,-1786,2467,-7688,1745155675627597540
1028512,-540,-113,-421,-1777,2894,-7549,1745155675627597540
1028704,-339,7,-398,-1368,2915,-7660,1745155675678283743
1028896,-145,138,-307,-655,2655,-8001,1745155675678283743
1029088,-24,228,-187,264,2006,-8150,1745155675678283743
1029280,51,240,-106,1046,1278,-8247,1745155675678283743
1029472,79,199,-71,1609,738,-8368,1745155675678283743
1029664,67,130,-60,1876,327,-8530,1745155675678283743
1029856,27,61,-62,1872,120,-8651,1745155675678283743
1030048,-36,2,-66,1622,118,-8720,1745155675678283743
1030240,-113,-44,-63,1262,156,-8725,1745155675678283743
1030432,-181,-69,-63,915,242,-8826,1745155675678283743
1030624,-237,-80,-72,608,293,-8899,1745155675678283743
1030816,-271,-78,-88,403,348,-8842,1745155675678283743
1031008,-290,-67,-100,342,331,-8842,1745155675738603192
1031200,-307,-61,-102,425,286,-8868,1745155675738603192
1031392,-324,-65,-104,664,188,-8829,1745155675738603192
1031584,-348,-77,-121,926,82,-8915,1745155675738603192
1031776,-376,-95,-154,1148,-46,-9114,1745155675738603192
1031968,-408,-126,-205,1353,-194,-9118,1745155675738603192
1032160,-449,-160,-263,1436,-354,-9043,1745155675738603192
1032352,-485,-187,-306,1429,-408,-8902,1745155675738603192
1032544,-518,-194,-343,1336,-384,-8822,1745155675738603192
1032736,-548,-188,-389,1184,-284,-8948,1745155675738603192
1032928,-584,-194,-440,941,-96,-8870,1745155675738603192
1033120,-608,-159,-500,614,175,-9029,1745155675738603192
1033312,-602,-61,-553,352,485,-9324,1745155675808246619
1033504,-598,25,-578,155,621,-9374,1745155675808246619
1033696,-548,85,-577,101,677,-9548,1745155675808246619
1033888,-460,148,-572,161,831,-9717,1745155675808246619
1034080,-388,208,-574,261,1119,-9707,1745155675808246619
1034272,-334,276,-594,363,1473,-9721,1745155675808246619
1034464,-295,351,-615,456,1722,-9743,1745155675808246619
1034656,-245,427,-623,572,1823,-9661,1745155675808246619
1034848,-180,488,-609,691,1736,-9657,1745155675808246619
1035040,-102,524,-577,830,1592,-9705,1745155675808246619
1035232,-33,552,-527,1003,1655,-10026,1745155675808246619
1035424,-5,612,-436,1330,1352,-9800,1745155675808246619
1035616,40,644,-398,1723,1103,-9557,1745155675854568800
1035808,57,607,-396,2143,777,-9529,1745155675854568800
1036000,36,533,-385,2582,295,-9500,1745155675854568800
1036192,3,428,-363,2936,-54,-9899,1745155675854568800
1036384,-54,303,-351,3244,-210,-10343,1745155675854568800
1036576,-119,200,-328,3400,-416,-10641,1745155675854568800
1036768,-177,64,-301,3525,-822,-10521,1745155675854568800
1036960,-179,-95,-307,3594,-1335,-9826,1745155675854568800
1037152,-183,-242,-343,3452,-1605,-9408,1745155675854568800
1037344,-260,-350,-404,3191,-1572,-9206,1745155675854568800
1037536,-437,-425,-466,2825,-1392,-9080,1745155675854568800
1037728,-675,-468,-487,2471,-1066,-9026,1745155675854568800
1037920,-922,-471,-427,2273,-620,-8843,1745155675933427402
1038112,-1099,-492,-340,2060,-274,-8578,1745155675933427402
1038304,-1206,-545,-296,1958,281,-8639,1745155675933427402
1038496,-1322,-524,-223,2566,1516,-8989,1745155675933427402
1038688,-1448,-403,48,3688,2109,-9077,1745155675933427402
1038880,-1385,-507,349,4642,2120,-9533,1745155675933427402
1039072,-1034,-802,481,5241,2345,-9848,1745155675933427402
1039264,-562,-1107,465,5312,2722,-10230,1745155675933427402
1039456,-165,-1325,440,4951,2544,-10348,1745155675933427402
1039648,133,-1476,501,4526,1699,-10450,1745155675933427402
1039840,411,-1615,689,4225,557,-10625,1745155675933427402
1040032,662,-1768,934,4062,-596,-10780,1745155675933427402
1040224,820,-1911,1145,3845,-1735,-10825,1745155675985253023
1040416,877,-2018,1301,3482,-2816,-10638,1745155675985253023
1040608,871,-2083,1419,2984,-3775,-10216,1745155675985253023
1040800,828,-2094,1534,2419,-4397,-9739,1745155675985253023
1040992,709,-2067,1651,1884,-4835,-9333,1745155675985253023
1041184,541,-2019,1769,1456,-5062,-8944,1745155675985253023
1041376,344,-1947,1885,1125,-5056,-8552,1745155675985253023
1041568,133,-1854,1997,863,-4855,-8227,1745155675985253023
1041760,-66,-1750,2106,715,-4537,-7935,1745155675985253023
1041952,-234,-1640,2222,695,-4202,-7669,1745155675985253023
1042144,-369,-1543,2342,768,-3901,-7338,1745155675985253023
1042336,-468,-1473,2464,899,-3665,-7018,1745155675985253023
1042528,-530,-1410,2585,981,-3393,-6942,1745155676041592820
1042720,-564,-1349,2707,1028,-3099,-6895,1745155676041592820
1042912,-571,-1297,2827,1006,-2784,-6736,1745155676041592820
1043104,-552,-1232,2949,867,-2418,-6633,1745155676041592820
1043296,-488,-1155,3070,685,-1990,-6582,1745155676041592820
1043488,-382,-1075,3185,570,-1611,-6459,1745155676041592820
1043680,-242,-987,3279,445,-1280,-6343,1745155676041592820
1043872,-71,-894,3355,313,-976,-6285,1745155676041592820
1044064,128,-801,3421,223,-738,-6186,1745155676041592820
1044256,347,-711,3482,143,-565,-6072,1745155676041592820
1044448,573,-627,3539,151,-486,-5898,1745155676041592820
1044640,785,-548,3592,196,-471,-5722,1745155676041592820
1044832,967,-459,3630,290,-466,-5539,1745155676087686253
1045024,1108,-352,3633,410,-501,-5404,1745155676087686253
1045216,1205,-240,3598,493,-570,-5312,1745155676087686253
1045408,1267,-137,3568,497,-677,-5204,1745155676087686253
1045600,1333,-39,3578,465,-707,-5147,1745155676087686253
1045792,1385,57,3632,435,-631,-5037,1745155676087686253
1045984,1431,166,3701,442,-384,-4907,1745155676087686253
1046176,1463,286,3755,520,43,-4750,1745155676087686253
1046368,1485,413,3782,640,492,-4541,1745155676087686253
1046560,1513,540,3786,800,924,-4320,1745155676087686253
1046752,1570,661,3779,949,1362,-4156,1745155676087686253
1046944,1645,776,3781,1125,1688,-4022,1745155676087686253
1047136,1732,877,3799,1304,1956,-3955,1745155676147927526
1047328,1820,969,3840,1493,2128,-3732,1745155676147927526
1047520,1910,1056,3884,1654,2247,-3471,1745155676147927526
1047712,1992,1143,3890,1840,2483,-3377,1745155676147927526
1047904,2028,1247,3847,2072,2767,-3518,1745155676147927526
1048096,2009,1380,3786,2280,2961,-3542,1745155676147927526
1048288,1954,1526,3740,2468,2974,-3498,1745155676147927526
1048480,1901,1637,3717,2532,2696,-2612,1745155676147927526
1048672,1951,1648,3656,2835,2790,-3431,1745155676147927526
1048864,1947,1747,3586,2916,2884,-3573,1745155676147927526
1049056,1913,1876,3516,3051,3006,-3618,1745155676147927526
1049248,1880,2002,3435,3241,3047,-3583,1745155676147927526
1049440,1856,2128,3364,3183,2857,-3893,1745155676211248927
1049632,1793,2228,3356,3516,2655,-2941,1745155676211248927
1049824,1846,2351,3283,3772,2840,-3557,1745155676211248927
1050016,1833,2482,3169,4122,3001,-3158,1745155676211248927
1050208,1827,2608,3031,4235,3292,-3264,1745155676211248927
1050400,1798,2691,2934,4510,3051,-3014,1745155676211248927
1050592,1810,2768,2788,4684,2966,-3081,1745155676211248927
1050784,1803,2850,2642,4744,2871,-3097,1745155676211248927
1050976,1775,2957,2520,4849,2845,-2931,1745155676211248927
1051168,1748,3062,2403,4956,2927,-2936,1745155676211248927
1051360,1709,3163,2299,5106,2987,-2694,1745155676211248927
1051552,1689,3253,2206,5289,3158,-2444,1745155676211248927
1051744,1684,3347,2120,5520,3352,-2295,1745155676295088369
1052128,1695,3536,1901,6129,3620,-2234,1745155676295088369
1052320,1709,3626,1763,6494,3536,-2438,1745155676295088369
1052512,1742,3692,1617,6802,3331,-2679,1745155676295088369
1052704,1784,3754,1492,7014,3039,-2908,1745155676295088369
1052896,1828,3804,1396,7179,2750,-3118,1745155676295088369
1053088,1873,3858,1320,7331,2589,-3166,1745155676295088369
1053280,1911,3915,1229,7421,2605,-3340,1745155676295088369
1053472,1929,3976,1110,7535,2746,-3495,1745155676295088369
1053664,1936,4047,962,7670,2894,-3485,1745155676295088369
1053856,1961,4118,804,7908,3042,-3428,1745155676295088369
1054048,2014,4189,648,8173,3156,-3322,1745155676295088369
1054240,2103,4252,504,8575,3295,-3200,1745155676347128727
1054432,2207,4293,374,8969,3374,-2972,1745155676347128727
1054624,2353,4315,271,9242,3456,-2722,1745155676347128727
1054816,2535,4341,198,9632,3621,-2457,1745155676347128727
1055008,2722,4368,89,10072,3730,-2247,1745155676347128727
1055200,2907,4373,-82,10414,3680,-2085,1745155676347128727
1055392,3087,4352,-262,10725,3500,-1908,1745155676347128727
1055584,3263,4312,-410,10935,3225,-1756,1745155676347128727
1055776,3437,4259,-535,11341,2947,-1751,1745155676347128727
1055968,3582,4186,-686,11665,2510,-1740,1745155676347128727
1056160,3714,4095,-855,11885,2163,-1733,1745155676347128727
1056352,3817,3999,-1021,12017,1580,-1613,1745155676347128727
1056544,3959,3884,-1223,12193,1067,-1756,1745155676392637947
1056736,4040,3777,-1459,12130,863,-1807,1745155676392637947
1056928,4071,3689,-1660,12123,534,-1888,1745155676392637947
1057120,4076,3607,-1853,12128,175,-1943,1745155676392637947
1057312,4060,3516,-2037,12139,-155,-1936,1745155676392637947
1057504,4013,3412,-2199,12066,-511,-1939,1745155676392637947
1057696,3932,3327,-2355,12089,-745,-1948,1745155676392637947
1057888,3819,3238,-2516,12117,-980,-2062,1745155676392637947
1058080,3685,3162,-2671,12101,-1186,-2124,1745155676392637947
1058272,3535,3080,-2795,12125,-1346,-2052,1745155676392637947
1058464,3372,2994,-2890,12203,-1458,-1993,1745155676392637947
1058656,3193,2923,-2981,12250,-1415,-2039,1745155676392637947
1058848,3015,2868,-3077,12237,-1212,-2178,1745155676449595187
1059040,2846,2827,-3170,12231,-975,-2299,1745155676449595187
1059232,2700,2786,-3251,12248,-680,-2155,1745155676449595187
1059424,2588,2751,-3320,12306,-388,-2026,1745155676449595187
1059616,2491,2726,-3387,12444,-114,-1940,1745155676449595187
1059808,2401,2700,-3452,12621,21,-1975,1745155676449595187
1060000,2315,2670,-3515,12825,-3,-2031,1745155676449595187
1060192,2233,2630,-3572,13000,-130,-2027,1745155676449595187
1060384,2141,2601,-3637,13177,-204,-2054,1745155676449595187
1060576,2022,2575,-3718,13190,-237,-1991,1745155676449595187
1060768,1892,2553,-3778,13127,-156,-1856,1745155676449595187
1060960,1772,2536,-3811,13037,75,-1647,1745155676449595187
1061152,1683,2511,-3839,13070,338,-1412,1745155676508848604
1061344,1626,2474,-3886,13086,536,-1347,1745155676508848604
1061536,1579,2415,-3929,13017,587,-1143,1745155676508848604
1061728,1533,2357,-3946,12947,560,-1115,1745155676508848604
1061920,1480,2323,-3939,12847,487,-1206,1745155676508848604
1062112,1423,2298,-3909,12920,409,-1102,1745155676508848604
1062304,1359,2264,-3900,13066,310,-1106,1745155676508848604
1062496,1286,2201,-3918,13143,134,-939,1745155676508848604
1062688,1213,2119,-3936,13129,-20,-623,1745155676508848604
1062880,1127,2049,-3947,13030,-99,-418,1745155676508848604
1063072,1039,1998,-3953,12901,0,-42,1745155676508848604
1063264,953,1968,-3957,12654,239,257,1745155676508848604
1063456,875,1951,-3955,12426,664,598,1745155676567581349
1063648,823,1951,-3959,12186,1226,879,1745155676567581349
1063840,798,1966,-3964,12069,1804,1204,1745155676567581349
1064032,803,1982,-3962,12093,2261,1517,1745155676567581349
1064224,828,1981,-3955,12277,2597,1748,1745155676567581349
1064416,867,1968,-3954,12641,2726,1831,1745155676567581349
1064608,903,1904,-3951,13049,2690,1901,1745155676567581349
1064800,933,1804,-3938,13330,2530,2089,1745155676567581349
1064992,962,1695,-3901,13510,2310,2164,1745155676567581349
1065184,981,1583,-3843,13658,2083,2171,1745155676567581349
1065376,977,1482,-3813,13544,1855,1942,1745155676567581349
1065568,943,1377,-3790,13244,1623,1638,1745155676567581349
1065760,890,1277,-3764,12912,1481,1530,1745155676625707537
1065952,843,1174,-3733,12530,1347,1533,1745155676625707537
1066144,795,1067,-3694,12172,1323,1472,1745155676625707537
1066336,732,962,-3651,11874,1362,1347,1745155676625707537
1066528,657,858,-3611,11609,1568,1271,1745155676625707537
1066720,567,783,-3575,11283,1951,1228,1745155676625707537
1066912,478,743,-3528,11013,2409,1198,1745155676625707537
1067104,412,723,-3469,10917,2781,1254,1745155676625707537
1067296,375,697,-3406,11073,3036,1234,1745155676625707537
1067488,343,670,-3366,11137,2824,944,1745155676625707537
1067680,260,684,-3378,11124,3139,1168,1745155676625707537
1067872,218,558,-3252,11320,3187,1086,1745155676625707537
1068064,185,482,-3110,11308,3487,1161,1745155676691470061
1068256,188,382,-2992,11404,3295,1144,1745155676691470061
1068448,202,302,-2971,11233,3044,1092,1745155676691470061
1068640,197,203,-2958,10838,2916,947,1745155676691470061
1068832,150,155,-2937,10523,2476,852,1745155676691470061
1069024,102,79,-2896,10358,2550,901,1745155676691470061
1069216,67,-17,-2789,10141,2528,915,1745155676691470061
1069408,11,-96,-2726,9858,2389,949,1745155676691470061
1069600,-40,-176,-2678,9467,2305,959,1745155676691470061
1069792,-111,-230,-2648,9158,2059,1008,1745155676691470061
1069984,-192,-306,-2671,9025,1831,1048,1745155676691470061
1070176,-287,-342,-2788,8614,2162,1210,1745155676691470061
1070368,-321,-351,-2745,7538,3483,1304,1745155676754120478
1070560,-306,-323,-2432,7535,3535,1196,1745155676754120478
1070752,-293,-339,-2308,7826,3468,1182,1745155676754120478
1070944,-293,-384,-2339,8047,3220,1207,1745155676754120478
1071136,-295,-413,-2427,7964,3001,1235,1745155676754120478
1071328,-284,-455,-2498,7565,3488,1202,1745155676754120478
1071520,-294,-484,-2411,6789,4933,1023,1745155676754120478
1071712,-282,-465,-2119,6703,4544,1152,1745155676754120478
1071904,-251,-463,-2043,6359,4717,1230,1745155676754120478
1072096,-192,-463,-1978,6124,4847,1253,1745155676754120478
1072288,-152,-441,-1946,5925,4770,1172,1745155676754120478
1072480,-112,-431,-1897,5882,4676,1129,1745155676754120478
1072672,-75,-396,-1831,6033,4454,1095,1745155676803143468
1072864,-75,-354,-1837,6256,3668,936,1745155676803143468
1073056,-95,-352,-1867,6109,4009,1090,1745155676803143468
1073248,-113,-315,-1736,6421,4336,1014,1745155676803143468
1073440,-132,-313,-1635,6112,4828,1262,1745155676803143468
1073632,-102,-322,-1582,6540,5050,1288,1745155676803143468
1073824,-78,-367,-1616,6610,5346,1344,1745155676803143468
1074016,-65,-409,-1632,6374,5574,1454,1745155676803143468
1074208,-28,-455,-1560,6518,5378,1495,1745155676803143468
1074400,0,-500,-1528,6305,5675,1648,1745155676803143468
1074592,39,-546,-1497,6213,5464,1634,1745155676803143468
1074784,67,-595,-1493,5961,5225,1623,1745155676803143468
1074976,43,-625,-1491,5518,4820,1391,1745155676859202487
1075168,-8,-639,-1474,5613,4447,1369,1745155676859202487
1075360,-57,-650,-1483,5163,4870,1389,1745155676859202487
1075552,-106,-649,-1418,4952,5362,1394,1745155676859202487
1075744,-132,-634,-1331,4633,6009,1491,1745155676859202487
1075936,-135,-604,-1259,4891,5824,1460,1745155676859202487
1076128,-123,-597,-1269,4911,5504,1529,1745155676859202487
1076320,-104,-606,-1230,4850,5776,1528,1745155676859202487
1076512,-110,-595,-1163,4905,5761,1609,1745155676859202487
1076704,-138,-597,-1135,4613,5389,1359,1745155676859202487
1076896,-402,-619,-1078,4176,3157,2023,1745155676859202487
1077088,-318,-497,-1039,4323,6144,2376,1745155676859202487
1077280,-218,-466,-1083,4644,7445,2442,1745155676915693898
1077472,-158,-504,-1111,4877,7470,2537,1745155676915693898
1077664,-59,-537,-1121,4719,7111,2680,1745155676915693898
1077856,27,-569,-1022,4632,6915,2558,1745155676915693898
1078048,80,-610,-949,4592,6821,2475,1745155676915693898
1078240,114,-627,-998,4303,6686,2308,1745155676915693898
1078432,118,-648,-1043,3978,6311,2165,1745155676915693898
1078624,115,-626,-1032,3619,6190,2076,1745155676915693898
1078816,108,-585,-1005,3439,6157,1822,1745155676915693898
1079008,75,-541,-977,3390,6037,1654,1745155676915693898
1079200,40,-492,-967,3501,6063,1529,1745155676915693898
1079392,-3,-444,-941,3559,6185,1457,1745155676915693898
1079584,-37,-388,-902,3550,6590,1543,1745155676975182052
1079776,-44,-335,-846,3425,7109,1690,1745155676975182052
1079968,-27,-291,-779,3601,7350,1845,1745155676975182052
1080160,12,-285,-748,3904,7273,1978,1745155676975182052
1080352,54,-299,-737,4199,7104,2157,1745155676975182052
1080544,90,-306,-718,4169,6980,2364,1745155676975182052
1080736,126,-328,-691,4117,6890,2484,1745155676975182052
1080928,153,-352,-679,4027,6700,2654,1745155676975182052
1081120,170,-363,-679,3809,6467,2702,1745155676975182052
1081312,178,-372,-679,3637,6220,2716,1745155676975182052
1081504,180,-377,-678,3496,6085,2728,1745155676975182052
1081696,164,-367,-670,3355,6038,2688,1745155676975182052
1081888,134,-352,-644,3260,6032,2669,1745155677058531083
1082080,98,-328,-609,3234,6080,2652,1745155677058531083
1082272,59,-305,-573,3256,6094,2573,1745155677058531083
1082464,14,-288,-534,3319,6116,2481,1745155677058531083
1082656,-31,-276,-488,3312,6185,2446,1745155677058531083
1082848,-70,-260,-438,3327,6285,2473,1745155677058531083
1083040,-92,-258,-396,3322,6510,2575,1745155677058531083
1083232,-105,-249,-367,3187,6865,2659,1745155677058531083
1083424,-101,-223,-343,3065,7236,2744,1745155677058531083
1083616,-74,-205,-322,3069,7402,2750,1745155677058531083
1083808,-33,-198,-315,3087,7429,2738,1745155677058531083
1084000,15,-184,-313,3030,7332,2657,1745155677058531083
1084192,69,-173,-300,3014,7151,2524,1745155677103562182
1084384,122,-169,-281,3053,6979,2461,1745155677103562182
1084576,160,-172,-267,3070,6846,2500,1745155677103562182
1084768,175,-182,-249,3054,6802,2571,1745155677103562182
1084960,167,-183,-221,2928,6817,2577,1745155677103562182
1085152,141,-179,-185,2758,6835,2588,1745155677103562182
1085344,105,-172,-150,2629,6864,2603,1745155677103562182
1085536,57,-162,-123,2504,6827,2596,1745155677103562182
1085728,-5,-148,-105,2439,6764,2550,1745155677103562182
1085920,-67,-130,-91,2409,6738,2517,1745155677103562182
1086112,-126,-108,-83,2390,6824,2524,1745155677103562182
1086304,-169,-83,-79,2382,6973,2555,1745155677103562182
1086496,-187,-53,-72,2335,7217,2555,1745155677159285058
1086688,-179,-25,-60,2338,7400,2493,1745155677159285058
1086880,-148,-10,-50,2381,7550,2429,1745155677159285058
1087072,-104,2,-43,2433,7709,2409,1745155677159285058
1087264,-55,15,-29,2446,7845,2372,1745155677159285058
1087456,2,20,-8,2521,7874,2254,1745155677159285058
1087648,56,17,4,2627,7836,2169,1745155677159285058
1087840,98,8,15,2686,7735,2099,1745155677159285058
1088032,120,-2,27,2720,7614,2011,1745155677159285058
1088224,128,-10,42,2705,7524,1982,1745155677159285058
1088416,126,-16,59,2693,7506,1982,1745155677159285058
1088608,111,-20,71,2667,7463,1967,1745155677159285058
1088800,90,-28,75,2671,7369,2024,1745155677210810421
1088992,66,-42,71,2650,7330,2064,1745155677210810421
1089184,30,-52,71,2584,7352,2080,1745155677210810421
1089376,-9,-59,79,2482,7388,2122,1745155677210810421
1089568,-45,-59,81,2376,7514,2214,1745155677210810421
1089760,-73,-49,78,2253,7659,2235,1745155677210810421
1089952,-83,-35,79,2189,7790,2276,1745155677210810421
1090144,-76,-24,81,2194,7876,2262,1745155677210810421
1090336,-60,-8,83,2216,7917,2181,1745155677210810421
1090528,-39,0,89,2278,7892,2088,1745155677210810421
1090720,-14,-6,93,2400,7809,2084,1745155677210810421
1090912,3,-13,93,2418,7811,2031,1745155677210810421
1091104,7,-16,104,2379,7816,2060,1745155677275207749
1091296,13,-23,120,2295,7796,2114,1745155677275207749
1091488,23,-21,129,2228,7784,2154,1745155677275207749
1091680,33,-16,136,2171,7722,2223,1745155677275207749
1091872,44,-7,139,2161,7651,2226,1745155677275207749
1092064,51,1,134,2196,7553,2168,1745155677275207749
1092256,52,3,123,2270,7452,2152,1745155677275207749
1092448,43,0,111,2346,7364,2126,1745155677275207749
1092640,19,-4,103,2412,7269,2071,1745155677275207749
1092832,-12,-12,100,2442,7188,2043,1745155677275207749
1093024,-44,-18,97,2467,7181,1981,1745155677275207749
1093216,-76,-22,104,2446,7201,1947,1745155677275207749
1093408,-99,-16,118,2402,7364,1946,1745155677324815317
1093600,-109,3,142,2347,7547,1997,1745155677324815317
1093792,-101,23,167,2428,7768,2053,1745155677324815317
1093984,-79,46,184,2515,7869,2041,1745155677324815317
1094176,-48,62,193,2659,7783,2050,1745155677324815317
1094368,-9,68,202,2852,7549,2113,1745155677324815317
1094560,32,71,210,2995,7317,2170,1745155677324815317
1094752,65,70,226,3061,7062,2213,1745155677324815317
1094944,92,69,251,3091,6777,2267,1745155677324815317
1095136,115,73,279,3051,6499,2353,1745155677324815317
1095328,130,86,313,2973,6265,2460,1745155677324815317
1095520,141,109,354,2931,6019,2570,1745155677324815317
1095712,152,135,405,2903,5734,2670,1745155677385979341
1095904,157,167,461,2946,5453,2707,1745155677385979341
1096096,156,201,524,3046,5205,2763,1745155677385979341
1096288,156,236,592,3156,4907,2778,1745155677385979341
1096480,156,264,657,3320,4582,2772,1745155677385979341
1096672,156,286,721,3485,4237,2805,1745155677385979341
1096864,152,303,790,3642,4065,2831,1745155677385979341
1097056,146,329,871,3788,3990,2853,1745155677385979341
1097248,144,344,959,4030,3884,2926,1745155677385979341
1097440,156,355,1042,4263,3825,2957,1745155677385979341
1097632,175,349,1113,4530,3693,2972,1745155677385979341
1097824,186,338,1179,4726,3492,2854,1745155677385979341
1098016,183,330,1248,4862,3226,2755,1745155677447680288
1098208,179,333,1315,4988,3101,2627,1745155677447680288
1098400,162,322,1379,5275,3028,2634,1745155677447680288
1098592,165,334,1438,5284,3051,2649,1745155677447680288
1098784,185,348,1500,5487,3064,2098,1745155677447680288
1098976,123,278,1584,6089,2725,2247,1745155677447680288
1099168,99,272,1656,6281,2581,2019,1745155677447680288
1099360,66,242,1735,6436,2504,1833,1745155677447680288
1099552,14,233,1829,6516,2372,1680,1745155677447680288
1099744,2,222,1937,6629,2314,1455,1745155677447680288
1099936,-24,209,2030,6807,2295,1373,1745155677447680288
1100128,-124,186,2110,7002,2215,1366,1745155677447680288
1100320,-198,174,2200,7121,2361,1447,1745155677500422723
