timestamp,gyr_x,gyr_y,gyr_z,acc_x,acc_y,acc_z,pkt_time_ns
45472,-102,21,28,3003,1423,-7269,1745225166822447883
45664,-123,45,31,2711,982,-7856,1745225166822447883
45856,-10,-47,24,2964,1650,-7404,1745225166822447883
46048,-7,-18,39,2911,1240,-7639,1745225166822447883
46240,1,-25,49,3151,989,-7475,1745225166822447883
46432,7,-82,55,3064,1107,-7533,1745225166822447883
46624,-1,-81,54,2943,1175,-7589,1745225166822447883
46816,22,-95,48,2784,1097,-7672,1745225166822447883
47008,22,-93,37,2609,1001,-7702,1745225166822447883
47200,22,-67,21,2678,1076,-7676,1745225166822447883
47392,51,-51,11,2768,1682,-7550,1745225166822447883
47584,119,-11,13,2748,2331,-7501,1745225166822447883
47776,198,54,23,2765,2127,-7664,1745225166862897149
47968,268,52,42,2701,1965,-7794,1745225166862897149
48160,332,71,60,2964,1789,-7889,1745225166862897149
48352,373,77,84,3003,1395,-7835,1745225166862897149
48544,370,59,95,2974,975,-7763,1745225166862897149
48736,347,47,87,2887,753,-7764,1745225166862897149
48928,320,28,62,2845,723,-7797,1745225166862897149
49120,264,14,35,3009,190,-8022,1745225166862897149
49312,55,12,-2,2708,-1931,-7620,1745225166862897149
49504,-126,61,-36,2551,-122,-7497,1745225166862897149
49696,-102,85,-32,2368,1213,-6766,1745225166862897149
49888,-107,81,-16,2678,1508,-9060,1745225166862897149
50080,-80,179,49,2030,1484,-7395,1745225166925296892
50272,-62,233,111,2962,1163,-8460,1745225166925296892
50464,-90,313,140,2481,1033,-6406,1745225166925296892
50656,-39,259,169,2694,1578,-7219,1745225166925296892
50848,42,244,141,3891,1596,-7369,1745225166925296892
51040,35,269,95,4118,1966,-6351,1745225166925296892
51232,72,353,-63,4238,1624,-8529,1745225166925296892
51424,159,41,-73,2982,1049,-7563,1745225166925296892
51616,123,107,37,2764,532,-7734,1745225166925296892
51808,61,81,78,2928,524,-7595,1745225166925296892
52000,31,83,57,3062,674,-7577,1745225166925296892
52192,-1,86,40,3126,744,-7536,1745225166925296892
52384,-25,77,43,2837,344,-7136,1745225166979795248
52576,-96,81,84,3218,151,-7172,1745225166979795248
52768,-122,65,95,3142,692,-7715,1745225166979795248
52960,-132,89,69,2693,1469,-7459,1745225166979795248
53152,-121,92,31,2775,1872,-7675,1745225166979795248
53344,-64,83,10,2983,1910,-7546,1745225166979795248
53536,-12,77,9,3114,1604,-7345,1745225166979795248
53728,24,65,17,3063,1126,-7436,1745225166979795248
53920,22,59,29,2973,727,-7973,1745225166979795248
54112,-48,53,51,2747,-5,-7885,1745225166979795248
54304,-103,68,124,3077,-107,-7078,1745225166979795248
54496,-101,62,109,3317,323,-7249,1745225166979795248
54688,-139,63,49,3199,853,-7219,1745225167040154749
54880,-157,73,20,3128,1286,-7262,1745225167040154749
55072,-112,67,8,3112,1482,-7341,1745225167040154749
55264,-74,61,2,3106,1309,-7385,1745225167040154749
55456,-60,50,15,3154,1105,-7467,1745225167040154749
55648,-52,41,30,3099,1051,-7445,1745225167040154749
55840,-49,44,28,3059,1079,-7497,1745225167040154749
56032,-45,47,20,3043,1116,-7425,1745225167040154749
56224,-32,54,19,3086,1144,-7337,1745225167040154749
56416,-26,56,20,3219,1070,-7351,1745225167040154749
56608,-29,50,20,3292,954,-7414,1745225167040154749
56800,-34,45,17,3224,866,-7482,1745225167040154749
56992,-41,41,9,3133,852,-7502,1745225167107050231
57184,-49,41,0,3090,876,-7480,1745225167107050231
57376,-58,39,-3,3112,939,-7453,1745225167107050231
57568,-61,34,-4,3194,1039,-7430,1745225167107050231
57760,-53,28,-8,3216,1130,-7413,1745225167107050231
57952,-41,23,-15,3142,1151,-7439,1745225167107050231
58144,-33,26,-17,3052,1142,-7498,1745225167107050231
58336,-37,35,-14,3029,1127,-7570,1745225167107050231
58528,-42,43,-8,3131,1139,-7555,1745225167107050231
58720,-38,49,0,3282,1173,-7484,1745225167107050231
58912,-39,51,3,3347,1149,-7441,1745225167107050231
59104,-43,56,8,3335,1125,-7418,1745225167107050231
59296,-48,59,10,3311,1149,-7428,1745225167161964365
59488,-54,65,11,3317,1200,-7434,1745225167161964365
59680,-59,75,13,3309,1229,-7476,1745225167161964365
59872,-57,84,19,3242,1258,-7530,1745225167161964365
60064,-48,93,29,3167,1238,-7495,1745225167161964365
60256,-29,101,37,3116,1214,-7503,1745225167161964365
60448,-8,106,39,3071,1192,-7446,1745225167161964365
60640,-3,112,46,3087,1144,-7471,1745225167161964365
60832,0,108,52,3089,1125,-7483,1745225167161964365
61024,5,105,57,3076,1111,-7499,1745225167161964365
61216,11,99,54,3088,1139,-7542,1745225167161964365
61408,18,98,52,3070,1159,-7589,1745225167161964365
61600,22,100,50,3102,1167,-7656,1745225167217873594
61792,23,109,50,3159,1166,-7674,1745225167217873594
61984,21,122,56,3283,1163,-7654,1745225167217873594
62176,13,140,67,3378,1167,-7611,1745225167217873594
62368,1,158,81,3481,1162,-7534,1745225167217873594
62560,-4,176,97,3591,1130,-7457,1745225167217873594
62752,-5,193,110,3679,1094,-7450,1745225167217873594
62944,-3,214,119,3720,1089,-7516,1745225167217873594
63136,-4,247,121,3653,1129,-7518,1745225167217873594
63328,-10,283,118,3592,1178,-7571,1745225167217873594
63520,-20,315,109,3609,1265,-7703,1745225167217873594
63712,-28,346,96,3599,1349,-7816,1745225167217873594
63904,-24,384,84,3608,1400,-7937,1745225167276598787
64096,-6,422,71,3608,1396,-8020,1745225167276598787
64288,24,462,59,3570,1401,-8037,1745225167276598787
64480,51,502,51,3588,1403,-8021,1745225167276598787
64672,67,539,41,3636,1378,-7977,1745225167276598787
64864,78,578,36,3742,1295,-7911,1745225167276598787
65056,87,617,36,3881,1181,-7791,1745225167276598787
65248,96,651,40,4092,1027,-7693,1745225167276598787
65440,96,677,44,4285,898,-7665,1745225167276598787
65632,83,698,46,4433,781,-7704,1745225167276598787
65824,59,713,43,4539,681,-7775,1745225167276598787
66016,34,727,34,4624,532,-7818,1745225167276598787
66208,8,732,16,4691,389,-7855,1745225167330375066
66400,-21,728,-6,4674,287,-7921,1745225167330375066
66592,-60,725,-32,4609,238,-8075,1745225167330375066
66784,-106,721,-63,4498,223,-8215,1745225167330375066
66976,-146,713,-96,4466,238,-8364,1745225167330375066
67168,-159,707,-121,4495,282,-8372,1745225167330375066
67360,-151,701,-141,4631,306,-8432,1745225167330375066
67552,-133,684,-160,4722,264,-8432,1745225167330375066
67744,-99,670,-177,4763,248,-8597,1745225167330375066
67936,-64,658,-193,4749,275,-8753,1745225167330375066
68128,-27,645,-214,4602,418,-8726,1745225167330375066
68320,-1,644,-246,4539,617,-9013,1745225167330375066
68512,-5,594,-284,4832,829,-9142,1745225167406317445
68704,-34,498,-328,5247,1017,-8966,1745225167406317445
68896,-93,367,-378,5693,1129,-8550,1745225167406317445
69088,-129,289,-357,6727,849,-7987,1745225167406317445
69280,-149,159,-334,7759,702,-8037,1745225167406317445
69472,-202,-62,-328,8596,187,-8378,1745225167406317445
69664,123,-219,-252,9237,-882,-6483,1745225167406317445
69856,920,-420,-278,9496,-1713,-6488,1745225167406317445
70048,1402,-743,-529,8837,-1358,-8545,1745225167406317445
70240,1351,-865,-824,7133,-950,-8790,1745225167406317445
70432,988,-579,-836,6058,-1199,-7637,1745225167406317445
70624,394,181,-309,6559,-1423,-5321,1745225167406317445
70816,-436,502,174,9053,-2486,-5948,1745225167452072913
71200,-418,-614,146,5946,-2443,-6136,1745225167452072913
71392,-89,-746,-75,4776,-1447,-7176,1745225167452072913
71584,-53,-613,-242,5164,-1509,-7398,1745225167452072913
71776,-226,-501,-233,6513,-2708,-7043,1745225167452072913
71968,-339,-542,-47,7772,-3927,-6514,1745225167452072913
72160,-347,-654,182,8435,-4429,-6329,1745225167452072913
72352,-346,-748,324,8522,-4289,-6427,1745225167452072913
72544,-381,-801,361,8245,-3944,-6412,1745225167452072913
72736,-436,-857,335,7964,-3813,-6154,1745225167452072913
72928,-482,-934,312,7858,-4172,-5722,1745225167452072913
73120,-509,-1036,333,7846,-4929,-5327,1745225167452072913
73312,-501,-1129,405,7666,-5680,-4986,1745225167534307058
73504,-479,-1179,502,7324,-6039,-4719,1745225167534307058
73696,-483,-1177,587,6941,-6153,-4646,1745225167534307058
73888,-537,-1133,660,6667,-6011,-4727,1745225167534307058
74080,-624,-1062,720,6450,-5845,-4775,1745225167534307058
74272,-692,-963,782,6267,-5743,-4815,1745225167534307058
74464,-697,-845,857,6193,-5626,-4810,1745225167534307058
74656,-626,-714,926,6143,-5082,-5052,1745225167534307058
74848,-560,-569,950,6102,-4747,-4866,1745225167534307058
75040,-514,-387,1082,6322,-4153,-4946,1745225167534307058
75232,-447,-197,1314,6621,-4225,-4414,1745225167534307058
75424,-423,-19,1509,6910,-4757,-4222,1745225167534307058
75616,-342,159,1606,6980,-5323,-3847,1745225167578174053
75808,-177,334,1676,7067,-5365,-3808,1745225167578174053
76000,4,527,1772,7122,-5159,-3841,1745225167578174053
76192,152,753,1889,7136,-4895,-3718,1745225167578174053
76384,266,964,2002,7287,-4549,-3604,1745225167578174053
76576,372,1181,2124,7494,-4120,-3544,1745225167578174053
76768,467,1404,2269,7790,-3702,-3349,1745225167578174053
76960,554,1616,2404,8119,-3370,-3071,1745225167578174053
77152,628,1812,2509,8456,-3146,-2789,1745225167578174053
77344,684,1991,2578,8766,-3036,-2522,1745225167578174053
77536,720,2162,2624,9116,-2917,-2197,1745225167578174053
77728,728,2304,2662,9547,-2843,-1854,1745225167578174053
77920,704,2426,2703,9978,-2668,-1554,1745225167641702274
78112,658,2521,2751,10444,-2403,-1277,1745225167641702274
78304,598,2589,2807,10859,-2078,-1035,1745225167641702274
78496,539,2646,2865,11230,-1704,-879,1745225167641702274
78688,493,2695,2908,11543,-1283,-598,1745225167641702274
78880,469,2724,2937,11841,-807,-238,1745225167641702274
79072,462,2750,2951,12061,-408,113,1745225167641702274
79264,466,2673,2936,12067,-135,519,1745225167641702274
79456,520,2745,2930,12511,295,421,1745225167641702274
79648,474,2786,2963,12634,838,1099,1745225167641702274
79840,434,2784,2984,12838,1113,1411,1745225167641702274
80032,424,2753,3001,12982,1211,1662,1745225167641702274
80224,411,2740,3025,13134,1440,1732,1745225167701624123
80416,377,2730,3042,13166,1640,1888,1745225167701624123
80608,332,2732,3058,13133,1847,1925,1745225167701624123
80800,295,2758,3084,13069,2049,1895,1745225167701624123
80992,270,2800,3109,12984,2245,1864,1745225167701624123
81184,247,2840,3137,12999,2484,1832,1745225167701624123
81376,220,2891,3174,13030,2658,1771,1745225167701624123
81568,193,2960,3206,13099,2767,1880,1745225167701624123
81760,175,3017,3236,13158,2856,2047,1745225167701624123
81952,166,3082,3263,13224,2937,2251,1745225167701624123
82144,165,3144,3282,13253,3086,2439,1745225167701624123
82336,175,3237,3290,13280,3268,2517,1745225167701624123
82528,190,3342,3290,13329,3500,2601,1745225167753514065
82720,214,3449,3285,13498,3671,2658,1745225167753514065
82912,238,3541,3276,13635,3893,2630,1745225167753514065
83104,259,3646,3259,13768,4165,2569,1745225167753514065
83296,269,3781,3226,13851,4434,2535,1745225167753514065
83488,274,3930,3181,13930,4714,2604,1745225167753514065
83680,283,4092,3119,14048,4993,2739,1745225167753514065
83872,296,4255,3037,14194,5305,2939,1745225167753514065
84064,312,4401,2931,14472,5605,3140,1745225167753514065
84256,333,4537,2806,14795,5855,3345,1745225167753514065
84448,365,4671,2662,15240,6219,3533,1745225167753514065
84640,391,4814,2498,15674,6528,3674,1745225167753514065
84832,406,4964,2312,16110,6587,3613,1745225167870727213
85024,425,5071,2104,16426,6581,3631,1745225167870727213
85216,456,5183,1873,16568,6640,3575,1745225167870727213
85408,481,5302,1614,16702,6808,3334,1745225167870727213
85600,487,5431,1314,16743,7139,3059,1745225167870727213
85792,472,5559,988,16797,7618,2876,1745225167870727213
85984,455,5684,660,16931,8278,2798,1745225167870727213
86176,447,5811,348,17198,8969,2830,1745225167870727213
86368,462,5910,63,17556,9531,2878,1745225167870727213
86560,483,5992,-201,18035,10264,2835,1745225167870727213
86752,476,6069,-448,18306,10507,2976,1745225167870727213
86944,509,6123,-673,18490,10648,3060,1745225167870727213
87136,564,6170,-889,18628,10717,3071,1745225167881068994
87328,623,6205,-1115,18767,10721,3178,1745225167881068994
87520,679,6248,-1346,18954,10586,3238,1745225167881068994
87712,720,6283,-1583,19252,10352,3107,1745225167881068994
87904,738,6317,-1824,19593,10118,2851,1745225167881068994
88096,738,6356,-2069,19844,9959,2554,1745225167881068994
88288,741,6393,-2304,20031,10001,2338,1745225167881068994
88480,760,6408,-2522,20124,10246,2171,1745225167881068994
88672,798,6420,-2721,20241,10561,2014,1745225167881068994
88864,851,6402,-2896,20363,10845,1991,1745225167881068994
89056,932,6352,-3049,20500,10915,1893,1745225167881068994
89248,1039,6289,-3185,20622,10755,1865,1745225167881068994
89440,1161,6213,-3317,20698,10503,1899,1745225167924665002
89632,1293,6134,-3455,20712,10208,1939,1745225167924665002
89824,1429,6034,-3597,20734,9834,1824,1745225167924665002
90016,1566,5935,-3748,20765,9487,1817,1745225167924665002
90208,1702,5826,-3900,20807,9213,1591,1745225167924665002
90400,1830,5697,-4045,21000,8880,1453,1745225167924665002
90592,1975,5558,-4180,21043,8645,1134,1745225167924665002
90784,2128,5425,-4310,21078,8379,807,1745225167924665002
90976,2293,5279,-4444,20870,8051,583,1745225167924665002
91168,2466,5125,-4565,20638,7598,136,1745225167924665002
91360,2647,4976,-4666,20390,7028,-689,1745225167924665002
91552,2855,4830,-4732,20297,6450,-1128,1745225167924665002
91744,3101,4684,-4755,20379,5933,-1233,1745225167994199367
91936,3362,4507,-4761,20563,5409,-1038,1745225167994199367
92128,3615,4277,-4778,20700,4657,-1044,1745225167994199367
92320,3849,3993,-4824,20674,3637,-1406,1745225167994199367
92512,4066,3672,-4864,20561,2541,-1765,1745225167994199367
92704,4274,3350,-4877,20347,1553,-1973,1745225167994199367
92896,4433,3040,-4857,20063,642,-1978,1745225167994199367
93088,4543,2732,-4826,19540,-169,-1698,1745225167994199367
93280,4618,2418,-4798,18923,-871,-1565,1745225167994199367
93472,4655,2106,-4746,18355,-1410,-1490,1745225167994199367
93664,4594,1773,-4610,17702,-1245,-1803,1745225167994199367
93856,4478,1491,-4350,17819,-2607,-2051,1745225167994199367
94048,4351,1231,-4083,18105,-4023,-1557,1745225168040731546
94240,4168,934,-3842,18675,-5542,-1439,1745225168040731546
94432,3882,613,-3618,19117,-7081,-1155,1745225168040731546
94624,3490,321,-3415,19352,-8576,-829,1745225168040731546
94816,3011,-8,-3238,19163,-9878,-402,1745225168040731546
95008,2505,-353,-3109,18769,-10902,-277,1745225168040731546
95200,2022,-651,-3030,17976,-11505,-422,1745225168040731546
95392,1548,-929,-3003,17050,-11811,-429,1745225168040731546
95584,1098,-1135,-3015,15471,-10352,-1517,1745225168040731546
95776,773,-1115,-2881,13254,-5950,-2431,1745225168040731546
95968,284,-1268,-2904,12489,-7464,625,1745225168040731546
96160,124,-1389,-3106,13206,-10033,-34,1745225168040731546
96352,-98,-1360,-2836,13634,-11549,1203,1745225168102443743
96544,-269,-1403,-2555,13264,-9426,1208,1745225168102443743
96736,-489,-1587,-2194,13118,-6076,1832,1745225168102443743
96928,-634,-1720,-1758,12914,-3619,1777,1745225168102443743
97120,-492,-1847,-1580,11691,-1562,1753,1745225168102443743
97312,-175,-1840,-1649,9830,-423,2169,1745225168102443743
97504,131,-1915,-1762,8398,-445,2836,1745225168102443743
97696,395,-1929,-1717,7701,-1044,3193,1745225168102443743
97888,560,-1938,-1467,7537,-2058,3715,1745225168102443743
98080,672,-1970,-1133,7757,-2388,4297,1745225168102443743
98272,738,-1963,-812,7777,-2106,4436,1745225168102443743
98464,726,-1897,-615,7329,-1681,4447,1745225168102443743
98656,658,-1827,-562,6484,-1327,4815,1745225168159657647
98848,601,-1755,-533,5598,-819,5156,1745225168159657647
99040,583,-1655,-481,4642,-165,5606,1745225168159657647
99232,586,-1581,-370,4040,570,5885,1745225168159657647
99424,600,-1496,-216,3457,1308,6457,1745225168159657647
99616,612,-1361,-116,3024,1996,6286,1745225168159657647
99808,617,-1286,-34,2898,2579,6445,1745225168159657647
100000,598,-1190,17,2775,3156,6540,1745225168159657647
100192,591,-1099,103,2667,3691,6494,1745225168159657647
100384,601,-986,206,2767,4168,6352,1745225168159657647
100576,600,-881,255,2888,4544,6376,1745225168159657647
100768,577,-804,247,2953,4820,6666,1745225168159657647
100960,548,-726,222,2809,5117,6996,1745225168225271006
101152,519,-625,208,2571,5438,7153,1745225168225271006
101344,489,-513,203,2351,5872,7246,1745225168225271006
101536,480,-385,207,2214,6404,7167,1745225168225271006
101728,507,-269,168,2311,6836,7121,1745225168225271006
101920,526,-200,95,2453,7641,7053,1745225168225271006
102112,470,-167,25,2599,8101,7188,1745225168225271006
102304,426,-145,-24,2721,8417,7149,1745225168225271006
102496,425,-144,-66,2841,8525,7152,1745225168225271006
102688,450,-161,-113,2846,8510,7068,1745225168225271006
102880,463,-171,-168,2690,8414,6931,1745225168225271006
103072,448,-156,-218,2424,8214,6744,1745225168225271006
103264,419,-121,-250,2258,7935,6544,1745225168274672898
103456,391,-69,-275,2197,7584,6300,1745225168274672898
103648,355,-15,-306,2250,7268,6034,1745225168274672898
103840,314,25,-336,2401,7026,6066,1745225168274672898
104032,267,75,-354,2553,6801,6016,1745225168274672898
104224,212,128,-383,2635,6550,6172,1745225168274672898
104416,162,176,-427,2605,6377,6239,1745225168274672898
104608,110,224,-465,2553,6347,6121,1745225168274672898
104800,45,251,-476,2688,6307,6008,1745225168274672898
104992,-26,262,-468,2998,6138,5895,1745225168274672898
105184,-77,273,-451,3355,6080,5886,1745225168274672898
105376,-101,255,-401,3771,6308,5861,1745225168274672898
105568,-104,235,-335,4052,6621,5684,1745225168335040889
105760,-82,211,-294,4270,6722,5583,1745225168335040889
105952,-33,172,-290,4353,6631,5475,1745225168335040889
106144,30,125,-289,4398,6378,5375,1745225168335040889
106336,88,89,-286,4355,6038,5160,1745225168335040889
106528,120,59,-284,4369,5610,5003,1745225168335040889
106720,134,35,-287,4371,5199,4940,1745225168335040889
106912,132,21,-291,4292,4870,4829,1745225168335040889
107104,114,16,-297,4145,4776,4788,1745225168335040889
107296,75,27,-305,4014,4773,4610,1745225168335040889
107488,19,29,-310,4013,4822,4596,1745225168335040889
107680,-43,17,-299,4158,4839,4614,1745225168335040889
107872,-101,-2,-272,4342,4795,4781,1745225168392721976
108064,-144,-25,-234,4408,4779,4806,1745225168392721976
108256,-187,-46,-203,4291,4849,4554,1745225168392721976
108448,-223,-66,-175,4138,4991,4541,1745225168392721976
108640,-249,-73,-150,3918,5117,4453,1745225168392721976
108832,-274,-80,-116,3859,5189,4403,1745225168392721976
109024,-279,-83,-74,3874,5240,4404,1745225168392721976
109216,-260,-80,-38,4019,5240,4266,1745225168392721976
109408,-218,-94,-21,4167,5186,4290,1745225168392721976
109600,-173,-115,-24,4180,5157,4335,1745225168392721976
109792,-131,-129,-32,4031,5194,4434,1745225168392721976
109984,-83,-136,-32,3805,5247,4412,1745225168392721976
110176,-38,-147,-31,3570,5274,4433,1745225168464411165
110368,0,-147,-38,3368,5268,4466,1745225168464411165
110560,20,-135,-43,3275,5209,4539,1745225168464411165
110752,20,-123,-42,3264,5188,4661,1745225168464411165
110944,-1,-105,-35,3231,5202,4708,1745225168464411165
111136,-25,-82,-26,3124,5316,4752,1745225168464411165
111328,-44,-49,-21,3028,5473,4648,1745225168464411165
111520,-58,-17,-24,2970,5633,4525,1745225168464411165
111712,-51,21,-30,2902,5820,4458,1745225168464411165
111904,-26,57,-33,2957,6010,4354,1745225168464411165
112096,10,81,-36,3077,6150,4312,1745225168464411165
112288,52,101,-45,3168,6211,4330,1745225168464411165
112480,95,118,-56,3231,6239,4299,1745225168508043371
112672,134,123,-68,3328,6207,4431,1745225168508043371
112864,156,114,-93,3433,6126,4525,1745225168508043371
113056,156,96,-124,3526,5968,4612,1745225168508043371
113248,144,80,-158,3502,5853,4628,1745225168508043371
113440,116,64,-192,3387,5849,4597,1745225168508043371
113632,72,55,-223,3236,5949,4565,1745225168508043371
113824,22,54,-245,3086,6082,4503,1745225168508043371
114016,-12,64,-253,3033,6182,4421,1745225168508043371
114208,-24,65,-249,3132,6233,4339,1745225168508043371
114400,-16,56,-243,3274,6273,4479,1745225168508043371
114592,-8,45,-237,3377,6300,4555,1745225168508043371
114784,-14,27,-227,3408,6295,4577,1745225168566894239
114976,-19,7,-217,3335,6277,4727,1745225168566894239
115168,-30,-5,-210,3212,6232,4695,1745225168566894239
115360,-46,-13,-203,3127,6094,4750,1745225168566894239
115552,-58,-13,-200,3074,5961,4737,1745225168566894239
115744,-63,-8,-197,3096,5893,4797,1745225168566894239
115936,-56,1,-204,3115,5903,4920,1745225168566894239
116128,-58,8,-219,3186,5918,4866,1745225168566894239
116320,-55,8,-231,3253,5899,4947,1745225168566894239
116512,-34,4,-240,3305,5873,4953,1745225168566894239
116704,-11,-4,-252,3299,5876,4977,1745225168566894239
116896,5,-7,-268,3241,5955,5014,1745225168566894239
117088,10,-11,-280,3206,6010,5059,1745225168634816067
117280,7,-16,-290,3256,5996,5031,1745225168634816067
117472,3,-24,-294,3359,5915,5058,1745225168634816067
117664,8,-35,-293,3472,5823,5163,1745225168634816067
117856,9,-53,-289,3492,5748,5229,1745225168634816067
118048,-5,-71,-289,3375,5754,5319,1745225168634816067
118240,-27,-78,-286,3182,5757,5249,1745225168634816067
118432,-46,-81,-278,3045,5725,5256,1745225168634816067
118624,-58,-77,-265,3024,5709,5241,1745225168634816067
118816,-75,-64,-253,3064,5717,5229,1745225168634816067
119008,-95,-46,-242,3184,5712,5151,1745225168634816067
119200,-106,-34,-236,3294,5683,5070,1745225168634816067
119392,-96,-28,-232,3350,5583,5031,1745225168683465362
119584,-64,-24,-230,3301,5507,5017,1745225168683465362
119776,-25,-17,-230,3187,5441,4962,1745225168683465362
119968,13,-4,-230,3091,5429,5078,1745225168683465362
120160,39,18,-229,3021,5492,5078,1745225168683465362
120352,45,39,-221,3037,5475,5038,1745225168683465362
120544,48,57,-210,3131,5431,4954,1745225168683465362
120736,53,73,-200,3293,5379,4890,1745225168683465362
120928,55,84,-194,3406,5369,4964,1745225168683465362
121120,48,100,-193,3489,5376,4871,1745225168683465362
121312,47,106,-193,3564,5368,4882,1745225168683465362
121504,64,101,-194,3542,5362,4799,1745225168683465362
121696,81,93,-196,3469,5357,4685,1745225168744875322
121888,94,84,-195,3396,5340,4741,1745225168744875322
122080,99,81,-188,3314,5264,4718,1745225168744875322
122272,94,80,-174,3249,5236,4771,1745225168744875322
122464,83,85,-150,3165,5280,4769,1745225168744875322
122656,65,93,-118,3122,5343,4732,1745225168744875322
122848,48,100,-87,3071,5418,4713,1745225168744875322
123040,36,108,-57,3053,5525,4673,1745225168744875322
123232,32,124,-29,3039,5590,4580,1745225168744875322
123424,38,133,0,3123,5654,4567,1745225168744875322
123616,53,141,21,3200,5699,4656,1745225168744875322
123808,69,150,36,3229,5771,4725,1745225168744875322
124000,83,157,50,3283,5843,4689,1745225168800272420
124192,99,156,56,3366,5895,4691,1745225168800272420
124384,123,161,41,3375,5966,4751,1745225168800272420
124576,147,160,28,3415,6163,4696,1745225168800272420
124768,170,155,19,3453,6356,4534,1745225168800272420
124960,192,147,3,3539,6429,4408,1745225168800272420
125152,219,122,-15,3598,6477,4464,1745225168800272420
125344,239,105,-23,3542,6559,4457,1745225168800272420
125536,246,94,-24,3406,6633,4455,1745225168800272420
125728,246,79,-16,3278,6675,4463,1745225168800272420
125920,235,66,-8,3163,6651,4482,1745225168800272420
126112,205,59,-1,3077,6629,4591,1745225168800272420
126304,162,54,11,3058,6622,4728,1745225168860006926
126496,109,51,19,2978,6641,4845,1745225168860006926
126688,53,48,17,2902,6670,4913,1745225168860006926
126880,5,47,8,2824,6681,4928,1745225168860006926
127072,-29,52,-5,2780,6651,4950,1745225168860006926
127264,-51,59,-20,2760,6648,4914,1745225168860006926
127456,-61,72,-32,2783,6596,4813,1745225168860006926
127648,-49,81,-42,2833,6543,4837,1745225168860006926
127840,-18,90,-55,2823,6592,4860,1745225168860006926
128032,7,105,-70,2735,6673,4759,1745225168860006926
128224,35,118,-81,2664,6716,4725,1745225168860006926
128416,76,126,-90,2649,6692,4740,1745225168860006926
128608,109,132,-97,2665,6730,4855,1745225168921110431
128800,109,146,-100,2680,6749,4812,1745225168921110431
128992,83,158,-97,2753,6780,4829,1745225168921110431
129184,55,168,-95,2833,6853,4905,1745225168921110431
129376,21,179,-94,2874,6948,4903,1745225168921110431
129568,-17,184,-97,2947,7026,4915,1745225168921110431
129760,-50,182,-105,3030,7042,4852,1745225168921110431
129952,-68,175,-120,3095,7041,4879,1745225168921110431
130144,-71,168,-140,3085,7039,4862,1745225168921110431
130336,-69,162,-162,3043,7021,4827,1745225168921110431
130528,-57,155,-185,2985,6933,4829,1745225168921110431
130720,-33,149,-205,2980,6824,4871,1745225168921110431
130912,-13,139,-222,2943,6685,4916,1745225168975876545
131104,-2,130,-233,2909,6519,4940,1745225168975876545
131296,9,119,-235,2770,6362,4948,1745225168975876545
131488,17,112,-232,2597,6254,4895,1745225168975876545
131680,20,116,-227,2418,6198,4862,1745225168975876545
131872,19,135,-220,2315,6192,4835,1745225168975876545
132064,5,155,-208,2335,6181,4787,1745225168975876545
132256,-7,168,-195,2442,6111,4837,1745225168975876545
132448,-12,172,-186,2563,6087,4873,1745225168975876545
132640,-14,171,-180,2613,6061,4947,1745225168975876545
132832,-18,167,-179,2571,6091,4963,1745225168975876545
133024,-23,160,-182,2487,6148,4974,1745225168975876545
133216,-27,150,-187,2419,6174,4990,1745225169043707696
133408,-33,139,-192,2396,6152,5029,1745225169043707696
133600,-41,128,-193,2414,6100,5073,1745225169043707696
133792,-49,119,-189,2427,6093,5083,1745225169043707696
133984,-56,107,-188,2385,6123,5020,1745225169043707696
134176,-60,92,-188,2335,6152,4972,1745225169043707696
134368,-64,83,-188,2266,6140,4916,1745225169043707696
134560,-67,76,-183,2269,6046,4840,1745225169043707696
134752,-60,66,-170,2289,5935,4839,1745225169043707696
134944,-52,57,-158,2314,5837,4807,1745225169043707696
135136,-55,50,-147,2313,5797,4843,1745225169043707696
135328,-71,49,-137,2272,5817,4834,1745225169043707696
135520,-93,55,-126,2165,5875,4752,1745225169097101219
135712,-108,61,-112,2090,5954,4734,1745225169097101219
135904,-119,72,-101,2072,6045,4681,1745225169097101219
136096,-129,77,-92,2134,6123,4749,1745225169097101219
136288,-126,82,-84,2206,6200,4867,1745225169097101219
136480,-116,83,-74,2283,6254,4818,1745225169097101219
136672,-99,75,-67,2345,6244,4815,1745225169097101219
136864,-72,67,-70,2343,6202,4726,1745225169097101219
137056,-41,59,-69,2321,6185,4605,1745225169097101219
137248,-14,52,-65,2265,6196,4469,1745225169097101219
137440,5,47,-66,2215,6198,4409,1745225169097101219
137632,17,42,-63,2176,6244,4520,1745225169097101219
137824,12,40,-57,2200,6305,4628,1745225169179915358
138016,-5,42,-47,2218,6415,4778,1745225169179915358
138208,-22,36,-36,2269,6494,4773,1745225169179915358
138400,-40,22,-33,2354,6534,4751,1745225169179915358
138592,-63,5,-36,2419,6576,4760,1745225169179915358
138784,-93,-9,-40,2459,6619,4788,1745225169179915358
138976,-127,-19,-44,2458,6672,4852,1745225169179915358
139168,-150,-24,-49,2402,6745,4849,1745225169179915358
139360,-157,-26,-54,2342,6805,4871,1745225169179915358
139552,-149,-24,-63,2270,6831,4853,1745225169179915358
139744,-135,-17,-71,2232,6853,4854,1745225169179915358
139936,-113,-4,-74,2199,6863,4912,1745225169179915358
140128,-92,14,-70,2170,6841,4876,1745225169220025200
140320,-70,33,-63,2204,6787,4854,1745225169220025200
140512,-41,51,-56,2264,6743,4884,1745225169220025200
140704,-19,68,-51,2366,6683,4930,1745225169220025200
140896,-2,78,-43,2448,6674,5122,1745225169220025200
141088,2,86,-37,2483,6631,5188,1745225169220025200
141280,-7,88,-34,2463,6595,5230,1745225169220025200
141472,-13,88,-30,2475,6561,5309,1745225169220025200
141664,-20,90,-31,2497,6532,5262,1745225169220025200
141856,-30,88,-35,2576,6467,5327,1745225169220025200
142048,-41,84,-42,2626,6437,5430,1745225169220025200
142240,-56,83,-48,2636,6434,5387,1745225169220025200
142432,-67,86,-51,2629,6473,5270,1745225169269934640
142624,-69,92,-58,2617,6551,5125,1745225169269934640
142816,-71,98,-68,2643,6614,5012,1745225169269934640
143008,-69,103,-76,2658,6690,4983,1745225169269934640
143200,-59,103,-79,2640,6784,4907,1745225169269934640
143392,-45,98,-80,2604,6827,4803,1745225169269934640
143584,-29,89,-80,2541,6817,4833,1745225169269934640
143776,-24,78,-78,2517,6707,4824,1745225169269934640
143968,-31,66,-70,2428,6602,4908,1745225169269934640
144160,-41,57,-56,2296,6525,4924,1745225169269934640
144352,-55,52,-45,2158,6483,4962,1745225169269934640
144544,-70,38,-33,2111,6438,5053,1745225169269934640
144736,-89,37,-33,1982,6336,5092,1745225169326272615
144928,-124,37,-31,1941,6219,5119,1745225169326272615
145120,-153,21,-20,1952,6159,5171,1745225169326272615
145312,-172,31,-14,1834,6157,5222,1745225169326272615
145504,-190,37,-17,1757,6241,5251,1745225169326272615
145696,-200,37,-19,1694,6374,5280,1745225169326272615
145888,-202,57,-23,1643,6441,5213,1745225169326272615
146080,-195,64,-27,1697,6493,5204,1745225169326272615
146272,-176,69,-26,1789,6547,5095,1745225169326272615
146464,-152,79,-34,1855,6515,5043,1745225169326272615
146656,-122,75,-44,1969,6507,5062,1745225169326272615
146848,-91,73,-55,2002,6486,5052,1745225169326272615
147040,-69,76,-68,1986,6438,5055,1745225169388541838
147232,-50,71,-76,1967,6418,5067,1745225169388541838
147424,-36,71,-81,1870,6368,5014,1745225169388541838
147616,-28,71,-87,1819,6300,5017,1745225169388541838
147808,-27,71,-88,1784,6238,4946,1745225169388541838
148000,-27,73,-82,1790,6143,4956,1745225169388541838
148192,-22,68,-77,1815,6013,4924,1745225169388541838
148384,-13,50,-71,1861,5921,4925,1745225169388541838
148576,-4,34,-65,1822,5840,5038,1745225169388541838
148768,-5,27,-57,1692,5879,5063,1745225169388541838
148960,-15,26,-44,1626,5927,4925,1745225169388541838
149152,-20,25,-25,1636,5876,4829,1745225169388541838
149344,-14,18,-4,1723,5841,4855,1745225169451272931
149536,-14,11,17,1792,5851,4980,1745225169451272931
149728,-31,6,38,1798,5941,5056,1745225169451272931
149920,-57,2,58,1802,6006,5028,1745225169451272931
150112,-68,-9,71,1855,5981,5053,1745225169451272931
150304,-64,-18,74,1905,5957,5036,1745225169451272931
150496,-61,-22,68,1937,5981,5068,1745225169451272931
150688,-60,-18,58,1952,6077,5047,1745225169451272931
150880,-54,-16,50,1941,6205,4973,1745225169451272931
151072,-34,-16,39,1984,6246,4917,1745225169451272931
151264,-2,-20,26,2049,6254,4933,1745225169451272931
151456,26,-25,14,2040,6303,4950,1745225169451272931
151648,38,-26,6,2001,6437,5046,1745225169501569816
151840,37,-28,2,1945,6598,5191,1745225169501569816
152032,24,-24,-1,1885,6719,5135,1745225169501569816
152224,10,-20,-2,1900,6732,5085,1745225169501569816
152416,6,-21,-7,2021,6673,5025,1745225169501569816
152608,6,-35,-17,2169,6627,5075,1745225169501569816
152800,-1,-53,-29,2192,6653,5112,1745225169501569816
152992,-22,-65,-35,2110,6702,5004,1745225169501569816
153184,-39,-74,-38,2029,6708,4877,1745225169501569816
153376,-42,-80,-41,2010,6676,4850,1745225169501569816
153568,-40,-89,-46,2029,6651,5004,1745225169501569816
153760,-49,-87,-51,2029,6724,5029,1745225169501569816
153952,-69,-80,-51,2096,6761,5013,1745225169571647196
154144,-72,-83,-52,2253,6693,5014,1745225169571647196
154336,-56,-97,-60,2376,6513,4975,1745225169571647196
154528,-38,-118,-75,2411,6316,4955,1745225169571647196
154720,-26,-131,-88,2317,6148,4968,1745225169571647196
154912,-16,-135,-98,2129,6031,4911,1745225169571647196
155104,-8,-131,-102,1956,5959,4897,1745225169571647196
155296,2,-118,-102,1835,5927,5005,1745225169571647196
155488,5,-99,-99,1868,5873,5057,1745225169571647196
155680,-1,-84,-89,1940,5860,5153,1745225169571647196
155872,-12,-72,-73,2037,5877,5124,1745225169571647196
156064,-22,-60,-54,2120,5869,5066,1745225169571647196
156256,-18,-52,-42,2183,5925,5049,1745225169637733416
156448,-11,-48,-34,2246,5957,5045,1745225169637733416
156640,-6,-47,-27,2328,6021,5156,1745225169637733416
156832,-6,-45,-22,2387,6077,5238,1745225169637733416
157024,-11,-44,-14,2424,6092,5205,1745225169637733416
157216,-11,-49,-5,2486,6035,5249,1745225169637733416
157408,-2,-53,0,2484,5981,5280,1745225169637733416
157600,7,-56,4,2475,5926,5242,1745225169637733416
157792,17,-61,7,2438,5848,5205,1745225169637733416
157984,29,-64,9,2422,5786,5188,1745225169637733416
158176,35,-64,13,2384,5748,5175,1745225169637733416
158368,30,-60,21,2336,5782,5255,1745225169637733416
158560,16,-45,32,2265,5868,5260,1745225169738228591
158752,1,-25,44,2233,5958,5173,1745225169738228591
158944,0,-9,51,2291,6003,5152,1745225169738228591
159136,10,0,55,2399,5992,5145,1745225169738228591
159328,25,2,59,2452,5954,5165,1745225169738228591
159520,43,1,61,2387,5968,5227,1745225169738228591
159712,54,6,60,2248,6036,5171,1745225169738228591
159904,59,22,58,2139,6102,5106,1745225169738228591
160096,73,39,61,2157,6109,4996,1745225169738228591
160288,98,52,67,2292,6072,4871,1745225169738228591
160480,125,59,75,2400,6050,4818,1745225169738228591
160672,144,64,84,2400,6079,4756,1745225169738228591
160864,158,64,95,2359,6120,4749,1745225169787318195
161056,168,62,103,2302,6189,4887,1745225169787318195
161248,164,62,110,2248,6213,4975,1745225169787318195
161440,146,61,118,2303,6187,5005,1745225169787318195
161632,131,51,128,2382,6123,5039,1745225169787318195
161824,120,38,133,2432,6079,4963,1745225169787318195
162016,111,21,131,2467,6049,4951,1745225169787318195
162208,112,2,121,2460,6091,4902,1745225169787318195
162400,109,-20,110,2438,6166,4857,1745225169787318195
162592,109,-43,102,2388,6235,4888,1745225169787318195
162784,108,-66,99,2347,6321,4854,1745225169787318195
162976,113,-92,105,2300,6365,4827,1745225169787318195
163168,115,-99,106,2193,6361,4743,1745225169800369430
163360,112,-121,118,2215,6323,4712,1745225169800369430
163552,106,-131,128,2188,6268,4701,1745225169800369430
163744,91,-132,139,2155,6190,4720,1745225169800369430
163936,73,-134,149,2085,6251,4780,1745225169800369430
164128,57,-118,160,1992,6351,4806,1745225169800369430
164320,44,-105,164,2002,6436,4902,1745225169800369430
164512,43,-107,168,2077,6548,5094,1745225169800369430
164704,42,-101,169,2096,6631,5167,1745225169800369430
164896,43,-103,167,2135,6659,5202,1745225169800369430
165088,57,-112,164,2189,6653,5216,1745225169800369430
165280,77,-118,156,2229,6589,5246,1745225169800369430
165472,92,-125,148,2232,6564,5222,1745225169851563285
165664,102,-123,140,2277,6562,5135,1745225169851563285
165856,111,-116,128,2348,6531,5121,1745225169851563285
166048,125,-114,114,2435,6544,5113,1745225169851563285
166240,133,-111,98,2491,6521,5030,1745225169851563285
166432,140,-109,82,2533,6485,5006,1745225169851563285
166624,147,-109,68,2524,6464,5007,1745225169851563285
166816,145,-101,58,2503,6417,4926,1745225169851563285
167008,142,-93,55,2488,6340,4952,1745225169851563285
167200,143,-82,59,2499,6292,4911,1745225169851563285
167392,141,-73,67,2528,6220,4978,1745225169851563285
167584,135,-67,77,2542,6206,5064,1745225169851563285
167776,118,-57,88,2539,6177,5026,1745225169917027375
167968,97,-47,101,2557,6097,4973,1745225169917027375
168160,87,-41,113,2603,5996,4945,1745225169917027375
168352,83,-32,124,2638,5950,4954,1745225169917027375
168544,83,-23,134,2687,6016,5038,1745225169917027375
168736,84,-16,139,2743,6084,5025,1745225169917027375
168928,87,-15,139,2802,6137,4987,1745225169917027375
169120,92,-15,140,2883,6133,4918,1745225169917027375
169312,95,-15,143,2943,6099,4814,1745225169917027375
169504,100,-13,151,2971,6046,4828,1745225169917027375
169696,103,-10,159,2947,6034,4791,1745225169917027375
169888,104,-2,168,2865,5998,4786,1745225169917027375
170080,117,7,175,2822,5933,4791,1745225169978695301
170272,136,17,180,2808,5873,4803,1745225169978695301
170464,148,30,182,2782,5848,4839,1745225169978695301
170656,155,44,188,2784,5816,4772,1745225169978695301
170848,161,55,197,2786,5829,4753,1745225169978695301
171040,167,69,204,2766,5899,4735,1745225169978695301
171232,166,84,212,2770,5945,4724,1745225169978695301
171424,164,94,225,2810,5975,4766,1745225169978695301
171616,158,100,238,2894,5978,4792,1745225169978695301
171808,147,101,252,2954,5935,4843,1745225169978695301
172000,135,100,266,2913,5947,4975,1745225169978695301
172192,116,104,277,2817,6004,4971,1745225169978695301
172384,96,106,284,2747,6049,4973,1745225170026976943
172576,87,111,285,2717,6083,4971,1745225170026976943
172768,82,120,284,2758,6095,4870,1745225170026976943
172960,82,127,283,2843,6096,4780,1745225170026976943
173152,93,133,283,2918,6149,4708,1745225170026976943
173344,104,136,285,2979,6231,4701,1745225170026976943
173536,111,140,291,2998,6317,4736,1745225170026976943
173728,112,142,297,2999,6406,4802,1745225170026976943
173920,112,140,306,3005,6474,4896,1745225170026976943
174112,108,137,316,2998,6514,5001,1745225170026976943
174304,89,137,326,2993,6528,4987,1745225170026976943
174496,70,138,330,3036,6465,4955,1745225170026976943
174688,66,138,325,3078,6426,4900,1745225170102513805
174880,64,140,314,3078,6428,4851,1745225170102513805
175072,57,145,303,3051,6479,4830,1745225170102513805
175264,52,154,296,2979,6511,4755,1745225170102513805
175456,56,167,294,2911,6550,4751,1745225170102513805
175648,69,183,295,2868,6614,4736,1745225170102513805
175840,80,198,297,2854,6681,4626,1745225170102513805
176032,92,204,299,2895,6737,4676,1745225170102513805
176224,108,206,300,2903,6812,4687,1745225170102513805
176416,121,199,299,2927,6839,4659,1745225170102513805
176608,134,181,293,2914,6885,4712,1745225170102513805
176800,134,162,280,2886,6890,4665,1745225170102513805
176992,122,144,264,2854,6840,4664,1745225170148769008
177376,81,113,233,2791,6795,4657,1745225170148769008
177568,50,101,217,2756,6784,4626,1745225170148769008
177760,18,90,199,2707,6763,4558,1745225170148769008
177952,-11,80,180,2662,6765,4568,1745225170148769008
178144,-39,75,159,2574,6747,4466,1745225170148769008
178336,-62,75,141,2468,6773,4444,1745225170148769008
178528,-68,76,127,2406,6812,4510,1745225170148769008
178720,-70,73,116,2335,6842,4543,1745225170148769008
178912,-70,72,108,2247,6860,4568,1745225170148769008
179104,-61,71,106,2207,6775,4537,1745225170148769008
179296,-44,67,103,2190,6649,4438,1745225170148769008
179488,-24,62,97,2158,6478,4274,1745225170227711672
179680,-4,62,99,2108,6357,4143,1745225170227711672
179872,15,64,104,2076,6325,4060,1745225170227711672
180064,28,71,107,2103,6279,3935,1745225170227711672
180256,43,69,113,2237,6236,3952,1745225170227711672
180448,67,61,118,2373,6265,3977,1745225170227711672
180640,78,45,123,2521,6374,4042,1745225170227711672
180832,72,27,123,2579,6518,4056,1745225170227711672
181024,57,7,119,2653,6584,3948,1745225170227711672
181216,51,-18,114,2796,6580,3888,1745225170227711672
181408,51,-48,105,2970,6545,3815,1745225170227711672
181600,44,-81,91,3126,6538,3820,1745225170227711672
181792,29,-116,74,3252,6637,3982,1745225170275878888
181984,-3,-147,53,3287,6753,4116,1745225170275878888
182176,-48,-176,32,3263,6814,4126,1745225170275878888
182368,-84,-201,16,3232,6825,4102,1745225170275878888
182560,-104,-224,-1,3186,6805,4096,1745225170275878888
182752,-118,-237,-21,3122,6792,4098,1745225170275878888
182944,-124,-242,-34,3108,6790,4182,1745225170275878888
183136,-119,-241,-39,3097,6755,4273,1745225170275878888
183328,-102,-242,-40,3100,6710,4398,1745225170275878888
183520,-75,-244,-39,3064,6602,4527,1745225170275878888
183712,-49,-245,-40,3049,6468,4631,1745225170275878888
183904,-22,-245,-41,3053,6338,4751,1745225170275878888
184096,-5,-243,-41,3074,6211,4834,1745225170326390614
184288,4,-237,-38,3084,6109,4942,1745225170326390614
184480,5,-227,-34,3075,6024,4986,1745225170326390614
184672,-2,-220,-30,3078,5912,5074,1745225170326390614
184864,-13,-208,-28,3059,5831,5207,1745225170326390614
185056,-34,-189,-20,3074,5757,5315,1745225170326390614
185248,-59,-165,-8,3097,5720,5461,1745225170326390614
185440,-81,-134,2,3118,5722,5501,1745225170326390614
185632,-100,-103,10,3157,5732,5526,1745225170326390614
185824,-112,-68,12,3212,5738,5563,1745225170326390614
186016,-114,-28,12,3320,5745,5548,1745225170326390614
186208,-106,10,13,3440,5756,5533,1745225170326390614
186400,-87,40,16,3566,5770,5580,1745225170387374328
186592,-65,69,21,3659,5781,5622,1745225170387374328
186784,-40,102,31,3735,5733,5584,1745225170387374328
186976,-11,133,51,3858,5596,5599,1745225170387374328
187168,18,163,76,3992,5346,5663,1745225170387374328
187360,48,190,113,4093,5041,5788,1745225170387374328
187552,74,222,160,4161,4738,5898,1745225170387374328
187744,88,259,209,4180,4430,5891,1745225170387374328
187936,98,301,259,4177,4120,5906,1745225170387374328
188128,106,351,313,4167,3865,5941,1745225170387374328
188320,101,407,372,4188,3609,6012,1745225170387374328
188512,86,468,436,4325,3444,6212,1745225170387374328
188704,68,533,505,4487,3255,6323,1745225170444629013
188896,50,596,579,4728,3004,6413,1745225170444629013
189088,39,656,652,4976,2738,6535,1745225170444629013
189280,34,716,732,5186,2459,6741,1745225170444629013
189472,31,777,820,5347,2153,6932,1745225170444629013
189664,25,851,909,5427,1848,7050,1745225170444629013
189856,18,923,1003,5545,1523,7070,1745225170444629013
190048,17,1013,1102,5677,1118,6974,1745225170444629013
190240,27,1115,1210,5867,661,6896,1745225170444629013
190432,44,1225,1331,6102,176,6739,1745225170444629013
190624,68,1350,1459,6328,-332,6430,1745225170444629013
190816,100,1486,1589,6546,-728,5980,1745225170444629013
191008,145,1620,1724,6849,-1246,5332,1745225170504029981
191200,206,1758,1879,7064,-1792,4623,1745225170504029981
191392,289,1882,2048,7250,-2258,4127,1745225170504029981
191584,379,2005,2210,7347,-2565,3778,1745225170504029981
191776,446,2134,2358,7361,-2802,3497,1745225170504029981
191968,477,2269,2502,7441,-3032,3138,1745225170504029981
192160,491,2401,2651,7643,-3290,2726,1745225170504029981
192352,506,2527,2807,7953,-3510,2404,1745225170504029981
192544,525,2644,2965,8288,-3662,2228,1745225170504029981
192736,539,2750,3117,8626,-3717,2096,1745225170504029981
192928,530,2840,3261,8971,-3750,1811,1745225170504029981
193120,504,2917,3395,9328,-3775,1401,1745225170504029981
193312,477,2981,3521,9693,-3777,923,1745225170561910702
193504,457,3034,3640,10026,-3770,457,1745225170561910702
193696,451,3064,3770,10438,-3715,-62,1745225170561910702
193888,454,3086,3899,10792,-3648,-571,1745225170561910702
194080,453,3100,4029,11164,-3576,-1082,1745225170561910702
194272,444,3108,4168,11529,-3494,-1614,1745225170561910702
194464,425,3105,4324,11889,-3448,-2052,1745225170561910702
194656,383,3095,4494,12293,-3330,-2342,1745225170561910702
194848,322,3080,4672,12643,-3280,-2437,1745225170561910702
195040,234,3049,4867,13009,-3220,-2480,1745225170561910702
195232,105,2994,5072,13409,-3114,-2430,1745225170561910702
195424,-79,2933,5268,13474,-2021,-2519,1745225170561910702
195616,-376,2834,5418,14301,-3106,-1379,1745225170623930605
195808,-645,2682,5760,15757,-3511,-1316,1745225170623930605
196000,-834,2364,5899,16987,-4021,-912,1745225170623930605
196192,-1041,1953,5865,17711,-3777,-818,1745225170623930605
196384,-1320,1510,5766,18568,-3775,-611,1745225170623930605
196576,-1582,1021,5828,19496,-3359,-597,1745225170623930605
196768,-1782,645,5982,19869,-2815,-1334,1745225170623930605
196960,-2044,270,5965,19646,-1961,-1794,1745225170623930605
197152,-2338,-97,5946,19332,-918,-1878,1745225170623930605
197344,-2618,-419,6073,19622,-542,-1971,1745225170623930605
197536,-2840,-788,6207,20454,85,-1801,1745225170623930605
197728,-3029,-1192,6323,21649,420,-1835,1745225170623930605
197920,-3238,-1621,6274,22442,687,-1864,1745225170694933914
198112,-3494,-2025,6133,22999,835,-1813,1745225170694933914
198304,-3772,-2437,5986,23295,1166,-1698,1745225170694933914
198496,-4066,-2810,5861,23545,1702,-1733,1745225170694933914
198688,-4378,-3177,5700,23705,2451,-1549,1745225170694933914
198880,-4705,-3545,5489,23858,3238,-1286,1745225170694933914
199072,-5028,-3906,5224,23888,4147,-829,1745225170694933914
199264,-5319,-4301,4939,24018,5100,-435,1745225170694933914
199456,-5579,-4671,4616,24061,6141,-5,1745225170694933914
199648,-5803,-5087,4285,24165,7164,662,1745225170694933914
199840,-5967,-5531,3956,24226,8096,1178,1745225170694933914
200032,-6075,-5984,3626,24210,8772,1703,1745225170694933914
200224,-6155,-6431,3251,23905,9134,2261,1745225170736343276
200416,-6216,-6838,2844,23414,9308,2836,1745225170736343276
200608,-6271,-7215,2433,22954,9268,3325,1745225170736343276
200800,-6325,-7551,2015,22365,9277,3600,1745225170736343276
200992,-6380,-7823,1601,21777,9251,3803,1745225170736343276
201184,-6418,-8037,1179,21091,9332,3871,1745225170736343276
201376,-6418,-8166,762,20402,9417,3868,1745225170736343276
201568,-6364,-8217,332,19714,9430,3839,1745225170736343276
201760,-6261,-8221,-110,19238,9523,3640,1745225170736343276
201952,-6118,-8170,-563,18976,9615,3432,1745225170736343276
202144,-5943,-8101,-1020,18957,9686,3379,1745225170736343276
202336,-5725,-8032,-1471,19054,9649,3262,1745225170736343276
202528,-5463,-7957,-1907,19252,9484,3295,1745225170796406894
202720,-5135,-7830,-2317,18799,9452,3108,1745225170796406894
202912,-4736,-7661,-2680,18569,9247,2816,1745225170796406894
203104,-4300,-7510,-3044,18032,9155,2347,1745225170796406894
203296,-3831,-7317,-3371,17638,9227,1815,1745225170796406894
203488,-3329,-7083,-3637,17372,9288,1398,1745225170796406894
203680,-2836,-6851,-3866,17388,9148,912,1745225170796406894
203872,-2385,-6656,-4078,17478,8868,497,1745225170796406894
204064,-1961,-6453,-4235,17408,8542,242,1745225170796406894
204256,-1555,-6251,-4301,17381,8312,41,1745225170796406894
204448,-1173,-6058,-4292,17329,8070,-52,1745225170796406894
204640,-825,-5869,-4258,17222,7750,-111,1745225170796406894
204832,-516,-5689,-4236,16986,7331,-220,1745225170861978743
205024,-247,-5516,-4220,16648,6809,-293,1745225170861978743
205216,-7,-5350,-4198,16301,6207,-416,1745225170861978743
205408,195,-5188,-4161,16053,5502,-586,1745225170861978743
205600,342,-5029,-4118,15800,4750,-760,1745225170861978743
205792,439,-4873,-4069,15474,4016,-686,1745225170861978743
205984,499,-4702,-4023,15040,3374,-677,1745225170861978743
206176,525,-4530,-3977,14570,2764,-772,1745225170861978743
206368,544,-4358,-3936,14025,2274,-755,1745225170861978743
206560,554,-4188,-3912,13450,1949,-710,1745225170861978743
206752,560,-4009,-3902,12850,1785,-895,1745225170861978743
206944,599,-3819,-3871,12383,1777,-971,1745225170861978743
207136,694,-3651,-3813,12198,1738,-994,1745225170912187763
207328,826,-3512,-3738,12115,1541,-1026,1745225170912187763
207520,974,-3404,-3644,12038,1050,-842,1745225170912187763
207712,1132,-3327,-3539,11794,347,-709,1745225170912187763
207904,1292,-3213,-3403,11233,-356,-710,1745225170912187763
208096,1404,-3052,-3224,10677,-1047,-818,1745225170912187763
208288,1451,-2874,-3015,10231,-1764,-968,1745225170912187763
208480,1448,-2700,-2801,9747,-2362,-1176,1745225170912187763
208672,1403,-2500,-2584,9328,-3008,-1285,1745225170912187763
208864,1331,-2270,-2368,8986,-3553,-1376,1745225170912187763
209056,1199,-2051,-2147,8709,-4115,-1321,1745225170912187763
209248,1014,-1800,-1956,8305,-4543,-1165,1745225170912187763
209440,802,-1575,-1760,8033,-4929,-950,1745225170969684790
209632,583,-1377,-1564,7718,-5448,-713,1745225170969684790
209824,379,-1169,-1388,7396,-5825,-630,1745225170969684790
210016,207,-965,-1241,7028,-6009,-697,1745225170969684790
210208,72,-752,-1099,6733,-5961,-853,1745225170969684790
210400,-26,-541,-956,6574,-5649,-1011,1745225170969684790
210592,-92,-330,-825,6537,-5244,-1307,1745225170969684790
210784,-114,-130,-722,6484,-4655,-1394,1745225170969684790
210976,-81,56,-614,6597,-4036,-1542,1745225170969684790
211168,-7,203,-501,6707,-3484,-1736,1745225170969684790
211360,100,328,-391,6801,-3076,-2048,1745225170969684790
211552,237,438,-283,6897,-2830,-2434,1745225170969684790
211744,394,545,-177,7016,-2700,-2698,1745225171046126175
211936,555,650,-82,7123,-2646,-2910,1745225171046126175
212128,702,757,1,7190,-2689,-3404,1745225171046126175
212320,710,917,91,7371,-2960,-3992,1745225171046126175
212512,439,959,178,7698,-2037,-3487,1745225171046126175
212704,505,837,219,6708,-1424,-3198,1745225171046126175
212896,830,740,491,8055,-3869,-3449,1745225171046126175
213088,737,676,-46,7508,-4809,-4308,1745225171046126175
213280,505,834,-366,7604,-5204,-3985,1745225171046126175
213472,418,933,-192,8078,-4744,-3784,1745225171046126175
213664,371,933,155,7867,-3555,-3945,1745225171046126175
213856,319,925,320,7036,-2493,-4344,1745225171046126175
214048,287,948,189,6313,-2159,-4590,1745225171110714960
214240,294,995,-61,6120,-2060,-4708,1745225171110714960
214432,351,1029,-173,6226,-1903,-4584,1745225171110714960
214624,443,1045,-98,6626,-1641,-4667,1745225171110714960
214816,551,1022,57,6810,-1126,-4517,1745225171110714960
215008,674,1038,217,6946,-918,-4624,1745225171110714960
215200,821,1036,322,6854,-971,-4599,1745225171110714960
215392,919,987,371,6970,-1354,-4454,1745225171110714960
215584,1005,993,371,6778,-1924,-4621,1745225171110714960
215776,1036,978,346,6595,-2503,-4649,1745225171110714960
215968,995,980,322,6457,-3107,-4535,1745225171110714960
216160,894,981,303,6239,-3528,-4525,1745225171110714960
216352,760,1000,288,5995,-3841,-4548,1745225171168370527
216544,585,1038,269,5793,-3998,-4580,1745225171168370527
216736,391,1065,268,5760,-4003,-4485,1745225171168370527
216928,196,1105,306,6055,-3877,-4449,1745225171168370527
217120,32,1100,358,6596,-3397,-4588,1745225171168370527
217312,-26,1000,391,7440,-2462,-4328,1745225171168370527
217504,136,752,377,9450,-1529,-4754,1745225171168370527
217696,358,293,219,12086,-1058,-6946,1745225171168370527
217888,376,-308,6,13513,-1235,-7252,1745225171168370527
218080,269,-933,-58,13528,-1840,-5861,1745225171168370527
218272,210,-1474,-18,12827,-2182,-5533,1745225171168370527
218464,194,-1834,16,10951,-1785,-5771,1745225171168370527
218656,108,-1976,27,7904,-1013,-6214,1745225171217481745
218848,-68,-1969,14,4338,-319,-7130,1745225171217481745
219040,-246,-1773,-15,1937,346,-8458,1745225171217481745
219232,-373,-1558,-23,1372,1153,-9605,1745225171217481745
219424,-439,-1326,-3,2451,1925,-10340,1745225171217481745
219616,-459,-1135,58,3797,2348,-10400,1745225171217481745
219808,-400,-1010,173,4840,2451,-10132,1745225171217481745
220000,-288,-942,292,5266,2092,-10113,1745225171217481745
220192,-206,-932,345,5062,1188,-10282,1745225171217481745
220384,-166,-948,328,4322,83,-10421,1745225171217481745
220576,-145,-902,280,3546,-755,-10148,1745225171217481745
220768,-137,-800,193,3127,-1165,-9689,1745225171217481745
220960,-136,-691,102,3070,-1215,-9236,1745225171263041121
221152,-150,-561,32,3134,-900,-9034,1745225171263041121
221344,-178,-455,-17,3181,-466,-8890,1745225171263041121
221536,-219,-370,-37,3232,-110,-8893,1745225171263041121
221728,-255,-305,-39,3281,148,-8936,1745225171263041121
221920,-258,-261,-38,3301,381,-8953,1745225171263041121
222112,-238,-220,-40,3225,551,-8803,1745225171263041121
222304,-210,-179,-44,3047,621,-8511,1745225171263041121
222496,-181,-134,-46,2856,583,-8287,1745225171263041121
222688,-158,-88,-48,2749,502,-8049,1745225171263041121
222880,-135,-51,-44,2847,431,-7805,1745225171263041121
223072,-123,-31,-35,2966,306,-7618,1745225171263041121
223264,-131,-28,-27,3024,79,-7448,1745225171329642335
223456,-146,-21,-15,2940,-214,-7508,1745225171329642335
223648,-140,4,-9,2683,-286,-7852,1745225171329642335
223840,-110,50,-17,2510,20,-8027,1745225171329642335
224032,-70,82,-34,2668,418,-8213,1745225171329642335
224224,-33,89,-47,2779,681,-8007,1745225171329642335
224416,2,92,-35,2802,698,-7736,1745225171329642335
224608,49,92,-8,2719,484,-7526,1745225171329642335
224800,73,92,10,2656,295,-7237,1745225171329642335
224992,70,97,23,2763,92,-7199,1745225171329642335
225184,54,101,44,2804,121,-7206,1745225171329642335
225376,31,108,70,2743,380,-7407,1745225171329642335
225568,9,109,90,2760,708,-7640,1745225171384702040
225760,1,100,104,2872,1012,-7703,1745225171384702040
225952,4,90,125,3067,1126,-7909,1745225171384702040
226144,5,77,151,3154,1115,-7996,1745225171384702040
226336,2,71,178,3140,955,-7911,1745225171384702040
226528,1,78,203,3064,675,-7870,1745225171384702040
226720,6,91,221,3029,419,-7727,1745225171384702040
226912,8,105,226,3110,237,-7663,1745225171384702040
227104,18,116,220,3174,113,-7502,1745225171384702040
227296,32,129,201,3189,113,-7340,1745225171384702040
227488,49,144,175,3261,202,-7485,1745225171384702040
227680,60,148,140,3395,416,-7550,1745225171384702040
227872,67,131,107,3523,553,-7567,1745225171441486365
228064,74,109,91,3485,441,-7606,1745225171441486365
228256,82,89,85,3201,222,-7663,1745225171441486365
228448,85,90,79,3067,-46,-7837,1745225171441486365
228640,90,91,74,3176,-325,-7689,1745225171441486365
228832,91,92,70,3344,-547,-7447,1745225171441486365
229024,80,98,69,3331,-717,-7228,1745225171441486365
229216,69,113,62,3246,-655,-6982,1745225171441486365
229408,59,133,40,3321,-434,-7068,1745225171441486365
229600,56,141,21,3570,-103,-7205,1745225171441486365
229792,73,120,-7,3629,250,-7211,1745225171441486365
229984,88,96,-34,3297,302,-7565,1745225171441486365
230176,96,81,-40,2853,206,-7541,1745225171498340169
230368,103,77,-38,2824,-41,-7648,1745225171498340169
230560,116,67,-38,3035,-311,-7575,1745225171498340169
230752,120,45,-41,3081,-526,-7386,1745225171498340169
230944,109,35,-41,2930,-719,-7333,1745225171498340169
231136,84,36,-42,2885,-807,-7012,1745225171498340169
231328,56,39,-52,3183,-740,-7033,1745225171498340169
231520,16,18,-65,3614,-515,-7294,1745225171498340169
231712,-44,-24,-67,3444,-56,-7300,1745225171498340169
231904,-80,-35,-59,2846,442,-7608,1745225171498340169
232096,-64,-26,-63,2674,759,-7570,1745225171498340169
232288,-19,-26,-68,3060,647,-7412,1745225171498340169
232480,26,-34,-48,3506,-32,-7254,1745225171567491152
232672,7,-74,-52,3465,-1461,-6977,1745225171567491152
232864,-80,-59,-66,3044,-1512,-7368,1745225171567491152
233056,-169,-42,-72,2912,-505,-7540,1745225171567491152
233248,-172,-37,-74,3101,476,-7515,1745225171567491152
233440,-103,-39,-74,3403,1016,-7682,1745225171567491152
233632,-55,-57,-80,3325,937,-7554,1745225171567491152
233824,-31,-47,-73,2895,654,-7752,1745225171567491152
234016,-15,-18,-36,2701,184,-7707,1745225171567491152
234208,-10,23,13,2734,239,-7752,1745225171567491152
234400,-6,9,-13,2965,365,-7657,1745225171567491152
234592,37,20,-34,3183,-185,-7438,1745225171567491152
234784,47,48,9,2988,-498,-7458,1745225171617300697
234976,16,68,19,2866,-620,-7545,1745225171617300697
235168,-15,69,0,3109,-442,-7410,1745225171617300697
235360,-36,57,-6,3419,-334,-7314,1745225171617300697
235552,-43,27,-6,3605,-105,-6928,1745225171617300697
235744,-31,-1,-20,3337,364,-7504,1745225171617300697
235936,-81,-12,-16,3086,522,-7535,1745225171617300697
236128,-89,-65,-11,3247,383,-7689,1745225171617300697
236320,-90,-63,-10,3317,41,-7853,1745225171617300697
236512,-74,-13,-6,3226,-168,-7372,1745225171617300697
236704,-73,13,-1,3093,-160,-7316,1745225171617300697
236896,-80,50,-14,3032,22,-7391,1745225171617300697
237088,-77,80,-11,3102,286,-7325,1745225171670719636
237280,-49,95,-24,3422,515,-7485,1745225171670719636
237472,-17,105,-39,3309,500,-7706,1745225171670719636
237664,-4,116,-23,3179,407,-7777,1745225171670719636
237856,-4,118,-18,3231,375,-8035,1745225171670719636
238048,-10,116,-34,3200,338,-7881,1745225171670719636
238240,-20,119,-41,3156,85,-7785,1745225171670719636
238432,-37,121,-44,3320,-55,-7503,1745225171670719636
238624,-46,121,-42,3416,5,-7291,1745225171670719636
238816,-43,121,-29,3493,188,-7260,1745225171670719636
239008,-32,105,-12,3747,443,-7342,1745225171670719636
239200,-38,72,-7,3880,248,-7378,1745225171670719636
240352,-87,-1,3,3215,-217,-7523,1745225173289421412
296608,-26,-118,2,3079,571,-8084,1745225173289421412
296800,-155,-132,7,2544,-249,-7085,1745225173289421412
296992,-110,-78,0,3179,29,-7971,1745225173289421412
297184,-115,-103,3,2857,439,-7649,1745225173289421412
297376,-145,-59,-6,2737,318,-7799,1745225173289421412
297568,-128,-78,-8,2766,250,-7717,1745225173289421412
297760,-161,-49,-9,2875,130,-7635,1745225173289421412
297952,-145,-38,-10,2941,165,-7504,1745225173289421412
298144,-132,-48,-11,2997,335,-7518,1745225173289421412
298336,-134,-33,-8,2935,421,-7662,1745225173289421412
298528,-125,-32,-8,2713,361,-7677,1745225173289421412
298720,-130,-18,6,2756,423,-7957,1745225173312141829
298912,-132,7,0,2817,450,-7956,1745225173312141829
299104,-115,29,3,2660,278,-8055,1745225173312141829
299296,-93,47,9,2729,113,-7998,1745225173312141829
299488,-69,67,9,2719,64,-7979,1745225173312141829
299680,-42,79,6,2682,298,-8053,1745225173312141829
299872,-10,90,-7,2704,530,-8154,1745225173312141829
300064,33,93,-16,2761,600,-8092,1745225173312141829
300256,70,90,-11,2762,503,-7896,1745225173312141829
300448,90,94,-1,2868,392,-7685,1745225173312141829
300640,106,95,8,2974,371,-7530,1745225173312141829
300832,127,99,12,2958,286,-7504,1745225173312141829
301024,144,103,14,2961,338,-7363,1745225173350595072
301216,173,110,20,3017,554,-7366,1745225173350595072
301408,183,124,19,2828,102,-7516,1745225173350595072
301600,241,121,40,3338,1456,-7221,1745225173350595072
301792,311,146,40,2622,788,-7734,1745225173350595072
301984,365,166,54,2964,569,-7428,1745225173350595072
302176,401,214,65,3034,299,-7800,1745225173350595072
302368,366,261,78,3078,-51,-7028,1745225173350595072
302560,322,167,68,3111,-322,-7335,1745225173350595072
302752,226,166,67,3087,-911,-7301,1745225173350595072
302944,81,148,71,3375,-1348,-7275,1745225173350595072
303136,-7,131,76,3212,-100,-7486,1745225173350595072
303328,-11,127,58,3274,941,-7589,1745225173407482156
303520,13,98,13,3233,1322,-7621,1745225173407482156
303712,33,86,1,3165,1270,-7612,1745225173407482156
303904,36,75,2,3017,926,-7601,1745225173407482156
304096,39,70,13,2977,288,-7478,1745225173407482156
304288,34,59,64,3132,-735,-7402,1745225173407482156
304480,-32,46,103,3213,-756,-7310,1745225173407482156
304672,-105,47,103,3045,-410,-7237,1745225173407482156
304864,-163,59,104,3194,117,-7297,1745225173407482156
305056,-185,56,83,3384,657,-7473,1745225173407482156
305248,-173,49,57,3504,939,-7551,1745225173407482156
305440,-152,36,41,3438,793,-7822,1745225173407482156
305632,-180,20,46,3082,360,-7833,1745225173420546672
305824,-210,29,66,3250,198,-7283,1745225173420546672
306016,-157,21,47,3483,426,-7763,1745225173420546672
306208,-179,5,-6,3262,426,-7645,1745225173420546672
306400,-194,14,-18,3185,217,-7604,1745225173420546672
306592,-169,25,-10,2992,76,-7437,1745225173420546672
306784,-172,53,-4,3038,-146,-7481,1745225173420546672
306976,-195,67,-2,3235,-315,-7494,1745225173420546672
307168,-210,71,-10,3399,-306,-7451,1745225173420546672
307360,-219,82,-38,3374,-144,-7419,1745225173420546672
307552,-228,100,-79,3312,111,-7758,1745225173420546672
307744,-239,115,-117,3309,379,-8180,1745225173420546672
307936,-247,126,-138,3455,611,-8465,1745225173472127295
308128,-247,136,-149,3642,763,-8517,1745225173472127295
308320,-235,159,-162,3608,787,-8453,1745225173472127295
308512,-232,194,-164,3587,636,-8511,1745225173472127295
308704,-234,232,-165,3543,566,-8609,1745225173472127295
308896,-242,270,-172,3447,568,-8450,1745225173472127295
309088,-248,312,-190,3387,544,-8228,1745225173472127295
309280,-253,357,-222,3299,441,-8230,1745225173472127295
309472,-259,398,-263,3338,272,-8486,1745225173472127295
309664,-264,424,-309,3560,167,-8678,1745225173472127295
309856,-265,449,-354,3804,144,-8573,1745225173472127295
310048,-273,485,-404,4052,182,-8443,1745225173472127295
310240,-294,522,-462,4223,132,-8360,1745225173631141363
310432,-328,542,-522,4487,153,-8441,1745225173631141363
310624,-369,566,-578,4828,203,-8270,1745225173631141363
310816,-421,580,-637,5102,226,-7870,1745225173631141363
311008,-448,605,-703,5323,181,-7745,1745225173631141363
311200,-471,606,-775,5717,58,-7816,1745225173631141363
311392,-492,609,-857,6158,-50,-8087,1745225173631141363
311584,-510,631,-946,6383,7,-8558,1745225173631141363
311776,-493,691,-1027,6554,116,-8917,1745225173631141363
311968,-446,715,-1102,6661,107,-8615,1745225173631141363
312160,-388,754,-1198,6875,-123,-8784,1745225173631141363
312352,-416,732,-1319,7369,-551,-8963,1745225173631141363
312544,-466,687,-1429,7869,-1054,-8543,1745225173669406534
312736,-410,669,-1495,8308,-1374,-7298,1745225173669406534
312928,-143,696,-1437,9377,-1717,-7169,1745225173669406534
313120,185,573,-1474,10490,-2045,-6760,1745225173669406534
313312,587,395,-1529,11273,-2370,-5773,1745225173669406534
313504,753,220,-1683,12169,-3079,-5864,1745225173669406534
313696,753,-84,-1829,12358,-4164,-5873,1745225173669406534
313888,560,-192,-1821,12344,-5316,-4332,1745225173669406534
314080,522,-556,-1909,12312,-6692,-4408,1745225173669406534
314272,794,-906,-2039,9711,-6178,-1386,1745225173669406534
314464,-40,-17,-1736,11370,-6254,-2087,1745225173669406534
314656,-1116,176,-1363,13313,-7100,-1569,1745225173669406534
314848,-1494,-502,-1236,12977,-6935,-32,1745225173708123941
315040,-1592,-1108,-1326,11903,-6085,-988,1745225173708123941
315232,-1693,-1269,-1492,10523,-4528,-2034,1745225173708123941
315424,-1847,-1112,-1495,9603,-3166,-2129,1745225173708123941
315616,-1868,-1054,-1346,9200,-2376,-1936,1745225173708123941
315808,-1769,-1131,-1101,9441,-1618,-2153,1745225173708123941
316000,-1494,-1235,-853,9563,-1062,-1821,1745225173708123941
316192,-1382,-1243,-488,10061,-1128,-2325,1745225173708123941
316384,-1156,-1235,-140,10071,-871,-1862,1745225173708123941
316576,-905,-1205,116,9663,-687,-1677,1745225173708123941
316768,-710,-1145,305,9305,-968,-1605,1745225173708123941
316960,-757,-1012,576,9056,-1952,-829,1745225173708123941
317152,-960,-880,943,9022,-2817,-409,1745225173765378366
317344,-954,-737,1275,8677,-2792,141,1745225173765378366
317536,-1033,-582,1541,8321,-2580,126,1745225173765378366
317728,-1233,-417,1699,7708,-2360,217,1745225173765378366
317920,-1445,-216,1841,7253,-2084,340,1745225173765378366
318112,-1582,15,2056,7145,-1775,490,1745225173765378366
318304,-1666,252,2325,7198,-1321,579,1745225173765378366
318496,-1734,486,2591,7269,-818,663,1745225173765378366
318688,-1810,727,2816,7283,-559,640,1745225173765378366
318880,-1872,981,3008,7231,-349,697,1745225173765378366
319072,-1903,1258,3197,7213,-168,844,1745225173765378366
319264,-1903,1554,3403,7314,89,925,1745225173765378366
319456,-1879,1858,3626,7550,344,1112,1745225173791707084
319648,-1835,2161,3849,7850,624,1387,1745225173791707084
319840,-1766,2471,4057,8146,891,1743,1745225173791707084
320032,-1658,2777,4255,8439,1258,2228,1745225173791707084
320224,-1499,3098,4454,8775,1605,2538,1745225173791707084
320416,-1300,3429,4646,9211,2088,2755,1745225173791707084
320608,-1069,3774,4803,9683,2605,2984,1745225173791707084
320800,-817,4122,4931,10235,3151,3327,1745225173791707084
320992,-550,4488,5041,10937,3801,3653,1745225173791707084
321184,-280,4797,5128,11558,4414,4171,1745225173791707084
321376,33,5198,5207,12500,5201,4381,1745225173791707084
321568,306,5598,5302,13453,5971,4979,1745225173791707084
321760,570,5975,5375,14430,6795,5503,1745225173839002120
321952,814,6323,5411,15355,7670,5981,1745225173839002120
322144,1026,6633,5405,16211,8483,6327,1745225173839002120
322336,1196,6960,5354,17106,9179,6684,1745225173839002120
322528,1330,7282,5261,18129,9586,7082,1745225173839002120
322720,1430,7592,5100,19366,9628,7667,1745225173839002120
322912,1507,7861,4870,20780,9367,8369,1745225173839002120
323104,1583,8085,4586,22383,8962,9172,1745225173839002120
323296,1680,8233,4243,24051,8681,9982,1745225173839002120
323488,1827,8294,3830,25692,8914,10608,1745225173839002120
323680,2014,8301,3335,27007,10287,9936,1745225173839002120
323872,1737,8223,2763,27244,11665,10331,1745225173839002120
324064,2278,8195,2072,28233,14426,9907,1745225173891439766
324256,2520,8182,1483,28224,17087,8090,1745225173891439766
324448,2662,8128,925,27787,19562,6969,1745225173891439766
324640,2782,8109,449,27203,21076,5854,1745225173891439766
324832,2898,8090,44,26512,21618,4876,1745225173891439766
325024,3027,8034,-346,25974,20961,4230,1745225173891439766
325216,3165,7997,-745,25611,19643,3885,1745225173891439766
325408,3273,7951,-1177,25379,18225,3890,1745225173891439766
325600,3288,7927,-1653,25211,16824,3663,1745225173891439766
325792,3184,7904,-2150,25095,15712,3360,1745225173891439766
325984,2993,7873,-2633,24990,14924,3103,1745225173891439766
326176,2757,7824,-3079,24906,14611,2784,1745225173891439766
326368,2531,7758,-3482,24784,14709,2422,1745225173943487312
326560,2335,7660,-3852,24712,15010,1934,1745225173943487312
326752,2181,7517,-4189,24614,15289,1372,1745225173943487312
326944,2070,7337,-4487,24401,15566,828,1745225173943487312
327136,2012,7103,-4719,24302,15693,749,1745225173943487312
327328,1989,6834,-4912,24103,15787,835,1745225173943487312
327520,1974,6528,-5070,23849,15738,756,1745225173943487312
327712,1983,6217,-5205,23538,15410,529,1745225173943487312
327904,2023,5891,-5321,23267,14761,186,1745225173943487312
328096,2088,5572,-5433,22941,13859,-216,1745225173943487312
328288,2155,5247,-5544,22505,12887,-526,1745225173943487312
328480,2205,4937,-5630,21915,11982,-831,1745225173943487312
328672,2241,4642,-5691,21260,11176,-1262,1745225174001002932
328864,2273,4365,-5748,20759,10271,-2008,1745225174001002932
329056,2313,4087,-5807,20320,9285,-2496,1745225174001002932
329248,2369,3831,-5850,19934,8459,-2954,1745225174001002932
329440,2402,3581,-5877,19505,7704,-3565,1745225174001002932
329632,2396,3349,-5900,18951,6973,-4289,1745225174001002932
329824,2373,3131,-5900,18312,6159,-4974,1745225174001002932
330016,2354,2934,-5858,17877,5620,-5612,1745225174001002932
330208,2320,2739,-5812,17598,5119,-6019,1745225174001002932
330400,2265,2569,-5748,17601,4376,-6424,1745225174001002932
330592,2201,2361,-5653,17723,3719,-6613,1745225174001002932
330784,2157,2150,-5543,17782,3161,-6808,1745225174001002932
330976,2130,1911,-5424,17951,2545,-7014,1745225174063042365
331168,2107,1622,-5280,18258,1686,-7009,1745225174063042365
331360,2095,1296,-5132,18366,690,-6891,1745225174063042365
331552,2094,960,-4974,18313,-295,-6767,1745225174063042365
331744,2079,613,-4812,18242,-1287,-6822,1745225174063042365
331936,2028,260,-4647,18109,-2021,-6978,1745225174063042365
332128,1948,-39,-4471,18234,-2985,-6888,1745225174063042365
332320,1811,-366,-4295,18559,-3691,-6381,1745225174063042365
332512,1626,-674,-4077,18948,-4453,-6101,1745225174063042365
332704,1414,-968,-3848,19181,-5144,-5374,1745225174063042365
332896,1220,-1256,-3636,19285,-5866,-4664,1745225174063042365
333088,1043,-1541,-3449,19205,-6547,-3877,1745225174063042365
333280,880,-1833,-3280,18807,-7150,-2889,1745225174118338527
333472,726,-2120,-3100,18264,-7741,-2194,1745225174118338527
333664,577,-2402,-2920,17602,-8228,-1727,1745225174118338527
333856,439,-2643,-2765,16638,-8483,-1438,1745225174118338527
334048,297,-2825,-2617,15407,-8382,-1172,1745225174118338527
334240,175,-2943,-2462,14065,-8044,-749,1745225174118338527
334432,126,-3023,-2295,12911,-6922,-703,1745225174118338527
334624,161,-3278,-2412,10919,-2882,-2261,1745225174118338527
334816,-1192,-2890,-2697,10181,-9411,4638,1745225174118338527
335008,-609,-2698,-1935,10675,-8523,1236,1745225174118338527
335200,468,-3073,-1201,8286,-5260,2821,1745225174118338527
335392,309,-2787,-1010,8235,-5266,1505,1745225174118338527
335584,172,-3096,-766,9282,-1571,4569,1745225174201563235
335776,578,-3380,-60,9352,775,5282,1745225174201563235
335968,1043,-3390,216,8288,-879,4474,1745225174201563235
336160,1338,-3196,-193,5530,-2995,5179,1745225174201563235
336352,1296,-2991,-528,3257,-4559,6653,1745225174201563235
336544,1135,-2735,-494,1286,-5157,6914,1745225174201563235
336736,987,-2463,-99,835,-3903,7145,1745225174201563235
336928,896,-2193,435,1298,-2373,8194,1745225174201563235
337120,781,-2023,751,2861,-349,7681,1745225174201563235
337312,659,-1864,754,3190,1718,8209,1745225174201563235
337504,567,-1590,581,3028,3227,8167,1745225174201563235
337696,540,-1393,391,2479,4641,8184,1745225174201563235
337888,568,-1212,377,2051,5864,8101,1745225174234310853
338080,651,-1024,493,1740,6825,8580,1745225174234310853
338272,775,-849,633,1614,7424,8811,1745225174234310853
338464,905,-664,635,1578,7472,8550,1745225174234310853
338656,1007,-535,529,1507,7484,8482,1745225174234310853
338848,1072,-444,427,1483,7542,8854,1745225174234310853
339040,1092,-369,371,1331,7771,9239,1745225174234310853
339232,1055,-274,360,986,8246,9359,1745225174234310853
339424,989,-175,384,645,8795,9433,1745225174234310853
339616,926,-45,383,343,9322,9516,1745225174234310853
339808,822,84,333,118,9843,9250,1745225174234310853
340000,682,203,256,99,9964,8903,1745225174234310853
340192,567,310,161,153,10034,8449,1745225174295245661
340384,475,416,70,324,10056,7885,1745225174295245661
340576,391,523,-2,566,10153,7298,1745225174295245661
340768,315,596,-20,939,10406,6894,1745225174295245661
340960,281,626,21,1346,10765,6772,1745225174295245661
341152,310,635,79,1658,11176,6618,1745225174295245661
341344,380,630,105,1806,11543,6744,1745225174295245661
341536,444,581,111,1924,11670,6788,1745225174295245661
341728,481,519,90,1912,11382,6735,1745225174295245661
341920,490,456,43,1736,10805,6571,1745225174295245661
342112,468,398,1,1613,10296,6248,1745225174295245661
342304,415,359,-8,1598,9751,6035,1745225174295245661
342496,337,318,-36,1652,9174,5943,1745225174397225042
342688,225,302,-132,1647,8516,5641,1745225174397225042
342880,92,305,-256,1471,8079,5242,1745225174397225042
343072,-16,334,-317,1294,8004,4763,1745225174397225042
343264,-85,374,-287,1326,8265,4372,1745225174397225042
343456,-143,398,-239,1665,8424,4128,1745225174397225042
343648,-179,377,-224,2110,8399,4177,1745225174397225042
343840,-176,318,-221,2362,8319,4199,1745225174397225042
344032,-145,240,-198,2394,8122,4210,1745225174397225042
344224,-107,156,-159,2225,7826,4189,1745225174397225042
344416,-80,63,-118,2020,7451,4190,1745225174397225042
344608,-82,-11,-99,1733,7007,4214,1745225174397225042
344800,-125,-61,-92,1484,6645,4058,1745225174417418399
344992,-188,-93,-78,1368,6382,3953,1745225174417418399
345184,-245,-107,-65,1453,6203,4057,1745225174417418399
345376,-300,-116,-57,1557,6181,3901,1745225174417418399
345568,-345,-121,-49,1711,6177,3781,1745225174417418399
345760,-355,-130,-40,1870,6235,3650,1745225174417418399
345952,-332,-137,-36,1996,6398,3545,1745225174417418399
346144,-300,-146,-38,2075,6529,3476,1745225174417418399
346336,-276,-164,-40,2144,6506,3310,1745225174417418399
346528,-237,-190,-41,2119,6373,3262,1745225174417418399
346720,-180,-210,-38,1975,6187,3281,1745225174417418399
346912,-131,-218,-32,1776,5962,3157,1745225174417418399
347104,-98,-208,-28,1701,5639,3232,1745225174469215582
347296,-67,-198,-8,1698,5418,3522,1745225174469215582
347488,-50,-181,21,1653,5309,3562,1745225174469215582
347680,-57,-159,49,1601,5291,3582,1745225174469215582
347872,-71,-153,73,1593,5344,3719,1745225174469215582
348064,-87,-148,85,1554,5572,3900,1745225174469215582
348256,-114,-131,93,1516,5845,3997,1745225174469215582
348448,-150,-123,100,1609,6084,4072,1745225174469215582
348640,-167,-122,111,1729,6225,4042,1745225174469215582
348832,-156,-122,120,1951,6228,3910,1745225174469215582
349024,-124,-124,118,2210,6081,3747,1745225174469215582
349216,-71,-136,107,2350,5913,3755,1745225174469215582
349408,-5,-155,91,2259,5969,3844,1745225174528642123
349600,37,-157,77,1990,6154,3724,1745225174528642123
349792,50,-148,63,1766,6301,3704,1745225174528642123
349984,59,-137,54,1717,6342,3864,1745225174528642123
350176,68,-127,49,1754,6351,4123,1745225174528642123
350368,60,-118,46,1733,6433,4267,1745225174528642123
350560,41,-101,46,1659,6476,4375,1745225174528642123
350752,33,-88,41,1573,6523,4446,1745225174528642123
350944,43,-71,36,1443,6597,4516,1745225174528642123
351136,56,-54,35,1320,6642,4421,1745225174528642123
351328,65,-32,34,1256,6613,4352,1745225174528642123
351520,82,-10,38,1212,6604,4412,1745225174528642123
351712,104,16,42,1235,6644,4359,1745225174588892770
351904,120,35,34,1285,6683,4354,1745225174588892770
352096,128,43,24,1361,6771,4449,1745225174588892770
352288,128,44,19,1446,6950,4487,1745225174588892770
352480,115,41,15,1529,7152,4525,1745225174588892770
352672,90,35,5,1626,7331,4661,1745225174588892770
352864,56,16,-13,1714,7422,4778,1745225174588892770
353056,18,-7,-32,1785,7471,4797,1745225174588892770
353248,-15,-28,-47,1793,7461,4720,1745225174588892770
353440,-39,-47,-59,1774,7448,4541,1745225174588892770
353632,-51,-67,-66,1755,7412,4476,1745225174588892770
353824,-54,-75,-76,1699,7395,4396,1745225174588892770
354016,-49,-80,-84,1683,7446,4455,1745225174643862997
354208,-49,-85,-87,1696,7538,4487,1745225174643862997
354400,-48,-88,-91,1766,7618,4555,1745225174643862997
354592,-40,-96,-102,1862,7656,4582,1745225174643862997
354784,-23,-117,-112,2021,7609,4716,1745225174643862997
354976,-6,-151,-125,2096,7580,4898,1745225174643862997
355168,1,-186,-133,2064,7509,4969,1745225174643862997
355360,2,-221,-134,1945,7420,4915,1745225174643862997
355552,4,-246,-133,1779,7315,4915,1745225174643862997
355744,0,-255,-130,1621,7251,4911,1745225174643862997
355936,-27,-243,-127,1537,7227,4812,1745225174643862997
356128,-69,-216,-125,1509,7266,4842,1745225174643862997
356320,-106,-181,-122,1617,7320,4735,1745225174723681955
356512,-130,-154,-123,1849,7306,4581,1745225174723681955
356704,-128,-142,-141,2133,7199,4489,1745225174723681955
356896,-103,-143,-169,2340,7080,4478,1745225174723681955
357088,-64,-158,-193,2443,6952,4562,1745225174723681955
357280,-33,-177,-216,2397,6809,4600,1745225174723681955
357472,-8,-201,-231,2241,6670,4698,1745225174723681955
357664,11,-218,-243,1998,6606,4815,1745225174723681955
357856,7,-220,-252,1734,6580,4778,1745225174723681955
358048,-27,-203,-260,1595,6609,4780,1745225174723681955
358240,-67,-183,-260,1629,6553,4898,1745225174723681955
358432,-111,-159,-268,1742,6484,4830,1745225174723681955
358624,-152,-132,-267,1863,6410,4758,1745225174761774993
358816,-170,-109,-259,1942,6369,4555,1745225174761774993
359008,-161,-87,-251,1982,6368,4306,1745225174761774993
359200,-130,-67,-243,1911,6393,4141,1745225174761774993
359392,-86,-42,-229,1883,6419,4103,1745225174761774993
359584,-41,-17,-212,1862,6460,4212,1745225174761774993
359776,-14,17,-189,1863,6515,4191,1745225174761774993
359968,1,47,-165,1921,6515,4260,1745225174761774993
360160,23,71,-138,2051,6517,4270,1745225174761774993
360352,51,86,-112,2241,6499,4338,1745225174761774993
360544,82,82,-92,2403,6524,4413,1745225174761774993
360736,99,69,-81,2529,6578,4447,1745225174761774993
360928,99,50,-75,2626,6596,4506,1745225174819018272
361120,96,26,-74,2660,6536,4551,1745225174819018272
361312,95,-3,-75,2618,6456,4563,1745225174819018272
361504,90,-24,-76,2505,6379,4466,1745225174819018272
361696,70,-35,-82,2352,6350,4360,1745225174819018272
361888,47,-35,-90,2225,6370,4308,1745225174819018272
362080,28,-25,-94,2103,6444,4292,1745225174819018272
362272,19,-11,-87,2070,6602,4303,1745225174819018272
362464,20,3,-71,2099,6749,4260,1745225174819018272
362656,28,17,-56,2167,6840,4143,1745225174819018272
362848,46,23,-47,2302,6837,4000,1745225174819018272
363040,76,25,-33,2328,6955,4011,1745225174819018272
363232,116,13,7,2397,7088,4142,1745225174881447910
363424,136,13,18,2305,7023,4238,1745225174881447910
363616,127,-12,-6,2248,6858,4336,1745225174881447910
363808,113,-32,-32,2096,6692,4470,1745225174881447910
364000,90,-40,-25,2087,6630,4453,1745225174881447910
364192,50,-10,-14,2074,6541,4489,1745225174881447910
364384,11,-27,3,2182,6578,4656,1745225174881447910
364576,-11,-23,8,2199,6607,4658,1745225174881447910
364768,-23,-30,4,2233,6576,4625,1745225174881447910
364960,-26,-40,-13,2174,6553,4588,1745225174881447910
365152,-32,-50,-32,2022,6634,4520,1745225174881447910
365344,-44,-50,-35,1905,6743,4522,1745225174881447910
365536,-58,-48,-31,1871,6836,4590,1745225174937032923
365728,-74,-48,-27,1950,6855,4571,1745225174937032923
365920,-82,-52,-30,1974,6767,4502,1745225174937032923
366112,-86,-50,-41,1978,6606,4422,1745225174937032923
366304,-89,-58,-46,1990,6433,4459,1745225174937032923
366496,-89,-53,-40,1910,6308,4473,1745225174937032923
366688,-93,-40,-29,1792,6229,4435,1745225174937032923
366880,-93,-29,-18,1700,6175,4454,1745225174937032923
367072,-96,-21,-8,1641,6167,4603,1745225174937032923
367264,-111,-11,3,1593,6252,4891,1745225174937032923
367456,-140,12,20,1527,6388,5002,1745225174937032923
367648,-170,39,37,1501,6514,4993,1745225174937032923
367840,-186,57,46,1568,6650,5011,1745225175011245579
368032,-186,69,45,1694,6752,5025,1745225175011245579
368224,-177,74,36,1851,6760,4984,1745225175011245579
368416,-149,73,26,1989,6796,4991,1745225175011245579
368608,-99,66,13,2084,6895,4988,1745225175011245579
368800,-42,60,-6,2092,7013,4833,1745225175011245579
368992,15,53,-25,2068,7054,4673,1745225175011245579
369184,79,40,-44,2114,6954,4438,1745225175011245579
369376,150,20,-60,2168,6813,4311,1745225175011245579
369568,207,-1,-70,2192,6714,4315,1745225175011245579
369760,224,-8,-79,2051,6663,4084,1745225175011245579
369952,211,1,-84,1839,6668,3921,1745225175011245579
370144,194,23,-79,1669,6744,3929,1745225175052069581
370336,174,54,-66,1590,6879,3939,1745225175052069581
370528,142,86,-49,1591,7060,3989,1745225175052069581
370720,99,117,-27,1688,7243,4045,1745225175052069581
370912,58,135,-2,1839,7319,4183,1745225175052069581
371104,27,139,23,1994,7309,4340,1745225175052069581
371296,3,133,40,2051,7186,4392,1745225175052069581
371488,-10,124,47,2021,7108,4493,1745225175052069581
371680,-16,119,50,1937,7049,4507,1745225175052069581
371872,-25,112,51,1897,7017,4524,1745225175052069581
372064,-28,110,46,1846,7036,4553,1745225175052069581
372256,-20,108,34,1843,7089,4533,1745225175052069581
372448,-12,102,19,1885,7204,4563,1745225175113734747
372640,-1,96,-2,1907,7308,4607,1745225175113734747
372832,10,89,-24,1935,7381,4577,1745225175113734747
373024,13,80,-44,1952,7391,4535,1745225175113734747
373216,19,71,-58,1928,7387,4547,1745225175113734747
373408,25,74,-66,1876,7377,4544,1745225175113734747
373600,21,78,-78,1790,7371,4499,1745225175113734747
373792,19,88,-90,1718,7311,4551,1745225175113734747
373984,29,102,-99,1626,7278,4523,1745225175113734747
374176,41,120,-99,1564,7221,4385,1745225175113734747
374368,60,137,-96,1542,7132,4384,1745225175113734747
374560,81,148,-93,1556,7045,4377,1745225175113734747
374752,97,154,-89,1523,6943,4434,1745225175172256243
374944,113,161,-80,1475,6830,4428,1745225175172256243
375136,125,164,-66,1428,6750,4416,1745225175172256243
375328,129,164,-52,1354,6786,4532,1745225175172256243
375520,114,173,-41,1335,6863,4569,1745225175172256243
375712,84,187,-27,1370,6964,4551,1745225175172256243
375904,56,196,-12,1518,7018,4378,1745225175172256243
376096,34,193,-3,1763,6986,4254,1745225175172256243
376288,17,181,-5,1969,6915,4179,1745225175172256243
376480,2,168,-14,2067,6850,4071,1745225175172256243
376672,-4,153,-26,2021,6840,3993,1745225175172256243
376864,-2,137,-42,1907,6812,3898,1745225175172256243
377056,6,115,-56,1797,6793,4066,1745225175228129587
377248,12,97,-67,1672,6859,4169,1745225175228129587
377440,4,87,-70,1572,6882,4159,1745225175228129587
377632,0,81,-71,1513,6964,4211,1745225175228129587
377824,-3,79,-71,1474,7099,4187,1745225175228129587
378016,-19,72,-70,1527,7188,4232,1745225175228129587
378208,-44,61,-66,1567,7190,4225,1745225175228129587
378400,-57,48,-58,1546,7123,4150,1745225175228129587
378592,-50,35,-48,1458,7069,4072,1745225175228129587
378784,-38,30,-39,1348,6978,3912,1745225175228129587
378976,-29,33,-30,1321,6881,3827,1745225175228129587
379168,-13,34,-23,1322,6775,3802,1745225175228129587
379360,14,41,-17,1340,6729,3849,1745225175289641785
379552,35,39,-8,1327,6748,3879,1745225175289641785
379744,45,39,-3,1265,6797,3876,1745225175289641785
379936,52,40,1,1228,6836,3901,1745225175289641785
380128,54,39,8,1265,6823,3975,1745225175289641785
380320,46,35,18,1329,6851,4076,1745225175289641785
380512,30,30,32,1374,6887,4216,1745225175289641785
380704,10,24,42,1406,6981,4278,1745225175289641785
380896,-14,18,46,1432,7053,4214,1745225175289641785
381088,-35,12,47,1470,7078,4115,1745225175289641785
381280,-49,10,45,1523,7072,4028,1745225175289641785
381472,-57,9,37,1583,7072,3977,1745225175289641785
381664,-58,7,26,1607,7106,3957,1745225175345660024
381856,-51,7,15,1616,7182,4008,1745225175345660024
382048,-35,9,6,1627,7311,4130,1745225175345660024
382240,-23,13,0,1613,7410,4183,1745225175345660024
382432,-19,11,-2,1613,7447,4289,1745225175345660024
382624,-12,10,0,1621,7437,4374,1745225175345660024
382816,-7,9,4,1623,7428,4444,1745225175345660024
383008,-11,12,5,1578,7427,4491,1745225175345660024
383200,-20,21,2,1601,7354,4436,1745225175345660024
383392,-24,27,-2,1663,7213,4455,1745225175345660024
383584,-18,33,-7,1700,7100,4386,1745225175345660024
383776,-11,38,-12,1725,7001,4415,1745225175345660024
383968,-9,42,-20,1700,6947,4468,1745225175405360937
384160,-10,44,-29,1650,6860,4530,1745225175405360937
384352,-8,43,-34,1560,6739,4586,1745225175405360937
384544,-6,42,-34,1534,6633,4685,1745225175405360937
384736,-8,43,-31,1511,6533,4789,1745225175405360937
384928,-18,47,-25,1484,6508,4779,1745225175405360937
385120,-31,59,-16,1429,6542,4800,1745225175405360937
385312,-40,76,-5,1392,6668,4718,1745225175405360937
385504,-53,97,7,1377,6819,4609,1745225175405360937
385696,-61,119,21,1435,6968,4600,1745225175405360937
385888,-63,141,33,1563,7062,4563,1745225175405360937
386080,-63,159,45,1740,7087,4515,1745225175405360937
386272,-57,168,53,1888,7062,4569,1745225175469406758
386464,-52,175,56,1946,7027,4494,1745225175469406758
386656,-49,179,59,1977,6965,4458,1745225175469406758
386848,-37,181,59,1986,6884,4462,1745225175469406758
387040,-22,181,56,1944,6817,4487,1745225175469406758
387232,-11,175,54,1879,6757,4548,1745225175469406758
387424,-5,169,51,1754,6731,4586,1745225175469406758
387616,-4,166,52,1668,6695,4592,1745225175469406758
387808,-6,160,58,1650,6604,4561,1745225175469406758
388000,-9,156,64,1664,6519,4508,1745225175469406758
388192,-15,153,74,1693,6521,4508,1745225175469406758
388384,-28,155,87,1689,6578,4465,1745225175469406758
388576,-43,156,99,1678,6670,4475,1745225175520303949
388768,-59,159,109,1652,6846,4480,1745225175520303949
388960,-80,164,118,1644,6934,4374,1745225175520303949
389152,-91,164,126,1690,6916,4304,1745225175520303949
389344,-86,159,130,1750,6881,4232,1745225175520303949
389536,-73,152,131,1786,6767,4176,1745225175520303949
389728,-54,138,129,1741,6703,4245,1745225175520303949
389920,-36,133,127,1582,6703,4246,1745225175520303949
390112,-25,135,129,1390,6735,4280,1745225175520303949
390304,-14,143,133,1218,6818,4320,1745225175520303949
390496,-10,164,139,1130,6929,4249,1745225175520303949
390688,-8,182,147,1174,7016,4260,1745225175520303949
390880,-1,195,152,1304,7045,4243,1745225175581777502
391072,7,201,154,1439,7079,4252,1745225175581777502
391264,16,196,149,1529,7101,4353,1745225175581777502
391456,22,184,135,1531,7143,4336,1745225175581777502
391648,21,169,117,1458,7193,4300,1745225175581777502
391840,22,156,98,1393,7236,4264,1745225175581777502
392032,17,147,84,1326,7276,4172,1745225175581777502
392224,13,143,75,1279,7266,4145,1745225175581777502
392416,15,147,70,1270,7306,4068,1745225175581777502
392608,20,151,68,1282,7302,4025,1745225175581777502
392800,26,149,68,1340,7252,4049,1745225175581777502
392992,36,142,68,1401,7172,4175,1745225175581777502
393184,41,134,70,1385,7117,4301,1745225175637059758
393376,37,122,72,1349,7098,4415,1745225175637059758
393568,21,108,69,1314,7035,4541,1745225175637059758
393760,0,93,62,1328,6929,4624,1745225175637059758
393952,-17,82,58,1323,6873,4695,1745225175637059758
394144,-34,79,54,1272,6913,4664,1745225175637059758
394336,-45,79,48,1246,6952,4612,1745225175637059758
394528,-43,72,39,1292,6950,4642,1745225175637059758
394720,-31,62,30,1321,6920,4699,1745225175637059758
394912,-17,50,25,1318,6801,4815,1745225175637059758
395104,0,38,26,1228,6721,4934,1745225175637059758
395296,12,34,26,1031,6672,4913,1745225175637059758
395488,14,36,27,893,6616,4853,1745225175698907682
395680,14,47,28,830,6569,4874,1745225175698907682
395872,10,64,33,865,6597,4903,1745225175698907682
396064,1,83,40,926,6710,5029,1745225175698907682
396256,-18,104,47,960,6911,5057,1745225175698907682
396448,-37,124,50,1036,7048,4997,1745225175698907682
396640,-41,136,51,1141,7057,4884,1745225175698907682
396832,-29,140,55,1288,6915,4765,1745225175698907682
397024,-1,138,61,1345,6802,4823,1745225175698907682
397216,23,146,65,1286,6791,4759,1745225175698907682
397408,30,162,66,1208,6785,4611,1745225175698907682
397600,44,176,66,1203,6729,4562,1745225175698907682
397792,69,186,70,1293,6661,4582,1745225175756013046
397984,87,193,79,1368,6625,4600,1745225175756013046
398176,95,194,90,1466,6601,4629,1745225175756013046
398368,100,179,99,1551,6513,4673,1745225175756013046
398560,101,154,104,1553,6421,4801,1745225175756013046
398752,87,129,113,1473,6335,4918,1745225175756013046
398944,56,108,125,1336,6284,4940,1745225175756013046
399136,13,98,136,1214,6270,4845,1745225175756013046
399328,-30,96,146,1206,6239,4686,1745225175756013046
399520,-62,99,157,1256,6253,4510,1745225175756013046
399712,-78,109,170,1368,6380,4340,1745225175756013046
399904,-78,111,181,1520,6548,4227,1745225175756013046
400096,-64,107,187,1636,6727,4197,1745225175813223200
400288,-38,96,192,1722,6845,4249,1745225175813223200
400480,-7,78,197,1721,6879,4376,1745225175813223200
400672,13,62,201,1632,6901,4388,1745225175813223200
400864,14,52,205,1511,6849,4405,1745225175813223200
401056,8,48,209,1464,6758,4448,1745225175813223200
401248,-6,46,211,1473,6699,4537,1745225175813223200
401440,-27,48,210,1467,6698,4568,1745225175813223200
401632,-47,53,205,1514,6715,4550,1745225175813223200
401824,-49,53,198,1575,6750,4587,1745225175813223200
402016,-44,50,188,1628,6790,4541,1745225175813223200
402208,-36,41,179,1657,6798,4553,1745225175813223200
402400,-24,31,172,1637,6813,4610,1745225175872848750
402592,-16,24,171,1545,6847,4647,1745225175872848750
402784,-9,22,175,1443,6877,4702,1745225175872848750
402976,-4,33,180,1345,6905,4653,1745225175872848750
403168,-1,50,188,1359,6901,4642,1745225175872848750
403360,4,66,196,1451,6871,4671,1745225175872848750
403552,8,80,207,1561,6819,4718,1745225175872848750
403744,9,90,217,1657,6734,4759,1745225175872848750
403936,12,94,225,1731,6654,4902,1745225175872848750
404128,12,96,230,1749,6577,5096,1745225175872848750
404320,-1,107,236,1683,6517,5173,1745225175872848750
404512,-20,117,244,1659,6455,5208,1745225175872848750
404704,-31,131,247,1637,6375,5214,1745225175932645547
404896,-43,155,248,1709,6325,5206,1745225175932645547
405088,-56,187,253,1867,6359,5357,1745225175932645547
405280,-75,225,262,2075,6397,5435,1745225175932645547
405472,-93,255,274,2287,6368,5457,1745225175932645547
405664,-87,275,286,2419,6253,5468,1745225175932645547
405856,-59,294,298,2511,6076,5395,1745225175932645547
406048,-28,311,309,2554,5855,5402,1745225175932645547
406240,-1,335,324,2546,5643,5468,1745225175932645547
406432,21,364,349,2547,5449,5546,1745225175932645547
406624,40,390,381,2528,5220,5599,1745225175932645547
406816,58,420,414,2464,5009,5603,1745225175932645547
407008,70,456,450,2424,4799,5542,1745225175991333969
407200,73,502,494,2431,4603,5484,1745225175991333969
407392,72,552,548,2553,4435,5586,1745225175991333969
407584,65,603,610,2689,4264,5779,1745225175991333969
407776,48,651,678,2819,4135,5995,1745225175991333969
407968,33,699,751,2975,3890,6095,1745225175991333969
408160,27,744,826,3120,3554,6151,1745225175991333969
408352,29,797,905,3228,3170,6141,1745225175991333969
408544,32,866,987,3361,2838,6116,1745225175991333969
408736,30,958,1075,3499,2571,6145,1745225175991333969
408928,25,1061,1167,3695,2296,6119,1745225175991333969
409120,30,1163,1262,4014,2041,6152,1745225175991333969
409312,50,1256,1358,4374,1774,6054,1745225176046204770
409504,80,1343,1447,4713,1481,5858,1745225176046204770
409696,112,1429,1529,5038,1193,5701,1745225176046204770
409888,148,1517,1620,5358,963,5511,1745225176046204770
410080,177,1612,1718,5724,695,5185,1745225176046204770
410272,199,1692,1817,6173,356,4818,1745225176046204770
410464,229,1756,1920,6670,-102,4522,1745225176046204770
410656,282,1798,2028,7118,-596,4199,1745225176046204770
410848,341,1832,2138,7384,-1006,3747,1745225176046204770
411040,380,1869,2240,7779,-1356,3196,1745225176046204770
411232,386,1908,2347,7994,-1766,2507,1745225176046204770
411424,369,1954,2473,8179,-2102,2159,1745225176046204770
411616,339,2006,2619,8337,-2088,2135,1745225176111201103
411808,262,2087,2757,8540,-1996,2005,1745225176111201103
412000,130,2147,2902,9018,-1990,1763,1745225176111201103
412192,-1,2164,3057,9690,-2161,1330,1745225176111201103
412384,-98,2137,3215,10414,-2363,836,1745225176111201103
412576,-165,2075,3363,10996,-2475,352,1745225176111201103
412768,-214,2009,3503,11403,-2493,-145,1745225176111201103
412960,-254,1937,3644,11736,-2409,-836,1745225176111201103
413152,-283,1857,3788,12039,-2176,-1469,1745225176111201103
413344,-297,1788,3936,12280,-1902,-2007,1745225176111201103
413536,-287,1722,4090,12497,-1534,-2412,1745225176111201103
413728,-268,1650,4250,12736,-1202,-2721,1745225176111201103
413920,-248,1568,4413,12959,-847,-2981,1745225176163259222
414112,-240,1479,4583,12996,-524,-3078,1745225176163259222
414304,-269,1409,4779,13172,-393,-3364,1745225176163259222
414496,-333,1347,4991,13373,-184,-3479,1745225176163259222
414688,-429,1299,5202,13440,-58,-3362,1745225176163259222
414880,-559,1251,5411,13621,514,-3166,1745225176163259222
415072,-844,1144,5640,13733,1237,-2949,1745225176163259222
415264,-1075,967,5772,14562,-59,-2493,1745225176163259222
415456,-1087,837,5982,15575,-477,-2649,1745225176163259222
415648,-1265,711,6255,16539,-299,-2519,1745225176163259222
415840,-1489,496,6370,17496,68,-2206,1745225176163259222
416032,-1683,183,6402,18630,682,-1902,1745225176163259222
416224,-1847,-184,6414,19320,1375,-1905,1745225176223615493
416416,-1998,-568,6406,19779,2106,-1889,1745225176223615493
416608,-2151,-932,6482,20090,2766,-2085,1745225176223615493
416800,-2326,-1255,6589,20299,3194,-2218,1745225176223615493
416992,-2498,-1572,6662,20482,3624,-2145,1745225176223615493
417184,-2667,-1918,6685,20837,3871,-2076,1745225176223615493
417376,-2837,-2268,6625,21247,4016,-1768,1745225176223615493
417568,-3014,-2659,6521,21796,3982,-1296,1745225176223615493
417760,-3200,-3067,6344,22161,3942,-1105,1745225176223615493
417952,-3422,-3464,6111,22334,4036,-1073,1745225176223615493
418144,-3689,-3851,5830,22182,4323,-1065,1745225176223615493
418336,-3978,-4207,5550,21894,4667,-1111,1745225176223615493
418528,-4260,-4536,5293,21658,4442,-1,1745225176282101834
418720,-4512,-4846,5055,21703,5727,-901,1745225176282101834
418912,-4743,-5167,4792,21943,6311,-661,1745225176282101834
419104,-4942,-5448,4511,22162,6791,-188,1745225176282101834
419296,-5120,-5726,4227,22439,7329,450,1745225176282101834
419488,-5266,-6020,3932,22681,7673,952,1745225176282101834
419680,-5383,-6298,3618,22751,8003,1459,1745225176282101834
419872,-5471,-6559,3281,22652,8165,1783,1745225176282101834
420064,-5539,-6792,2917,22333,8391,2036,1745225176282101834
420256,-5589,-7021,2570,21885,8639,2264,1745225176282101834
420448,-5616,-7217,2219,21282,8825,2450,1745225176282101834
420640,-5618,-7390,1874,20564,9016,2526,1745225176282101834
420832,-5584,-7515,1545,19762,9083,2579,1745225176339058345
421024,-5501,-7588,1220,19135,9131,2506,1745225176339058345
421216,-5382,-7627,876,18776,9138,2442,1745225176339058345
421408,-5249,-7655,506,18678,9084,2387,1745225176339058345
421600,-5106,-7673,109,18482,9105,2307,1745225176339058345
421792,-4946,-7610,-276,18238,8857,2245,1745225176339058345
421984,-4766,-7583,-640,18048,8553,1907,1745225176339058345
422176,-4543,-7502,-979,17704,8346,1703,1745225176339058345
422368,-4291,-7378,-1280,17496,8204,1443,1745225176339058345
422560,-4023,-7218,-1546,17327,7955,1252,1745225176339058345
422752,-3753,-7046,-1806,17115,7646,1100,1745225176339058345
422944,-3506,-6870,-2069,16842,7204,918,1745225176339058345
423136,-3286,-6682,-2312,16509,6794,759,1745225176399500709
423328,-3083,-6491,-2510,16096,6560,584,1745225176399500709
423520,-2881,-6274,-2663,15797,6508,601,1745225176399500709
423712,-2675,-6064,-2787,15656,6470,566,1745225176399500709
423904,-2480,-5873,-2909,15457,6312,496,1745225176399500709
424096,-2293,-5694,-3028,15198,5978,258,1745225176399500709
424288,-2102,-5506,-3125,14778,5546,18,1745225176399500709
424480,-1886,-5277,-3189,14193,5273,-93,1745225176399500709
424672,-1647,-5009,-3231,13714,5050,-260,1745225176399500709
424864,-1387,-4755,-3280,13398,4841,-388,1745225176399500709
425056,-1127,-4525,-3342,13226,4600,-586,1745225176399500709
425248,-884,-4337,-3402,13095,4317,-357,1745225176399500709
425440,-656,-4148,-3453,12684,4094,-354,1745225176456653260
425632,-484,-3947,-3487,12410,3627,-1048,1745225176456653260
425824,-295,-3766,-3482,11995,3163,-1204,1745225176456653260
426016,-71,-3605,-3448,11622,2704,-1411,1745225176456653260
426208,166,-3458,-3406,11353,2355,-1781,1745225176456653260
426400,352,-3315,-3360,10957,1912,-2093,1745225176456653260
426592,498,-3165,-3321,10495,1488,-2240,1745225176456653260
426784,595,-3006,-3259,10247,909,-2525,1745225176456653260
426976,645,-2853,-3185,10131,275,-2764,1745225176456653260
427168,685,-2685,-3094,10095,-265,-2854,1745225176456653260
427360,744,-2505,-2982,10166,-712,-2833,1745225176456653260
427552,829,-2345,-2869,10316,-1051,-2670,1745225176456653260
427744,927,-2205,-2773,10291,-1275,-2487,1745225176518482487
427936,1021,-2092,-2679,10054,-1436,-2271,1745225176518482487
428128,1095,-2005,-2576,9666,-1687,-2087,1745225176518482487
428320,1146,-1927,-2462,9193,-2061,-1997,1745225176518482487
428512,1149,-1840,-2318,8704,-2540,-1939,1745225176518482487
428704,1087,-1734,-2147,8302,-3191,-1891,1745225176518482487
428896,985,-1619,-1964,7877,-3802,-1874,1745225176518482487
429088,846,-1487,-1769,7450,-4267,-1955,1745225176518482487
429280,672,-1334,-1576,7007,-4605,-2115,1745225176518482487
429472,485,-1166,-1394,6652,-4733,-2282,1745225176518482487
429664,325,-990,-1225,6337,-4724,-2605,1745225176518482487
429856,241,-793,-1058,6106,-4455,-2857,1745225176518482487
430048,187,-594,-906,5937,-4074,-3111,1745225176573304278
430240,163,-399,-781,5853,-3749,-3284,1745225176573304278
430432,165,-217,-666,5871,-3556,-3362,1745225176573304278
430624,176,-57,-555,5997,-3415,-3319,1745225176573304278
430816,197,75,-448,6176,-3392,-3143,1745225176573304278
431008,232,174,-359,6368,-3420,-2934,1745225176573304278
431200,270,234,-291,6422,-3519,-2846,1745225176573304278
431392,325,283,-237,6241,-3556,-2866,1745225176573304278
431584,400,341,-194,6051,-3517,-3035,1745225176573304278
431776,480,403,-164,5843,-3407,-3310,1745225176573304278
431968,572,481,-134,5685,-3268,-3621,1745225176573304278
432160,613,600,-99,5809,-3389,-4559,1745225176573304278
432352,440,751,61,5514,-2797,-3053,1745225176637837647
432544,484,697,92,5532,-1869,-3866,1745225176637837647
432736,654,752,178,5601,-191,-3457,1745225176637837647
432928,680,738,0,5546,-2085,-3623,1745225176637837647
433120,867,875,-122,5651,-2407,-4141,1745225176637837647
433312,968,1069,-108,5854,-3214,-4516,1745225176637837647
433504,951,1211,-21,6348,-3086,-4294,1745225176637837647
433696,914,1192,241,6597,-2813,-4095,1745225176637837647
433888,907,1247,443,6390,-2878,-4326,1745225176637837647
434080,888,1302,456,6279,-3009,-4305,1745225176637837647
434272,859,1370,378,6350,-3123,-4239,1745225176637837647
434464,815,1401,338,6529,-3133,-4194,1745225176637837647
434656,757,1425,387,6688,-2949,-4213,1745225176688311665
434848,690,1459,505,6761,-2798,-4092,1745225176688311665
435040,596,1475,612,6751,-2771,-3931,1745225176688311665
435232,498,1488,671,6627,-2787,-3846,1745225176688311665
435424,409,1493,694,6480,-2877,-3730,1745225176688311665
435616,315,1490,686,6556,-2951,-3858,1745225176688311665
435808,235,1457,677,6941,-2914,-4257,1745225176688311665
436000,242,1318,672,7698,-2687,-4741,1745225176688311665
436192,441,1099,645,9050,-2540,-4652,1745225176688311665
436384,795,768,508,11629,-2850,-6085,1745225176688311665
436576,958,214,212,14165,-3815,-8949,1745225176688311665
436768,670,-462,-26,14252,-4866,-8057,1745225176688311665
436960,249,-998,-47,12937,-5756,-5976,1745225176755904068
437152,86,-1363,46,11311,-5857,-5439,1745225176755904068
437344,64,-1614,113,9131,-4786,-5661,1745225176755904068
437536,-130,-1803,88,6755,-3289,-5947,1745225176755904068
437728,-509,-1860,-44,4598,-2187,-6606,1745225176755904068
437920,-845,-1737,-135,3119,-1008,-7222,1745225176755904068
438112,-1010,-1475,-88,2517,709,-7802,1745225176755904068
438304,-1014,-1167,-8,2625,2770,-8321,1745225176755904068
438496,-890,-895,12,3151,4456,-8630,1745225176755904068
438688,-700,-703,7,3878,5230,-9148,1745225176755904068
438880,-497,-583,43,4468,4929,-10030,1745225176755904068
439072,-290,-566,131,4369,4075,-10764,1745225176755904068
439264,-102,-586,215,3831,2551,-10883,1745225176823351942
439456,31,-585,251,3346,748,-10328,1745225176823351942
439648,83,-551,220,3199,-771,-9620,1745225176823351942
439840,60,-488,142,3188,-1585,-8924,1745225176823351942
440032,11,-409,50,3196,-1579,-8355,1745225176823351942
440224,-54,-332,-51,3169,-1053,-8003,1745225176823351942
440416,-133,-275,-140,3083,-518,-7830,1745225176823351942
440608,-206,-232,-178,3017,-20,-7863,1745225176823351942
440800,-245,-211,-174,3006,273,-7847,1745225176823351942
440992,-249,-204,-153,2907,411,-8020,1745225176823351942
441184,-212,-198,-128,2713,459,-8088,1745225176823351942
441376,-132,-188,-114,2527,580,-7894,1745225176823351942
441568,-37,-169,-136,2650,681,-7711,1745225176863891467
441760,40,-156,-176,2892,794,-7614,1745225176863891467
441952,68,-139,-210,2915,915,-7715,1745225176863891467
442144,73,-124,-227,2741,1111,-7858,1745225176863891467
442336,79,-103,-217,2557,1275,-7922,1745225176863891467
442528,67,-76,-184,2645,1203,-7970,1745225176863891467
442720,75,-76,-133,2964,910,-7886,1745225176863891467
442912,89,-90,-83,3169,484,-7750,1745225176863891467
443104,66,-105,-44,3123,95,-7606,1745225176863891467
443296,19,-116,-11,2873,-156,-7504,1745225176863891467
443488,-39,-104,1,2832,-95,-7478,1745225176863891467
443680,-89,-95,-5,3010,241,-7458,1745225176863891467
443872,-113,-85,-14,3140,749,-7490,1745225176931321320
444064,-110,-91,-14,3184,1112,-7440,1745225176931321320
444256,-76,-101,-11,3169,1200,-7505,1745225176931321320
444448,-29,-102,-21,3015,1185,-7594,1745225176931321320
444640,-4,-99,-31,2962,1113,-7568,1745225176931321320
444832,-2,-101,-25,2999,933,-7528,1745225176931321320
445024,-3,-100,-3,2909,749,-7632,1745225176931321320
445216,-8,-87,18,2774,577,-7753,1745225176931321320
445408,-14,-69,27,2792,387,-7944,1745225176931321320
445600,-19,-50,27,2876,310,-8153,1745225176931321320
445792,-32,-30,27,2993,332,-8246,1745225176931321320
445984,-39,-14,19,2877,454,-8221,1745225176931321320
446176,-36,6,15,2864,468,-8012,1745225176989426675
446368,-17,27,19,2967,392,-7801,1745225176989426675
446560,-5,45,27,2994,224,-7741,1745225176989426675
446752,2,60,35,2973,47,-7676,1745225176989426675
446944,3,70,36,3016,-132,-7638,1745225176989426675
447136,-3,79,34,3030,-265,-7676,1745225176989426675
447328,-9,89,34,2948,-304,-7614,1745225176989426675
447520,-12,99,31,2970,-307,-7536,1745225176989426675
447712,-16,105,17,3039,-161,-7524,1745225176989426675
447904,-30,110,-1,3083,141,-7519,1745225176989426675
448096,-44,110,-8,3169,419,-7428,1745225176989426675
448288,-41,105,-14,3174,595,-7467,1745225176989426675
448480,-29,101,-13,3082,679,-7501,1745225177047018388
448672,-21,102,-15,2998,647,-7413,1745225177047018388
448864,-12,108,-16,2931,557,-7442,1745225177047018388
449056,1,112,-19,2836,499,-7600,1745225177047018388
449248,27,115,-31,2776,457,-7846,1745225177047018388
449440,60,112,-49,2808,406,-7869,1745225177047018388
449632,88,110,-65,2790,388,-7822,1745225177047018388
449824,96,110,-71,2811,348,-7739,1745225177047018388
450016,91,105,-68,2897,287,-7558,1745225177047018388
450208,87,90,-60,3138,-105,-7401,1745225177047018388
450400,73,67,-55,3268,-803,-7441,1745225177047018388
450592,31,54,-45,2801,-1149,-7570,1745225177047018388
450784,-30,72,-30,2330,-852,-7604,1745225177105818528
450976,-65,90,-28,2550,-369,-7498,1745225177105818528
451168,-39,90,-51,2849,347,-7501,1745225177105818528
451360,-15,90,-96,2809,1262,-7256,1745225177105818528
451552,-2,75,-113,2870,1516,-7138,1745225177105818528
451744,67,34,-85,3198,983,-7181,1745225177105818528
451936,156,-15,-62,3241,334,-7179,1745225177105818528
452128,194,-41,-67,3011,-85,-7212,1745225177105818528
452320,156,-61,-80,2909,-569,-7178,1745225177105818528
452512,95,-69,-58,2791,-866,-7126,1745225177105818528
452704,44,-61,-26,2739,-625,-7077,1745225177105818528
452896,-7,-50,-25,2922,-94,-7095,1745225177105818528
453088,-37,-52,-45,3202,485,-7349,1745225177165218298
453280,-40,-64,-61,3270,960,-7679,1745225177165218298
453472,-31,-81,-63,3150,1257,-7828,1745225177165218298
453664,-14,-90,-52,2971,1276,-7959,1745225177165218298
453856,3,-90,-33,2862,1133,-7996,1745225177165218298
454048,28,-80,-8,2832,781,-7848,1745225177165218298
454240,57,-65,12,2727,89,-7422,1745225177165218298
454432,35,-47,10,2409,-1097,-7242,1745225177165218298
454624,-45,26,-9,2290,-1748,-7017,1745225177165218298
454816,-88,66,-28,2707,-898,-7111,1745225177165218298
455008,-95,86,-59,3024,492,-7452,1745225177165218298
455200,-66,81,-87,3224,1316,-7691,1745225177165218298
455392,-6,44,-97,3379,1493,-7806,1745225177221865697
455584,67,11,-81,3286,1297,-7785,1745225177221865697
455776,173,-7,-17,2567,1013,-6803,1745225177221865697
455968,505,30,152,3162,-115,-8406,1745225177221865697
456160,244,16,54,3499,557,-8235,1745225177221865697
456352,141,-19,-15,3234,551,-7515,1745225177221865697
456544,161,-3,-24,3160,374,-7406,1745225177221865697
456736,178,-13,-14,3193,250,-7272,1745225177221865697
456928,183,-11,5,3207,258,-7399,1745225177221865697
457120,189,-11,15,3166,355,-7531,1745225177221865697
457312,191,-16,12,3257,421,-7647,1745225177221865697
457504,168,-35,3,3285,276,-7747,1745225177221865697
459232,-80,-63,4,3117,127,-7595,1745225178516026375
505312,-98,-78,51,2955,370,-7897,1745225178516026375
505504,-45,-74,51,2267,-384,-7195,1745225178516026375
505696,-142,-64,64,2887,410,-7524,1745225178516026375
505888,-117,-86,58,2765,256,-7652,1745225178516026375
506080,-109,-47,48,2656,9,-7758,1745225178516026375
506272,-101,-55,43,2583,120,-7907,1745225178516026375
506464,-138,-45,43,2285,210,-7901,1745225178516026375
506656,-133,-13,55,2608,321,-8136,1745225178516026375
506848,-123,-20,33,2682,197,-8044,1745225178516026375
507040,-118,5,34,2546,63,-8083,1745225178516026375
507232,-114,16,47,2518,164,-7981,1745225178516026375
507424,-117,17,58,2525,309,-7894,1745225178539068925
507616,-88,32,74,2726,471,-7759,1745225178539068925
507808,-15,41,75,2836,667,-7854,1745225178539068925
508000,59,46,64,2749,638,-8029,1745225178539068925
508192,118,48,59,2668,751,-8165,1745225178539068925
508384,170,42,54,2505,838,-8082,1745225178539068925
508576,231,38,44,2487,759,-7889,1745225178539068925
508768,249,56,17,2395,43,-7748,1745225178539068925
508960,342,19,19,3022,1620,-7163,1745225178539068925
509152,374,25,7,2534,919,-7505,1745225178539068925
509344,387,45,27,2441,774,-8423,1745225178539068925
509536,360,156,66,2654,63,-5928,1745225178539068925
509728,388,20,67,3157,252,-7055,1745225178600556019
509920,341,92,99,1887,-2218,-7287,1745225178600556019
510112,88,169,85,3319,-2852,-7440,1745225178600556019
510304,-57,46,102,3402,-424,-7481,1745225178600556019
510496,-114,84,89,2784,1413,-7981,1745225178600556019
510688,-41,63,47,2629,1921,-7969,1745225178600556019
510880,54,50,42,2981,1414,-7954,1745225178600556019
511072,110,41,59,2810,589,-7916,1745225178600556019
511264,96,48,80,2583,16,-7550,1745225178600556019
511456,93,55,76,2829,-253,-7509,1745225178600556019
511648,75,51,56,3107,-364,-7508,1745225178600556019
511840,16,43,55,2988,-429,-7809,1745225178600556019
512032,-58,38,80,2646,-421,-7885,1745225178675693198
512224,-101,51,97,2734,214,-7241,1745225178675693198
512416,-51,56,57,2946,1059,-7672,1745225178675693198
512608,-62,43,28,3046,902,-7721,1745225178675693198
512800,-48,28,55,3100,670,-7925,1745225178675693198
512992,-33,18,51,2959,513,-7945,1745225178675693198
513184,-56,21,43,2983,365,-7903,1745225178675693198
513376,-67,26,47,2975,410,-7769,1745225178675693198
513568,-58,44,45,2965,508,-7696,1745225178675693198
513760,-35,60,32,3063,452,-7643,1745225178675693198
513952,-20,69,24,3193,268,-7631,1745225178675693198
514144,-33,73,28,3173,153,-7630,1745225178675693198
514336,-63,82,33,3092,159,-7670,1745225178718616816
514528,-85,87,27,3218,315,-7651,1745225178718616816
514720,-91,86,7,3467,532,-7636,1745225178718616816
514912,-95,80,-14,3482,647,-7695,1745225178718616816
515104,-108,82,-24,3328,639,-7859,1745225178718616816
515296,-127,88,-28,3326,577,-8024,1745225178718616816
515488,-133,98,-35,3485,427,-8045,1745225178718616816
515680,-142,114,-43,3619,224,-8058,1745225178718616816
515872,-173,144,-49,3762,-14,-8003,1745225178718616816
516064,-231,185,-60,3893,-196,-8044,1745225178718616816
516256,-305,241,-78,4010,-210,-8133,1745225178718616816
516448,-373,305,-111,4154,-82,-8021,1745225178718616816
516640,-447,373,-160,4385,13,-8101,1745225178776065874
516832,-507,433,-227,4542,39,-8178,1745225178776065874
517024,-567,480,-306,4512,-64,-8231,1745225178776065874
517216,-631,529,-396,4464,-258,-8279,1745225178776065874
517408,-673,578,-487,4617,-419,-8278,1745225178776065874
517600,-701,623,-589,4885,-563,-8072,1745225178776065874
517792,-742,671,-705,5136,-767,-7954,1745225178776065874
517984,-834,709,-830,5447,-1098,-7962,1745225178776065874
518176,-953,738,-944,6135,-1380,-8256,1745225178776065874
518368,-1054,735,-1033,6898,-1624,-8217,1745225178776065874
518560,-1154,704,-1117,7599,-1957,-8166,1745225178776065874
518752,-1267,651,-1211,8366,-2435,-8637,1745225178776065874
518944,-1388,505,-1355,8800,-2863,-8787,1745225178834387790
519136,-1552,408,-1548,8543,-3168,-9716,1745225178834387790
519328,-1731,354,-1703,8418,-3328,-10162,1745225178834387790
519520,-1810,358,-1775,9187,-3499,-9131,1745225178834387790
519712,-1490,381,-1819,10143,-3563,-7308,1745225178834387790
519904,-857,319,-1963,11161,-3321,-6607,1745225178834387790
520096,-339,88,-2300,11921,-3056,-7563,1745225178834387790
520288,-62,-174,-2626,11843,-2904,-8036,1745225178834387790
520480,174,-302,-2743,10626,-2295,-7080,1745225178834387790
520672,243,-414,-2820,10400,-3007,-6654,1745225178834387790
520864,378,-545,-2822,8567,-2554,-1923,1745225178834387790
521056,-446,48,-2439,10632,-4516,-1680,1745225178834387790
521248,-971,-148,-1953,12471,-5634,-2360,1745225178892629237
521440,-1044,-555,-1645,11211,-4637,-1753,1745225178892629237
521632,-1117,-587,-1359,10202,-3025,-3487,1745225178892629237
521824,-1166,-484,-1110,9407,-1356,-3516,1745225178892629237
522016,-1161,-461,-881,9230,-715,-3337,1745225178892629237
522208,-1040,-541,-597,9552,-921,-3076,1745225178892629237
522400,-814,-632,-257,10087,-1340,-3035,1745225178892629237
522592,-591,-723,94,10352,-1989,-2808,1745225178892629237
522784,-451,-780,362,9987,-2749,-2707,1745225178892629237
522976,-377,-779,553,9188,-3275,-2486,1745225178892629237
523168,-371,-737,723,8429,-3566,-2367,1745225178892629237
523360,-431,-656,893,7874,-3615,-2310,1745225178892629237
523552,-544,-537,1073,7478,-3458,-2141,1745225178949109867
523744,-698,-386,1255,7227,-3216,-1902,1745225178949109867
523936,-864,-218,1427,7044,-2831,-1659,1745225178949109867
524128,-1023,-37,1582,6882,-2343,-1518,1745225178949109867
524320,-1170,160,1726,6778,-1858,-1459,1745225178949109867
524512,-1311,371,1865,6712,-1465,-1313,1745225178949109867
524704,-1392,582,2005,6690,-995,-1252,1745225178949109867
524896,-1387,796,2164,6721,-501,-1132,1745225178949109867
525088,-1368,1016,2325,6768,-144,-1003,1745225178949109867
525280,-1334,1238,2471,6781,145,-785,1745225178949109867
525472,-1266,1461,2623,6837,422,-496,1745225178949109867
525664,-1163,1679,2783,6928,682,-237,1745225178949109867
525856,-1042,1898,2944,6966,858,13,1745225179010859459
526048,-914,2128,3103,7101,1005,373,1745225179010859459
526240,-775,2367,3232,7212,1152,619,1745225179010859459
526432,-631,2608,3320,7319,1373,912,1745225179010859459
526624,-485,2863,3388,7602,1577,1315,1745225179010859459
526816,-345,3130,3472,8003,1749,1624,1745225179010859459
527008,-227,3394,3576,8527,2007,1859,1745225179010859459
527200,-131,3635,3676,8959,2251,2248,1745225179010859459
527392,-47,3869,3804,9870,2473,2302,1745225179010859459
527584,45,4160,3937,10463,3083,2560,1745225179010859459
527776,142,4386,3999,10915,3815,2690,1745225179010859459
527968,254,4624,3985,11465,4539,2562,1745225179010859459
528160,358,4842,3944,12085,5137,2580,1745225179066123954
528352,448,5034,3900,12752,5547,2690,1745225179066123954
528544,548,5207,3859,13372,5944,2664,1745225179066123954
528736,661,5418,3832,14059,6390,2612,1745225179066123954
528928,768,5599,3806,14641,6785,2538,1745225179066123954
529120,887,5762,3744,15139,7162,2365,1745225179066123954
529312,1014,5916,3635,15667,7581,2345,1745225179066123954
529504,1145,6050,3499,16223,7979,2380,1745225179066123954
529696,1284,6181,3343,16795,8477,2376,1745225179066123954
529888,1422,6302,3160,17397,9042,2385,1745225179066123954
530080,1552,6403,2951,18001,9674,2420,1745225179066123954
530272,1680,6493,2711,18570,10294,2567,1745225179066123954
530464,1804,6556,2456,19031,10939,2598,1745225179126534548
530656,1907,6596,2192,19390,11502,2357,1745225179126534548
530848,1988,6605,1921,19547,11911,2080,1745225179126534548
531040,2059,6599,1656,19553,12139,1799,1745225179126534548
531232,2112,6560,1397,19432,12210,1620,1745225179126534548
531424,2145,6521,1142,19207,12417,1398,1745225179126534548
531616,2151,6493,885,19056,12518,1030,1745225179126534548
531808,2146,6482,611,18966,12389,705,1745225179126534548
532000,2137,6482,322,19021,12071,347,1745225179126534548
532192,2106,6455,23,19092,11650,290,1745225179126534548
532384,2038,6409,-274,19064,11371,466,1745225179126534548
532576,1924,6372,-565,18918,11398,410,1745225179126534548
532768,1764,6345,-862,18780,11390,281,1745225179219378387
532960,1593,6306,-1160,18712,11323,393,1745225179219378387
533152,1436,6262,-1441,18793,11452,513,1745225179219378387
533344,1269,6197,-1707,18925,11580,392,1745225179219378387
533536,1103,6114,-1956,19023,11649,159,1745225179219378387
533728,962,6036,-2186,19041,11731,-97,1745225179219378387
533920,867,5964,-2395,19091,11904,-231,1745225179219378387
534112,749,5876,-2626,19710,12222,-2567,1745225179219378387
534304,295,5712,-2847,18752,12044,1708,1745225179219378387
534496,826,5692,-3001,18990,12193,-929,1745225179219378387
534688,903,5544,-3176,18908,12317,-788,1745225179219378387
534880,994,5424,-3361,18764,12228,-1001,1745225179219378387
535072,1098,5290,-3552,18564,11992,-1277,1745225179242505989
535264,1213,5150,-3752,18332,11668,-1471,1745225179242505989
535456,1315,5018,-3944,18159,11386,-1569,1745225179242505989
535648,1392,4880,-4111,17935,11144,-1461,1745225179242505989
535840,1451,4730,-4260,17762,10942,-1439,1745225179242505989
536032,1486,4557,-4394,17689,10609,-1556,1745225179242505989
536224,1513,4373,-4513,17706,10239,-1672,1745225179242505989
536416,1546,4192,-4614,17679,9859,-1827,1745225179242505989
536608,1572,4004,-4711,17635,9377,-1849,1745225179242505989
536800,1581,3811,-4799,17413,8919,-2017,1745225179242505989
536992,1571,3621,-4871,17065,8311,-2330,1745225179242505989
537184,1554,3430,-4932,16708,7685,-2647,1745225179242505989
537376,1532,3246,-4981,16393,7186,-3051,1745225179300735457
537568,1482,3072,-5023,16157,6766,-3327,1745225179300735457
537760,1419,2903,-5053,15897,6428,-3335,1745225179300735457
537952,1357,2733,-5065,15636,6227,-3197,1745225179300735457
538144,1302,2567,-5066,15301,6155,-3312,1745225179300735457
538336,1265,2394,-5058,15025,6043,-3483,1745225179300735457
538528,1267,2216,-5028,14821,5813,-3563,1745225179300735457
538720,1299,2030,-4978,14670,5555,-3711,1745225179300735457
538912,1336,1848,-4917,14455,5276,-3968,1745225179300735457
539104,1357,1671,-4848,14224,4867,-4223,1745225179300735457
539296,1381,1487,-4775,14088,4349,-4526,1745225179300735457
539488,1413,1290,-4699,14104,3755,-4781,1745225179300735457
539680,1434,1098,-4626,14157,3033,-4780,1745225179366326732
539872,1427,903,-4553,14173,2352,-4516,1745225179366326732
540064,1406,708,-4476,13954,1813,-4123,1745225179366326732
540256,1368,508,-4391,13680,1391,-3739,1745225179366326732
540448,1307,305,-4305,13363,1051,-3438,1745225179366326732
540640,1231,112,-4221,13054,764,-3238,1745225179366326732
540832,1155,-75,-4128,12922,511,-3078,1745225179366326732
541024,1064,-260,-4024,12996,204,-3052,1745225179366326732
541216,945,-440,-3910,13185,-159,-2950,1745225179366326732
541408,807,-611,-3789,13393,-577,-2520,1745225179366326732
541600,653,-762,-3664,13487,-968,-2150,1745225179366326732
541792,487,-890,-3530,13438,-1271,-1802,1745225179366326732
541984,328,-996,-3388,13288,-1578,-1694,1745225179422342106
542176,186,-1094,-3250,13099,-1866,-1606,1745225179422342106
542368,80,-1188,-3121,12924,-2207,-1442,1745225179422342106
542560,20,-1281,-3012,12833,-2577,-1216,1745225179422342106
542752,1,-1374,-2918,12754,-2834,-770,1745225179422342106
542944,-4,-1462,-2830,12662,-3032,-209,1745225179422342106
543136,4,-1554,-2743,12431,-3106,424,1745225179422342106
543328,38,-1654,-2645,12028,-2871,849,1745225179422342106
543520,46,-1774,-2550,11233,-1644,657,1745225179422342106
543712,-218,-1860,-2508,10589,-2628,2941,1745225179422342106
543904,-67,-1898,-2234,10470,-3515,2595,1745225179422342106
544096,18,-2078,-1874,10423,-3343,3213,1745225179422342106
544288,345,-2200,-1832,9492,-2573,2684,1745225179515148915
544480,356,-2309,-1697,8790,-2242,3382,1745225179515148915
544672,344,-2418,-1522,8357,-2241,4027,1745225179515148915
544864,453,-2536,-1320,7704,-2262,4460,1745225179515148915
545056,574,-2486,-1142,6562,-2709,4619,1745225179515148915
545248,608,-2365,-1010,5422,-3171,5099,1745225179515148915
545440,545,-2229,-862,4455,-3376,5282,1745225179515148915
545632,416,-2071,-672,3749,-3126,5502,1745225179515148915
545824,290,-1914,-417,3424,-2110,5704,1745225179515148915
546016,272,-1757,-178,3441,-1353,6385,1745225179515148915
546208,307,-1648,-35,3426,9,6371,1745225179515148915
546400,387,-1549,80,3411,846,6539,1745225179515148915
546592,498,-1476,119,3290,1564,7542,1745225179531444964
546784,628,-1341,151,2820,1874,7426,1745225179531444964
546976,707,-1240,261,2361,2295,8202,1745225179531444964
547168,746,-1093,383,1861,2772,8470,1745225179531444964
547360,760,-962,452,1485,3091,8700,1745225179531444964
547552,750,-823,475,1151,3304,8943,1745225179531444964
547744,729,-673,485,833,3637,8944,1745225179531444964
547936,718,-499,504,589,4255,8800,1745225179531444964
548128,704,-327,519,499,5071,8734,1745225179531444964
548320,678,-161,523,492,5875,8717,1745225179531444964
548512,638,7,501,514,6570,8670,1745225179531444964
548704,600,157,470,573,7084,8578,1745225179531444964
548896,569,296,450,579,7541,8412,1745225179597684619
549088,553,430,447,634,7876,8239,1745225179597684619
549280,548,549,442,763,8051,7909,1745225179597684619
549472,555,653,434,847,8291,7547,1745225179597684619
549664,580,742,435,976,8559,7302,1745225179597684619
549856,601,819,425,1209,8769,7057,1745225179597684619
550048,614,855,415,1457,9038,7165,1745225179597684619
550240,623,876,412,1578,9299,7220,1745225179597684619
550432,615,881,403,1598,9451,7219,1745225179597684619
550624,599,868,385,1538,9509,7169,1745225179597684619
550816,574,854,356,1467,9433,7087,1745225179597684619
551008,518,840,304,1375,9164,6909,1745225179597684619
551200,434,827,247,1273,8943,6730,1745225179660456077
551392,352,808,214,1220,8882,6632,1745225179660456077
551584,280,796,204,1212,9157,6220,1745225179660456077
551776,219,801,222,1290,9490,5847,1745225179660456077
551968,169,798,220,1530,9587,5516,1745225179660456077
552160,142,759,171,1773,9519,5384,1745225179660456077
552352,133,719,103,1896,9380,5167,1745225179660456077
552544,125,682,61,1965,9194,4825,1745225179660456077
552736,131,632,54,2084,8941,4612,1745225179660456077
552928,158,565,61,2239,8594,4527,1745225179660456077
553120,181,487,49,2290,8113,4492,1745225179660456077
553312,182,403,13,2146,7667,4406,1745225179660456077
553504,170,315,-8,1903,7317,4299,1745225179718060082
553504,170,315,-8,1903,7317,4299,1745225179718060082
553888,122,175,14,1444,6951,4442,1745225179718060082
554080,77,113,35,1356,6880,4640,1745225179718060082
554272,6,71,41,1202,6948,4710,1745225179718060082
554464,-73,38,62,1121,7026,4807,1745225179718060082
554656,-134,-1,108,1242,6944,4723,1745225179718060082
554848,-174,-36,143,1409,6685,4544,1745225179718060082
555040,-203,-81,163,1600,6353,4476,1745225179718060082
555232,-215,-114,177,1701,6010,4301,1745225179718060082
555424,-201,-148,197,1739,5818,4318,1745225179718060082
555616,-175,-176,214,1667,5776,4376,1745225179718060082
555808,-170,-192,219,1457,5832,4432,1745225179782354963
556000,-191,-180,210,1253,5903,4460,1745225179782354963
556192,-218,-158,201,1137,5987,4613,1745225179782354963
556384,-234,-133,200,1175,6072,4768,1745225179782354963
556576,-239,-114,206,1354,6135,4824,1745225179782354963
556768,-228,-116,209,1621,6126,4899,1745225179782354963
556960,-190,-129,199,1763,6046,4986,1745225179782354963
557152,-148,-139,173,1690,6033,4936,1745225179782354963
557344,-121,-127,150,1482,6116,4945,1745225179782354963
557536,-98,-97,145,1211,6260,5041,1745225179782354963
557728,-78,-40,156,1013,6469,4921,1745225179782354963
557920,-61,23,170,1014,6561,4716,1745225179782354963
558112,-30,78,178,1248,6483,4594,1745225179827324761
558304,21,112,182,1629,6246,4478,1745225179827324761
558496,79,118,181,1997,5913,4500,1745225179827324761
558688,139,98,183,2182,5595,4642,1745225179827324761
558880,188,73,185,2094,5398,4780,1745225179827324761
559072,211,56,185,1771,5423,5110,1745225179827324761
559264,194,73,186,1321,5667,5155,1745225179827324761
559456,136,107,198,989,5981,5184,1745225179827324761
559648,79,140,231,976,6243,5171,1745225179827324761
559840,34,163,265,1294,6316,4972,1745225179827324761
560032,9,163,281,1723,6208,4872,1745225179827324761
560224,0,161,270,1980,5987,4649,1745225179827324761
560416,9,153,255,2066,5875,4513,1745225179895489190
560608,42,152,254,1923,5923,4440,1745225179895489190
560800,81,164,257,1701,6080,4244,1745225179895489190
560992,113,184,254,1591,6264,4158,1745225179895489190
561184,136,210,241,1593,6407,4113,1745225179895489190
561376,150,234,224,1768,6463,4161,1745225179895489190
561568,163,246,207,2022,6490,4246,1745225179895489190
561760,171,247,187,2215,6580,4325,1745225179895489190
561952,174,238,166,2340,6772,4490,1745225179895489190
562144,173,215,147,2434,6965,4685,1745225179895489190
562336,169,185,130,2487,7112,4781,1745225179895489190
562528,163,150,110,2453,7139,4677,1745225179895489190
562720,154,113,88,2407,7005,4573,1745225179948028398
562912,142,75,68,2319,6839,4577,1745225179948028398
563104,120,50,55,2168,6662,4715,1745225179948028398
563296,85,31,52,1972,6602,4808,1745225179948028398
563488,40,27,54,1755,6565,4852,1745225179948028398
563680,2,25,59,1591,6558,4879,1745225179948028398
563872,-27,33,69,1446,6623,4861,1745225179948028398
564064,-55,46,82,1343,6741,4919,1745225179948028398
564256,-88,59,97,1339,6856,4984,1745225179948028398
564448,-121,69,112,1362,6983,5065,1745225179948028398
564640,-143,77,128,1456,7081,5139,1745225179948028398
564832,-148,71,144,1621,7114,5307,1745225179948028398
565024,-144,58,154,1694,7194,5496,1745225180023924007
565216,-147,57,161,1699,7312,5494,1745225180023924007
565408,-145,53,164,1760,7386,5517,1745225180023924007
565600,-130,41,158,1876,7407,5571,1745225180023924007
565792,-108,22,146,2032,7385,5627,1745225180023924007
565984,-79,-1,134,2146,7317,5611,1745225180023924007
566176,-50,-26,119,2136,7257,5562,1745225180023924007
566368,-26,-48,97,2069,7272,5550,1745225180023924007
566560,-9,-61,70,1953,7312,5540,1745225180023924007
566752,-12,-66,41,1861,7309,5451,1745225180023924007
566944,-36,-66,17,1830,7188,5350,1745225180023924007
567136,-67,-62,0,1858,7014,5336,1745225180023924007
567328,-93,-53,-14,1853,6860,5274,1745225180067246215
567520,-123,-37,-25,1798,6743,5159,1745225180067246215
567712,-151,-14,-37,1700,6675,5074,1745225180067246215
567904,-177,12,-44,1600,6571,4914,1745225180067246215
568096,-191,40,-48,1578,6471,4897,1745225180067246215
