timestamp,gyr_x,gyr_y,gyr_z,acc_x,acc_y,acc_z,pkt_time_ns
105185,-35,85,-4,-79,790,-7743,1745157108770601870
105377,-70,86,7,-227,-60,-7408,1745157108770601870
105569,-74,206,-11,308,142,-7809,1745157108770601870
105761,-14,168,-7,611,609,-7592,1745157108770601870
105953,-7,187,8,721,661,-7835,1745157108770601870
106145,9,178,-7,857,653,-7944,1745157108770601870
106337,16,154,-22,946,522,-7945,1745157108770601870
106529,5,140,-35,985,512,-8013,1745157108770601870
106721,19,109,-39,1006,603,-8032,1745157108770601870
106913,25,83,-34,1035,690,-8090,1745157108770601870
107105,25,59,-33,1071,683,-8184,1745157108770601870
107297,32,30,-35,1081,700,-8227,1745157108770601870
107489,31,1,-34,1058,748,-8240,1745157108840445242
107681,36,-20,-30,990,778,-8257,1745157108840445242
107873,40,-37,-25,898,776,-8300,1745157108840445242
108065,34,-45,-23,801,703,-8352,1745157108840445242
108257,29,-44,-22,715,662,-8382,1745157108840445242
108449,24,-41,-17,672,668,-8402,1745157108840445242
108641,23,-35,-9,688,680,-8397,1745157108840445242
108833,30,-30,-2,720,714,-8389,1745157108840445242
109025,37,-27,2,717,771,-8365,1745157108840445242
109217,50,-23,6,752,832,-8354,1745157108840445242
109409,62,-22,12,762,805,-8365,1745157108840445242
109601,69,-22,17,769,754,-8348,1745157108840445242
109793,75,-23,23,706,664,-8370,1745157108883130842
109985,70,-22,28,645,496,-8396,1745157108883130842
110177,80,-15,30,543,763,-8333,1745157108883130842
110369,110,-1,37,485,1000,-8244,1745157108883130842
110561,139,16,39,515,914,-8169,1745157108883130842
110753,158,61,27,311,-537,-8652,1745157108883130842
110945,82,59,6,1063,901,-7852,1745157108883130842
111137,177,-10,58,674,1883,-7833,1745157108883130842
111329,263,58,94,346,1720,-8003,1745157108883130842
111521,315,56,77,395,1101,-8005,1745157108883130842
111713,313,87,60,600,544,-7949,1745157108883130842
111905,331,85,44,713,110,-7888,1745157108883130842
112097,-347,125,113,1013,-3691,-9092,1745157108950494445
112289,-524,234,22,924,-3920,-6822,1745157108950494445
112481,-393,55,-71,869,-2175,-7356,1745157108950494445
112673,-438,-10,-56,946,-510,-7823,1745157108950494445
112865,-467,31,-98,766,962,-7540,1745157108950494445
113057,-418,43,-165,663,2085,-7405,1745157108950494445
113249,-332,42,-190,661,2532,-7423,1745157108950494445
113441,-185,42,-188,762,2535,-7350,1745157108950494445
113633,-36,10,-149,890,2155,-7475,1745157108950494445
113825,68,-27,-77,1028,1563,-7646,1745157108950494445
114017,120,-56,-19,1037,984,-7808,1745157108950494445
114209,126,-80,11,943,563,-7956,1745157108950494445
114401,98,-91,20,822,314,-8097,1745157109000089357
114593,51,-100,17,714,136,-8222,1745157109000089357
114785,2,-103,4,640,72,-8374,1745157109000089357
114977,-43,-93,-13,589,95,-8491,1745157109000089357
115169,-84,-76,-28,575,175,-8595,1745157109000089357
115361,-123,-61,-40,630,265,-8653,1745157109000089357
115553,-157,-51,-53,694,380,-8681,1745157109000089357
115745,-185,-45,-57,746,523,-8650,1745157109000089357
115937,-208,-42,-47,754,649,-8546,1745157109000089357
116129,-217,-41,-26,774,773,-8385,1745157109000089357
116321,-209,-43,-5,767,873,-8265,1745157109000089357
116513,-198,-43,2,757,901,-8149,1745157109000089357
116705,-183,-41,-3,729,869,-8063,1745157109060264901
116897,-172,-37,-14,703,801,-7965,1745157109060264901
117089,-165,-29,-24,682,699,-7974,1745157109060264901
117281,-158,-21,-35,681,626,-8029,1745157109060264901
117473,-154,-15,-48,667,597,-7972,1745157109060264901
117665,-152,-7,-59,660,633,-8003,1745157109060264901
117857,-154,-1,-65,608,641,-8098,1745157109060264901
118049,-153,0,-67,594,647,-8194,1745157109060264901
118241,-152,2,-66,572,626,-8279,1745157109060264901
118433,-149,9,-64,594,622,-8355,1745157109060264901
118625,-149,20,-62,650,621,-8428,1745157109060264901
118817,-149,33,-64,725,636,-8500,1745157109060264901
119009,-148,45,-75,765,644,-8592,1745157109126617420
119201,-148,54,-90,795,604,-8623,1745157109126617420
119393,-147,65,-101,771,575,-8690,1745157109126617420
119585,-155,80,-110,723,565,-8797,1745157109126617420
119777,-173,91,-117,680,569,-8832,1745157109126617420
119969,-195,101,-122,641,630,-8838,1745157109126617420
120161,-217,108,-121,642,666,-8798,1745157109126617420
120353,-238,113,-116,690,718,-8676,1745157109126617420
120545,-252,119,-114,762,777,-8543,1745157109126617420
120737,-254,129,-127,844,808,-8558,1745157109126617420
120929,-253,138,-157,883,760,-8569,1745157109126617420
121121,-243,138,-188,888,644,-8576,1745157109126617420
121313,-231,139,-209,916,579,-8646,1745157109189726010
121505,-233,140,-225,955,481,-8679,1745157109189726010
121697,-243,138,-231,1085,371,-8649,1745157109189726010
121889,-260,127,-228,1232,287,-8527,1745157109189726010
122081,-269,111,-230,1399,226,-8392,1745157109189726010
122273,-259,96,-237,1539,225,-8520,1745157109189726010
122465,-258,73,-259,1715,129,-8565,1745157109189726010
122657,-257,22,-293,1963,46,-8467,1745157109189726010
122849,-255,-35,-329,2149,32,-8296,1745157109189726010
123041,-271,-66,-366,2183,38,-8160,1745157109189726010
123233,-282,-78,-408,2113,107,-8012,1745157109189726010
123425,-269,-65,-460,1991,175,-8102,1745157109189726010
123617,-252,-39,-518,1834,328,-8106,1745157109233628265
123809,-219,18,-579,1564,699,-8433,1745157109233628265
124001,-157,96,-629,1333,1076,-8874,1745157109233628265
124193,-105,152,-648,1289,1197,-8834,1745157109233628265
124385,-73,193,-636,1395,1180,-9122,1745157109233628265
124577,-90,214,-610,1568,1108,-9146,1745157109233628265
124769,-126,244,-585,1740,1251,-8868,1745157109233628265
124961,-133,306,-573,1904,1309,-8563,1745157109233628265
125153,-115,370,-545,2082,1495,-8101,1745157109233628265
125345,-91,413,-532,2303,1592,-7676,1745157109233628265
125537,-73,443,-538,2412,1581,-7596,1745157109233628265
125729,-88,485,-541,2392,1562,-7749,1745157109233628265
125921,-76,527,-552,2385,1598,-7900,1745157109361851208
126113,-36,552,-585,2525,1675,-7826,1745157109361851208
126305,14,541,-630,2907,1679,-7569,1745157109361851208
126497,51,474,-668,3457,1612,-7506,1745157109361851208
126689,70,367,-692,4068,1552,-8068,1745157109361851208
126881,67,237,-717,4555,1558,-9068,1745157109361851208
127073,42,72,-776,4899,1417,-9436,1745157109361851208
127265,44,-159,-886,5079,1035,-9254,1745157109361851208
127457,68,-401,-1050,4999,468,-8652,1745157109361851208
127649,109,-594,-1204,4787,165,-7937,1745157109361851208
127841,113,-667,-1206,4302,337,-7464,1745157109361851208
128033,20,-711,-1104,3837,827,-7474,1745157109361851208
128225,-128,-751,-979,3525,1371,-7344,1745157109375472230
128417,-248,-795,-868,3196,1955,-7106,1745157109375472230
128609,-270,-814,-692,3684,2467,-7132,1745157109375472230
128801,-373,-749,-204,4196,2814,-7115,1745157109375472230
128993,-357,-927,-9,4099,2813,-7220,1745157109375472230
129185,-82,-1216,-188,3578,2848,-7213,1745157109375472230
129377,168,-1376,-398,3144,2530,-7215,1745157109375472230
129569,299,-1445,-469,2940,1662,-7215,1745157109375472230
129761,380,-1477,-333,2885,646,-7279,1745157109375472230
129953,485,-1514,-61,2798,-33,-7505,1745157109375472230
130145,551,-1542,162,2471,-307,-7634,1745157109375472230
130337,538,-1528,268,2040,-447,-7591,1745157109375472230
130529,483,-1460,300,1597,-684,-7394,1745157109537148044
130721,422,-1345,321,1273,-936,-7166,1745157109537148044
130913,356,-1210,362,1097,-1181,-6882,1745157109537148044
131105,282,-1071,423,1007,-1389,-6694,1745157109537148044
131297,193,-919,490,930,-1532,-6464,1745157109537148044
131489,103,-760,553,818,-1621,-6227,1745157109537148044
131681,7,-585,599,720,-1654,-6106,1745157109537148044
131873,-82,-404,641,616,-1648,-5842,1745157109537148044
132065,-162,-218,690,546,-1699,-5588,1745157109537148044
132257,-247,-23,736,505,-1551,-5425,1745157109537148044
132449,-328,185,771,465,-1429,-5232,1745157109537148044
132641,-388,374,825,551,-1311,-5042,1745157109537148044
132833,-444,552,883,612,-1163,-4901,1745157109560303562
133025,-491,735,940,657,-943,-4786,1745157109560303562
133217,-506,902,997,557,-718,-5045,1745157109560303562
133409,-492,1107,1070,936,-477,-5080,1745157109560303562
133601,-485,1270,1124,936,-474,-4339,1745157109560303562
133793,-452,1351,1170,1094,-222,-4492,1745157109560303562
133985,-459,1493,1241,1057,-118,-3961,1745157109560303562
134177,-449,1653,1314,1049,-67,-3629,1745157109560303562
134369,-418,1790,1377,1098,-2,-3506,1745157109560303562
134561,-385,1929,1424,1139,22,-3495,1745157109560303562
134753,-356,2076,1467,1215,50,-3577,1745157109560303562
134945,-325,2223,1517,1311,40,-3583,1745157109560303562
135137,-285,2369,1573,1425,207,-3745,1745157109610886069
135329,-252,2514,1643,1606,403,-3915,1745157109610886069
135521,-223,2664,1714,1755,685,-3969,1745157109610886069
135713,-187,2814,1777,1917,978,-3985,1745157109610886069
135905,-139,2961,1831,2128,1367,-4063,1745157109610886069
136097,-92,3109,1875,2400,1830,-4079,1745157109610886069
136289,-59,3259,1902,2795,2291,-4164,1745157109610886069
136481,-46,3395,1911,3230,2705,-4203,1745157109610886069
136673,-32,3508,1896,3642,3015,-4217,1745157109610886069
136865,-16,3592,1883,3958,3011,-4300,1745157109610886069
137057,-20,3641,1880,4298,2941,-4347,1745157109610886069
137249,-53,3676,1858,4621,2874,-4274,1745157109610886069
137441,-106,3713,1815,4750,2808,-4120,1745157109660466710
137633,-152,3744,1773,4781,2745,-3928,1745157109660466710
137825,-184,3774,1735,4793,2890,-3889,1745157109660466710
138017,-211,3821,1684,4861,3232,-3870,1745157109660466710
138209,-225,3873,1618,4956,3685,-3907,1745157109660466710
138401,-232,3918,1555,5181,4163,-3991,1745157109660466710
138593,-232,3954,1500,5428,4578,-4075,1745157109660466710
138785,-219,3981,1460,5691,4915,-4148,1745157109660466710
138977,-200,4002,1418,6012,5236,-4194,1745157109660466710
139169,-182,4023,1364,6240,5418,-4268,1745157109660466710
139361,-169,4048,1311,6418,5485,-4350,1745157109660466710
139553,-154,4077,1259,6496,5480,-4466,1745157109660466710
139745,-146,4114,1215,6518,5436,-4578,1745157109702953301
139937,-154,4158,1175,6560,5402,-4631,1745157109702953301
140129,-168,4212,1137,6609,5346,-4610,1745157109702953301
140321,-189,4269,1096,6691,5279,-4462,1745157109702953301
140513,-207,4326,1047,6891,5199,-4313,1745157109702953301
140705,-226,4371,990,7139,5052,-4055,1745157109702953301
140897,-251,4391,925,7469,4757,-3809,1745157109702953301
141089,-285,4369,852,7972,4366,-3693,1745157109702953301
141281,-321,4311,758,8446,4055,-3578,1745157109702953301
141473,-357,4260,641,8754,4049,-3641,1745157109702953301
141665,-387,4200,511,8991,4242,-3752,1745157109702953301
141857,-413,4141,367,9109,4693,-3806,1745157109702953301
142049,-432,4100,217,9080,5310,-3905,1745157109741789613
142241,-433,4065,77,9070,5974,-4042,1745157109741789613
142433,-411,4023,-46,9165,6612,-4197,1745157109741789613
142625,-371,3975,-148,9237,7151,-4288,1745157109741789613
142817,-315,3925,-233,9421,7551,-4416,1745157109741789613
143009,-241,3867,-316,9596,7786,-4531,1745157109741789613
143201,-150,3803,-400,9745,7801,-4536,1745157109741789613
143393,-50,3732,-488,9837,7625,-4605,1745157109741789613
143585,39,3662,-575,9860,7281,-4768,1745157109741789613
143777,98,3590,-658,9775,6812,-4851,1745157109741789613
143969,130,3524,-731,9621,6332,-4836,1745157109741789613
144161,136,3469,-791,9465,5898,-4804,1745157109741789613
144353,114,3428,-851,9325,5552,-4673,1745157109757306762
144545,72,3397,-910,9268,5277,-4467,1745157109757306762
144737,25,3362,-969,9377,4981,-4328,1745157109757306762
144929,-20,3305,-1036,9571,4752,-4222,1745157109757306762
145121,-63,3243,-1109,9686,4593,-4186,1745157109757306762
145313,-99,3186,-1185,9742,4507,-4148,1745157109757306762
145505,-130,3126,-1256,9754,4460,-4157,1745157109757306762
145697,-164,3068,-1328,9755,4495,-4206,1745157109757306762
145889,-199,3002,-1396,9729,4544,-4187,1745157109757306762
146081,-228,2930,-1459,9752,4666,-4099,1745157109757306762
146273,-248,2870,-1524,9793,4853,-4147,1745157109757306762
146465,-252,2818,-1583,9770,5076,-4147,1745157109757306762
146657,-232,2773,-1620,9757,5375,-4104,1745157109819444268
146849,-189,2725,-1647,9825,5680,-4157,1745157109819444268
147041,-129,2668,-1681,9912,5952,-4224,1745157109819444268
147233,-44,2601,-1716,10001,6145,-4199,1745157109819444268
147425,69,2520,-1735,10081,6133,-4152,1745157109819444268
147617,196,2444,-1745,10101,6308,-4059,1745157109819444268
147809,333,2360,-1759,10273,6280,-3866,1745157109819444268
148001,477,2243,-1798,10310,6181,-3698,1745157109819444268
148193,620,2126,-1843,10343,5899,-3537,1745157109819444268
148385,741,1993,-1898,10366,5533,-3459,1745157109819444268
148577,820,1858,-1965,10378,5077,-3306,1745157109819444268
148769,858,1719,-2040,10406,4563,-3249,1745157109819444268
148961,850,1578,-2111,10313,4062,-3254,1745157109881702293
149153,821,1440,-2177,10136,3666,-3337,1745157109881702293
149345,767,1319,-2237,9974,3333,-3452,1745157109881702293
149537,688,1212,-2286,9732,3168,-3593,1745157109881702293
149729,585,1132,-2315,9526,3156,-3634,1745157109881702293
149921,464,1064,-2314,9359,3255,-3612,1745157109881702293
150113,334,1011,-2299,9239,3411,-3552,1745157109881702293
150305,209,971,-2291,9198,3571,-3520,1745157109881702293
150497,94,946,-2304,9168,3651,-3609,1745157109881702293
150689,-11,927,-2322,9148,3678,-3573,1745157109881702293
150881,-100,908,-2321,9048,3698,-3500,1745157109881702293
151073,-179,897,-2299,8928,3752,-3474,1745157109881702293
151265,-251,886,-2263,8849,3777,-3344,1745157109999574549
151457,-318,870,-2229,8847,3847,-3063,1745157109999574549
151649,-366,839,-2199,8904,3909,-2704,1745157109999574549
151841,-400,796,-2162,8883,4022,-2324,1745157109999574549
152033,-426,768,-2128,8834,4132,-2134,1745157109999574549
152225,-447,728,-2112,8796,4219,-1921,1745157109999574549
152417,-451,678,-2106,8847,4300,-1703,1745157109999574549
152609,-435,629,-2111,8854,4240,-1532,1745157109999574549
152801,-405,568,-2110,8855,4163,-1379,1745157109999574549
152993,-375,508,-2102,8752,4150,-1170,1745157109999574549
153185,-366,454,-2088,8658,4160,-1055,1745157109999574549
153377,-380,409,-2072,8524,4144,-907,1745157109999574549
153569,-407,372,-2057,8509,4135,-789,1745157110010916217
153761,-430,332,-2060,8452,4152,-659,1745157110010916217
153953,-450,289,-2058,8347,4170,-552,1745157110010916217
154145,-474,248,-2038,8220,4184,-502,1745157110010916217
154337,-500,229,-2013,8056,4265,-438,1745157110010916217
154529,-530,226,-1992,7854,4380,-396,1745157110010916217
154721,-555,233,-1967,7692,4566,-237,1745157110010916217
154913,-562,228,-1938,7582,4757,-87,1745157110010916217
155105,-551,228,-1907,7512,4966,21,1745157110010916217
155297,-536,226,-1879,7468,5124,80,1745157110010916217
155489,-522,216,-1852,7373,5312,204,1745157110010916217
155681,-514,211,-1824,7241,5518,437,1745157110010916217
155873,-510,207,-1799,7061,5660,623,1745157110062394913
156065,-496,190,-1772,6925,5717,905,1745157110062394913
156257,-468,175,-1756,6751,5679,1007,1745157110062394913
156449,-439,155,-1746,6673,5486,1113,1745157110062394913
156641,-413,114,-1736,6606,5276,1224,1745157110062394913
156833,-398,72,-1727,6484,5138,1248,1745157110062394913
157025,-410,45,-1725,6311,5095,1255,1745157110062394913
157217,-446,33,-1729,6125,5144,1252,1745157110062394913
157409,-493,31,-1731,5953,5208,1179,1745157110062394913
157601,-544,36,-1733,5852,5305,1116,1745157110062394913
157793,-599,55,-1732,5804,5442,958,1745157110062394913
157985,-655,83,-1724,5837,5600,867,1745157110062394913
158177,-701,106,-1714,5950,5712,766,1745157110113957150
158369,-723,115,-1703,6099,5852,718,1745157110113957150
158561,-719,113,-1697,6225,6006,674,1745157110113957150
158753,-708,101,-1692,6274,6130,559,1745157110113957150
158945,-683,79,-1686,6296,6158,481,1745157110113957150
159137,-658,58,-1684,6284,6130,446,1745157110113957150
159329,-631,27,-1684,6208,6108,533,1745157110113957150
159521,-605,-1,-1676,6078,6091,587,1745157110113957150
159713,-585,-23,-1653,5898,6116,617,1745157110113957150
159905,-567,-39,-1617,5751,6168,665,1745157110113957150
160097,-545,-52,-1579,5707,6165,661,1745157110113957150
160289,-520,-72,-1544,5741,6073,588,1745157110113957150
160481,-497,-105,-1511,5866,5883,542,1745157110180775082
160673,-480,-142,-1478,5966,5743,577,1745157110180775082
160865,-476,-178,-1446,5966,5694,673,1745157110180775082
161057,-490,-200,-1417,5877,5765,769,1745157110180775082
161249,-513,-218,-1393,5838,5759,806,1745157110180775082
161441,-518,-247,-1379,5873,5739,844,1745157110180775082
161633,-504,-276,-1370,5807,5812,941,1745157110180775082
161825,-489,-291,-1353,5731,5892,858,1745157110180775082
162017,-486,-303,-1330,5692,5908,756,1745157110180775082
162209,-471,-326,-1312,5663,5843,687,1745157110180775082
162401,-446,-355,-1300,5636,5747,656,1745157110180775082
162593,-422,-389,-1291,5549,5695,719,1745157110180775082
162785,-412,-410,-1271,5358,5710,743,1745157110231052487
162977,-416,-422,-1235,5212,5726,759,1745157110231052487
163169,-421,-432,-1194,5103,5716,796,1745157110231052487
163361,-419,-447,-1154,5023,5727,828,1745157110231052487
163553,-413,-464,-1116,4936,5749,924,1745157110231052487
163745,-402,-484,-1076,4850,5752,1117,1745157110231052487
163937,-383,-511,-1035,4729,5774,1423,1745157110231052487
164129,-354,-527,-994,4522,5896,1647,1745157110231052487
164321,-326,-538,-954,4295,6004,1745,1745157110231052487
164513,-299,-550,-919,4154,6008,1727,1745157110231052487
164705,-265,-565,-890,4034,5936,1683,1745157110231052487
164897,-241,-577,-864,3954,5841,1644,1745157110231052487
165089,-237,-581,-835,3820,5778,1661,1745157110291776880
165281,-244,-574,-800,3651,5774,1651,1745157110291776880
165473,-253,-563,-758,3493,5768,1665,1745157110291776880
165665,-238,-560,-716,3398,5799,1719,1745157110291776880
165857,-222,-556,-677,3353,5861,1756,1745157110291776880
166049,-224,-542,-645,3303,5986,1752,1745157110291776880
166241,-244,-519,-615,3233,6097,1725,1745157110291776880
166433,-261,-496,-585,3234,6168,1676,1745157110291776880
166625,-258,-482,-560,3252,6205,1698,1745157110291776880
166817,-240,-477,-542,3326,6211,1721,1745157110291776880
167009,-222,-479,-523,3345,6225,1774,1745157110291776880
167201,-213,-479,-500,3299,6336,1896,1745157110291776880
167393,-210,-476,-479,3205,6447,1959,1745157110350090202
167585,-202,-471,-462,3131,6522,1962,1745157110350090202
167777,-186,-469,-451,3156,6505,1978,1745157110350090202
167969,-168,-466,-439,3220,6467,2018,1745157110350090202
168161,-157,-461,-421,3295,6460,2042,1745157110350090202
168353,-158,-455,-397,3327,6527,2093,1745157110350090202
168545,-159,-451,-376,3326,6650,2215,1745157110350090202
168737,-155,-451,-364,3315,6767,2313,1745157110350090202
168929,-151,-449,-359,3320,6828,2362,1745157110350090202
169121,-152,-447,-353,3351,6802,2347,1745157110350090202
169313,-155,-444,-342,3404,6690,2277,1745157110350090202
169505,-157,-441,-332,3445,6604,2299,1745157110350090202
169697,-159,-431,-322,3412,6671,2363,1745157110408503835
169889,-174,-406,-309,3308,6827,2358,1745157110408503835
170081,-182,-377,-295,3279,6945,2392,1745157110408503835
170273,-164,-354,-285,3377,7007,2411,1745157110408503835
170465,-137,-338,-276,3521,7037,2436,1745157110408503835
170657,-120,-324,-268,3716,7009,2411,1745157110408503835
170849,-106,-319,-256,3845,7010,2487,1745157110408503835
171041,-89,-314,-245,3835,7059,2585,1745157110408503835
171233,-70,-307,-239,3758,7114,2705,1745157110408503835
171425,-49,-300,-239,3713,7125,2775,1745157110408503835
171617,-27,-297,-240,3762,7063,2809,1745157110408503835
171809,-8,-299,-236,3800,6954,2805,1745157110408503835
172001,0,-301,-227,3838,6814,2714,1745157110464977121
172193,-1,-301,-215,3821,6676,2605,1745157110464977121
172385,-2,-306,-203,3786,6567,2550,1745157110464977121
172577,-4,-302,-189,3682,6590,2504,1745157110464977121
172769,-18,-284,-169,3553,6683,2444,1745157110464977121
172961,-37,-261,-143,3469,6753,2377,1745157110464977121
173153,-52,-239,-118,3413,6809,2345,1745157110464977121
173345,-56,-214,-94,3422,6842,2303,1745157110464977121
173537,-50,-192,-70,3443,6830,2276,1745157110464977121
173729,-40,-178,-47,3496,6791,2213,1745157110464977121
173921,-28,-173,-25,3539,6750,2239,1745157110464977121
174113,-20,-166,-5,3515,6738,2226,1745157110464977121
174305,-16,-159,18,3427,6768,2226,1745157110522784509
174497,-10,-151,41,3337,6824,2314,1745157110522784509
174689,-2,-142,66,3250,6981,2356,1745157110522784509
174881,1,-125,93,3188,7142,2409,1745157110522784509
175073,6,-107,117,3158,7258,2436,1745157110522784509
175265,12,-86,138,3167,7356,2414,1745157110522784509
175457,20,-65,151,3186,7381,2432,1745157110522784509
175649,40,-50,160,3219,7371,2432,1745157110522784509
175841,66,-38,167,3228,7336,2447,1745157110522784509
176033,89,-30,168,3229,7263,2484,1745157110522784509
176225,107,-21,166,3172,7246,2497,1745157110522784509
176417,116,-12,160,3094,7183,2492,1745157110522784509
176609,118,-1,151,3023,7148,2465,1745157110585131700
176801,118,10,144,2982,7110,2434,1745157110585131700
176993,111,26,142,2946,7107,2397,1745157110585131700
177185,99,38,141,3004,7088,2394,1745157110585131700
177377,89,39,140,3073,7105,2462,1745157110585131700
177569,73,43,138,3064,7181,2460,1745157110585131700
177761,46,48,141,3010,7271,2443,1745157110585131700
177953,23,48,148,2939,7408,2473,1745157110585131700
178145,-1,55,154,2862,7568,2494,1745157110585131700
178337,-25,72,162,2784,7795,2515,1745157110585131700
178529,-44,93,173,2721,8017,2492,1745157110585131700
178721,-52,120,183,2719,8251,2475,1745157110585131700
178913,-44,144,183,2787,8390,2438,1745157110642403313
179105,-20,157,175,2915,8454,2455,1745157110642403313
179297,11,163,160,2980,8461,2421,1745157110642403313
179489,39,167,143,3018,8375,2360,1745157110642403313
179681,68,161,125,3034,8195,2341,1745157110642403313
179873,92,152,108,3018,8040,2377,1745157110642403313
180065,94,146,94,2943,7895,2408,1745157110642403313
180257,73,138,81,2900,7716,2426,1745157110642403313
180449,45,128,70,2871,7625,2476,1745157110642403313
180641,9,121,60,2826,7640,2564,1745157110642403313
180833,-34,120,50,2741,7783,2644,1745157110642403313
181025,-81,124,38,2707,7893,2613,1745157110642403313
181217,-122,128,22,2721,7937,2522,1745157110698009055
181409,-147,125,4,2834,7863,2403,1745157110698009055
181601,-158,118,-13,2914,7801,2254,1745157110698009055
181793,-164,113,-24,2974,7749,2078,1745157110698009055
181985,-167,107,-26,2934,7767,1928,1745157110698009055
182177,-166,103,-24,2864,7816,1788,1745157110698009055
182369,-159,99,-19,2826,7862,1699,1745157110698009055
182561,-144,95,-5,2812,7921,1674,1745157110698009055
182753,-127,90,19,2820,7977,1615,1745157110698009055
182945,-109,86,42,2818,7972,1572,1745157110698009055
183137,-82,80,59,2866,7898,1575,1745157110698009055
183329,-51,65,68,2931,7784,1715,1745157110698009055
183521,-21,44,72,2944,7727,1833,1745157110761841284
183713,-11,25,71,2886,7678,1955,1745157110761841284
183905,-15,10,66,2781,7699,2049,1745157110761841284
184097,-23,1,57,2675,7730,2064,1745157110761841284
184289,-26,-5,42,2639,7773,2023,1745157110761841284
184481,-22,-11,20,2676,7781,1910,1745157110761841284
184673,-18,-17,-5,2767,7769,1770,1745157110761841284
184865,-12,-25,-30,2856,7722,1641,1745157110761841284
185057,-5,-43,-55,2938,7626,1549,1745157110761841284
185249,-2,-64,-78,2963,7573,1474,1745157110761841284
185441,-10,-81,-92,2895,7518,1440,1745157110761841284
185633,-24,-95,-96,2816,7496,1538,1745157110761841284
185825,-39,-107,-92,2671,7560,1667,1745157110814958663
186017,-63,-107,-84,2534,7689,1733,1745157110814958663
186209,-91,-102,-76,2423,7812,1793,1745157110814958663
186401,-111,-94,-71,2383,7897,1829,1745157110814958663
186593,-116,-83,-72,2398,7929,1831,1745157110814958663
186785,-107,-73,-80,2474,7853,1780,1745157110814958663
186977,-81,-71,-91,2601,7685,1740,1745157110814958663
187169,-46,-78,-103,2685,7507,1753,1745157110814958663
187361,-12,-88,-110,2715,7380,1758,1745157110814958663
187553,15,-103,-111,2728,7261,1718,1745157110814958663
187745,34,-120,-111,2719,7131,1667,1745157110814958663
187937,44,-135,-103,2689,7069,1668,1745157110814958663
188129,45,-145,-84,2654,7054,1768,1745157110881240662
188321,34,-152,-60,2626,7121,1952,1745157110881240662
188513,13,-150,-39,2567,7250,2098,1745157110881240662
188705,-7,-142,-24,2551,7364,2195,1745157110881240662
188897,-12,-132,-19,2587,7418,2232,1745157110881240662
189089,-1,-124,-20,2670,7377,2226,1745157110881240662
189281,16,-121,-27,2781,7255,2153,1745157110881240662
189473,31,-123,-35,2910,7102,2090,1745157110881240662
189665,39,-126,-38,2956,7002,2060,1745157110881240662
189857,42,-123,-36,2939,6964,2043,1745157110881240662
190049,46,-120,-30,2920,7024,2100,1745157110881240662
190241,50,-115,-20,2932,7125,2179,1745157110881240662
190433,46,-110,-3,2973,7227,2303,1745157110932323060
190625,41,-107,15,3037,7281,2393,1745157110932323060
190817,38,-107,30,3091,7302,2479,1745157110932323060
191009,33,-106,39,3141,7274,2598,1745157110932323060
191201,28,-103,40,3142,7222,2643,1745157110932323060
191393,21,-98,41,3135,7182,2628,1745157110932323060
191585,18,-89,42,3163,7086,2616,1745157110932323060
191777,28,-80,42,3246,7028,2611,1745157110932323060
191969,40,-72,42,3359,6995,2550,1745157110932323060
192161,45,-59,46,3470,6981,2537,1745157110932323060
192353,48,-42,54,3546,7040,2542,1745157110932323060
192545,53,-22,65,3619,7078,2566,1745157110932323060
192737,66,0,81,3708,7132,2603,1745157110994632907
192929,84,24,103,3847,7175,2683,1745157110994632907
193121,104,49,131,4036,7113,2781,1745157110994632907
193313,130,71,160,4222,7029,2913,1745157110994632907
193505,152,87,191,4503,6851,3033,1745157110994632907
193697,162,101,225,4672,6683,3145,1745157110994632907
193889,165,110,258,4875,6485,3240,1745157110994632907
194081,170,114,294,4969,6278,3356,1745157110994632907
194273,168,116,332,5089,6115,3450,1745157110994632907
194465,155,124,373,5149,6018,3522,1745157110994632907
194657,136,135,420,5171,5963,3570,1745157110994632907
194849,120,152,467,5182,5934,3571,1745157110994632907
195041,110,169,513,5262,5890,3555,1745157111049400168
195233,105,182,553,5328,5789,3487,1745157111049400168
195425,102,196,589,5395,5566,3369,1745157111049400168
195617,94,215,630,5424,5343,3221,1745157111049400168
195809,84,225,679,5514,5154,3165,1745157111049400168
196001,76,247,727,5477,5059,3046,1745157111049400168
196193,64,272,777,5481,4933,2944,1745157111049400168
196385,57,290,834,5523,4833,2835,1745157111049400168
196577,51,314,895,5595,4736,2710,1745157111049400168
196769,40,340,959,5704,4563,2557,1745157111049400168
196961,35,363,1023,5804,4420,2405,1745157111049400168
197153,37,388,1090,5955,4268,2271,1745157111049400168
197345,49,418,1155,6066,4008,2145,1745157111107200265
197537,63,431,1221,6347,3990,2071,1745157111107200265
197729,79,418,1281,6551,3726,1871,1745157111107200265
197921,90,385,1377,6870,3267,1550,1745157111107200265
198113,113,343,1477,7077,3364,1714,1745157111107200265
198305,147,356,1508,7164,3483,1201,1745157111107200265
198497,150,310,1537,7219,3361,1083,1745157111107200265
198689,170,269,1631,7284,3193,880,1745157111107200265
198881,198,241,1773,7423,3160,720,1745157111107200265
199073,229,223,1866,7589,3136,559,1745157111107200265
199265,258,193,1925,7797,3017,341,1745157111107200265
199457,277,148,1986,8003,2890,207,1745157111107200265
199649,284,94,2081,8180,2857,143,1745157111173569085
199841,280,49,2190,8191,2980,79,1745157111173569085
200033,273,13,2306,7899,3525,9,1745157111173569085
200225,271,11,2406,8478,3175,-288,1745157111173569085
200417,261,-18,2408,8770,3199,-571,1745157111173569085
200609,279,-69,2474,8914,3483,-822,1745157111173569085
200801,312,-125,2575,9150,3670,-1145,1745157111173569085
200993,348,-180,2649,9473,3651,-1517,1745157111173569085
201185,389,-262,2713,9600,3578,-1936,1745157111173569085
201377,426,-345,2777,9765,3290,-2356,1745157111173569085
201569,444,-447,2838,9672,3236,-2550,1745157111173569085
201761,442,-532,2909,9435,3340,-2527,1745157111173569085
201953,406,-598,2984,9104,3711,-2429,1745157111224012375
202145,344,-633,3065,8856,4208,-2382,1745157111224012375
202337,280,-659,3142,8840,4719,-2300,1745157111224012375
202529,239,-691,3205,9001,5183,-2290,1745157111224012375
202721,227,-731,3255,9304,5560,-2301,1745157111224012375
202913,239,-777,3284,9632,6023,-2409,1745157111224012375
203105,278,-836,3289,9763,6376,-2575,1745157111224012375
203297,348,-903,3296,9745,6511,-2807,1745157111224012375
203489,427,-973,3295,9823,6640,-3129,1745157111224012375
203681,505,-1051,3267,9840,6507,-3485,1745157111224012375
203873,582,-1136,3235,9814,6203,-3886,1745157111224012375
204065,659,-1218,3207,9690,5956,-4311,1745157111224012375
204257,714,-1291,3190,9533,5722,-4743,1745157111284827340
204449,739,-1359,3192,9469,5586,-5072,1745157111284827340
204641,749,-1432,3193,9465,5439,-5283,1745157111284827340
204833,746,-1520,3189,9510,5379,-5465,1745157111284827340
205025,714,-1605,3196,9337,5468,-5350,1745157111284827340
205217,657,-1681,3222,9255,5616,-5147,1745157111284827340
205409,556,-1762,3264,9353,5752,-5058,1745157111284827340
205601,431,-1851,3316,9476,5879,-4812,1745157111284827340
205793,329,-1955,3359,9394,6185,-4304,1745157111284827340
205985,251,-2041,3394,9222,6850,-3883,1745157111284827340
206177,178,-2093,3431,8980,7645,-3629,1745157111284827340
206369,130,-2147,3472,8949,8394,-3607,1745157111284827340
206561,130,-2216,3477,9209,8915,-3724,1745157111341094013
206753,196,-2302,3415,9575,9150,-3932,1745157111341094013
206945,321,-2408,3300,9802,8944,-4298,1745157111341094013
207137,486,-2535,3180,9958,8471,-4711,1745157111341094013
207329,662,-2661,3066,9930,7621,-5125,1745157111341094013
207521,806,-2770,2938,9775,6824,-5478,1745157111341094013
207713,901,-2864,2817,9695,6138,-5831,1745157111341094013
207905,941,-2950,2699,9605,5341,-5978,1745157111341094013
208097,925,-3035,2564,9461,4757,-5948,1745157111341094013
208289,847,-3115,2436,9340,4522,-5623,1745157111341094013
208481,705,-3168,2324,9112,4859,-5234,1745157111341094013
208673,513,-3177,2243,8884,5641,-4708,1745157111341094013
208865,321,-3169,2194,8808,6723,-4063,1745157111407832049
209057,175,-3155,2164,9010,7998,-3476,1745157111407832049
209249,87,-3173,2133,9214,9236,-3197,1745157111407832049
209441,87,-3222,2070,9493,10150,-3136,1745157111407832049
209633,170,-3299,1958,9715,10546,-3300,1745157111407832049
209825,306,-3391,1816,9853,10411,-3677,1745157111407832049
210017,461,-3490,1663,9966,9854,-4226,1745157111407832049
210209,604,-3592,1506,10004,8993,-4771,1745157111407832049
210401,716,-3689,1353,9977,8099,-5228,1745157111407832049
210593,791,-3768,1201,9840,7267,-5499,1745157111407832049
210785,827,-3824,1056,9684,6676,-5642,1745157111407832049
210977,825,-3872,928,9590,6267,-5546,1745157111407832049
211169,797,-3918,818,9513,6130,-5242,1745157111460735733
211361,731,-3962,716,9529,6143,-4833,1745157111460735733
211553,630,-3999,620,9418,6210,-4312,1745157111460735733
211745,501,-4035,545,9323,6405,-3809,1745157111460735733
211937,361,-4030,474,9203,6654,-3276,1745157111460735733
212129,238,-4025,417,9161,6940,-3007,1745157111460735733
212321,154,-4009,364,9118,7221,-2728,1745157111460735733
212513,109,-3990,298,9129,7341,-2599,1745157111460735733
212705,98,-3996,213,9186,7265,-2614,1745157111460735733
212897,111,-4004,102,9280,7003,-2864,1745157111460735733
213089,144,-4021,-29,9218,6630,-3112,1745157111460735733
213281,188,-4026,-162,9133,6182,-3357,1745157111460735733
213473,238,-4028,-297,8865,5743,-3697,1745157111516354600
213665,285,-4011,-431,8483,5248,-4036,1745157111516354600
213857,316,-3988,-559,8168,4761,-4289,1745157111516354600
214049,329,-3972,-677,8001,4290,-4443,1745157111516354600
214241,331,-3976,-770,7735,3957,-4479,1745157111516354600
214433,317,-3958,-838,7441,3718,-4476,1745157111516354600
214625,280,-3925,-890,7137,3644,-4381,1745157111516354600
214817,232,-3894,-914,6867,3605,-4358,1745157111516354600
215009,182,-3850,-920,6600,3562,-4340,1745157111516354600
215201,126,-3800,-930,6430,3450,-4358,1745157111516354600
215393,64,-3746,-942,6230,3373,-4426,1745157111516354600
215585,6,-3678,-944,6106,3309,-4434,1745157111516354600
215777,-33,-3605,-951,5969,3278,-4440,1745157111583530444
215969,-49,-3531,-964,5866,3255,-4533,1745157111583530444
216161,-47,-3454,-995,5870,3199,-4616,1745157111583530444
216353,-38,-3397,-1049,6045,3029,-4786,1745157111583530444
216545,-25,-3371,-1122,6295,2720,-4839,1745157111583530444
216737,-5,-3350,-1209,6101,2464,-4872,1745157111583530444
216929,32,-3306,-1287,5700,2307,-5108,1745157111583530444
217121,62,-3264,-1357,5378,2198,-5249,1745157111583530444
217313,68,-3225,-1419,5154,2077,-5224,1745157111583530444
217505,55,-3170,-1475,4851,1970,-5182,1745157111583530444
217697,40,-3112,-1517,4628,1895,-5180,1745157111583530444
217889,23,-3063,-1544,4475,1816,-5063,1745157111583530444
218081,2,-3003,-1568,4205,1789,-4991,1745157111634993776
218273,-21,-2930,-1584,3886,1818,-5106,1745157111634993776
218465,-43,-2850,-1586,3660,1892,-5209,1745157111634993776
218657,-63,-2770,-1578,3421,1958,-5183,1745157111634993776
218849,-73,-2672,-1563,3264,1941,-5297,1745157111634993776
219041,-65,-2581,-1550,3145,1890,-5478,1745157111634993776
219233,-46,-2511,-1529,3155,1748,-5736,1745157111634993776
219425,-28,-2438,-1509,3045,1580,-5787,1745157111634993776
219617,2,-2351,-1491,2919,1424,-5876,1745157111634993776
219809,36,-2256,-1483,2817,1330,-5885,1745157111634993776
220001,68,-2159,-1484,2749,1210,-5776,1745157111634993776
220193,105,-2069,-1490,2598,1193,-5711,1745157111634993776
220385,138,-1963,-1495,2391,1223,-5779,1745157111700262451
220577,163,-1862,-1498,2275,1151,-5869,1745157111700262451
220769,178,-1782,-1491,2256,966,-5884,1745157111700262451
220961,176,-1710,-1477,2208,719,-5828,1745157111700262451
221153,162,-1644,-1458,2043,489,-5668,1745157111700262451
221345,149,-1577,-1436,1861,334,-5797,1745157111700262451
221537,114,-1488,-1417,1727,206,-5801,1745157111700262451
221729,69,-1401,-1407,1562,89,-5766,1745157111700262451
221921,26,-1323,-1383,1385,-35,-5836,1745157111700262451
222113,-11,-1243,-1353,1189,-63,-5842,1745157111700262451
222305,-26,-1162,-1322,1013,20,-5893,1745157111700262451
222497,-32,-1077,-1293,902,148,-5941,1745157111700262451
222689,-34,-986,-1261,836,273,-5816,1745157111749947310
222881,-18,-920,-1224,833,401,-5841,1745157111749947310
223073,8,-859,-1181,824,542,-5858,1745157111749947310
223265,51,-796,-1139,780,678,-5840,1745157111749947310
223457,106,-733,-1105,682,795,-5863,1745157111749947310
223649,177,-670,-1075,552,979,-6053,1745157111749947310
223841,244,-595,-1040,500,1171,-6297,1745157111749947310
224033,308,-506,-994,530,1401,-6460,1745157111749947310
224225,375,-417,-940,615,1630,-6603,1745157111749947310
224417,442,-337,-890,784,1731,-6804,1745157111749947310
224609,507,-268,-853,966,1632,-6921,1745157111749947310
224801,574,-216,-826,1030,1356,-7074,1745157111749947310
224993,632,-174,-804,1061,983,-7242,1745157111823616428
225185,668,-129,-786,1022,590,-7406,1745157111823616428
225377,674,-76,-768,881,247,-7396,1745157111823616428
225569,648,-24,-748,710,4,-7548,1745157111823616428
225761,594,39,-725,542,-217,-7519,1745157111823616428
225953,537,92,-699,440,-364,-7456,1745157111823616428
226145,473,151,-675,404,-513,-7326,1745157111823616428
226337,412,204,-645,394,-636,-7113,1745157111823616428
226529,356,241,-610,426,-723,-6994,1745157111823616428
226721,308,269,-574,460,-746,-6888,1745157111823616428
226913,264,293,-536,443,-678,-6826,1745157111823616428
227105,222,325,-499,399,-586,-6814,1745157111823616428
227297,183,363,-468,323,-550,-6878,1745157111866866294
227489,164,397,-435,292,-527,-6818,1745157111866866294
227681,169,436,-392,262,-419,-6831,1745157111866866294
227873,190,479,-345,230,-292,-6835,1745157111866866294
228065,230,516,-296,290,-153,-7038,1745157111866866294
228257,270,543,-248,512,-177,-7107,1745157111866866294
228449,303,546,-204,735,-275,-7176,1745157111866866294
228641,317,568,-162,877,-425,-7146,1745157111866866294
228833,327,599,-123,864,-526,-7189,1745157111866866294
229025,341,626,-88,916,-652,-7239,1745157111866866294
229217,340,664,-71,945,-798,-7253,1745157111866866294
229409,325,703,-62,944,-929,-7306,1745157111866866294
229601,297,729,-50,966,-1093,-7326,1745157111927424074
229793,258,738,-35,1093,-1258,-7509,1745157111927424074
229985,199,735,-20,1302,-1428,-7513,1745157111927424074
230177,122,715,-11,1506,-1544,-7466,1745157111927424074
230369,38,687,-15,1668,-1442,-7485,1745157111927424074
230561,-43,662,-30,1741,-1142,-7617,1745157111927424074
230753,-117,644,-51,1795,-736,-7668,1745157111927424074
230945,-173,621,-64,1856,-348,-7555,1745157111927424074
231137,-195,577,-60,1909,-18,-7465,1745157111927424074
231329,-181,526,-37,1980,255,-7496,1745157111927424074
231521,-140,494,-8,1934,471,-7576,1745157111927424074
231713,-71,479,26,1856,566,-7756,1745157111927424074
231905,10,479,57,1817,584,-8084,1745157111997111719
232097,87,497,85,1803,538,-8382,1745157111997111719
232289,151,527,113,1841,473,-8625,1745157111997111719
232481,200,563,144,1944,385,-8763,1745157111997111719
232673,229,599,177,2034,296,-8709,1745157111997111719
232865,243,630,211,2129,198,-8529,1745157111997111719
233057,246,658,244,2170,83,-8326,1745157111997111719
233249,232,680,272,2217,-69,-8064,1745157111997111719
233441,201,683,297,2306,-328,-7871,1745157111997111719
233633,156,674,316,2358,-638,-7744,1745157111997111719
233825,97,645,330,2406,-998,-7564,1745157111997111719
234017,34,601,336,2396,-1290,-7423,1745157111997111719
234209,-38,562,330,2442,-1461,-7323,1745157112042788228
234401,-110,535,301,2371,-1498,-7268,1745157112042788228
234593,-192,514,262,2276,-1435,-7183,1745157112042788228
234785,-272,495,229,2201,-1207,-7150,1745157112042788228
234977,-350,492,206,2132,-899,-7219,1745157112042788228
235169,-422,496,198,2154,-536,-7216,1745157112042788228
235361,-481,481,213,2383,-158,-7471,1745157112042788228
235553,-498,418,237,2724,267,-8148,1745157112042788228
235745,-435,279,234,3304,741,-8920,1745157112042788228
235937,-301,84,181,4083,1278,-9556,1745157112042788228
236129,-141,-132,88,4854,1664,-9838,1745157112042788228
236321,4,-350,6,5315,1513,-9957,1745157112042788228
236513,116,-555,-20,5239,886,-9987,1745157112110852867
236705,174,-713,-5,4656,294,-9869,1745157112110852867
236897,178,-824,13,3658,-9,-9580,1745157112110852867
237089,148,-870,34,2498,-88,-9390,1745157112110852867
237281,85,-824,72,1465,-131,-9208,1745157112110852867
237473,-10,-710,117,618,-276,-8893,1745157112110852867
237665,-113,-593,168,131,-477,-8731,1745157112110852867
237857,-218,-478,220,-20,-659,-8646,1745157112110852867
238049,-319,-371,267,140,-715,-8513,1745157112110852867
238241,-405,-277,291,530,-540,-8489,1745157112110852867
238433,-497,-194,290,967,-240,-8211,1745157112110852867
238625,-558,-148,269,1292,246,-7870,1745157112110852867
238817,-577,-130,234,1551,810,-7695,1745157112159073104
239009,-550,-134,183,1671,1400,-7528,1745157112159073104
239201,-481,-162,125,1639,1819,-7279,1745157112159073104
239393,-368,-213,58,1516,2113,-7378,1745157112159073104
239585,-245,-248,-6,1314,2180,-7319,1745157112159073104
239777,-114,-279,-46,1076,2006,-7321,1745157112159073104
239969,5,-299,-60,829,1662,-7421,1745157112159073104
240161,103,-307,-53,618,1191,-7555,1745157112159073104
240353,178,-312,-32,439,706,-7704,1745157112159073104
240545,223,-303,-6,310,301,-7858,1745157112159073104
240737,239,-282,14,196,-18,-8017,1745157112159073104
240929,232,-255,21,117,-225,-8298,1745157112159073104
241121,209,-225,16,114,-268,-8515,1745157112227205085
241313,172,-194,7,172,-195,-8710,1745157112227205085
241505,126,-177,-1,295,-49,-8888,1745157112227205085
241697,80,-174,-5,441,102,-9021,1745157112227205085
241889,41,-179,0,510,273,-9095,1745157112227205085
242081,14,-183,9,497,478,-9158,1745157112227205085
242273,-6,-176,21,425,682,-9190,1745157112227205085
242465,-20,-159,29,375,854,-9206,1745157112227205085
242657,-28,-138,34,324,985,-9166,1745157112227205085
242849,-32,-115,36,298,1057,-9061,1745157112227205085
243041,-38,-92,40,323,1041,-8930,1745157112227205085
243233,-45,-67,50,364,976,-8771,1745157112227205085
243425,-53,-44,62,407,915,-8630,1745157112276144742
243617,-64,-24,71,462,803,-8468,1745157112276144742
243809,-71,-12,77,536,693,-8327,1745157112276144742
244001,-71,-6,79,590,559,-8188,1745157112276144742
244193,-66,-1,78,636,428,-8071,1745157112276144742
244385,-58,5,78,683,288,-7974,1745157112276144742
244577,-50,6,76,733,177,-7970,1745157112276144742
244769,-40,6,74,783,81,-7949,1745157112276144742
244961,-28,1,67,807,-10,-7907,1745157112276144742
245153,-13,-7,54,828,-58,-7895,1745157112276144742
245345,2,-14,37,835,-62,-7898,1745157112276144742
245537,13,-21,18,829,-35,-7927,1745157112276144742
245729,18,-26,2,821,16,-7948,1745157112351539939
245921,21,-33,-8,804,76,-7954,1745157112351539939
246113,27,-38,-15,796,167,-7992,1745157112351539939
246305,27,-42,-19,759,235,-8062,1745157112351539939
246497,21,-39,-21,712,352,-8115,1745157112351539939
246689,14,-33,-22,646,387,-8165,1745157112351539939
246881,6,-24,-12,610,461,-8229,1745157112351539939
247073,-2,-14,-10,619,573,-8263,1745157112351539939
247265,-8,-11,-18,638,674,-8252,1745157112351539939
247457,-9,-13,-26,678,763,-8260,1745157112351539939
247649,-12,-15,-33,671,803,-8223,1745157112351539939
247841,-14,-21,-34,567,808,-8171,1745157112351539939
248033,-10,-30,-24,408,769,-8167,1745157112406185690
248225,-4,-32,-11,240,697,-8222,1745157112406185690
248417,4,-31,-4,17,613,-8363,1745157112406185690
248609,3,-17,-8,-148,555,-8304,1745157112406185690
248801,-15,8,-15,-128,492,-8081,1745157112406185690
248993,-25,8,-12,79,423,-8126,1745157112406185690
249185,-20,0,-7,246,387,-8105,1745157112406185690
249377,-10,-4,8,358,367,-8028,1745157112406185690
249569,-4,-12,17,384,273,-8042,1745157112406185690
249761,-3,-20,23,288,130,-8075,1745157112406185690
249953,-5,-20,28,193,60,-8101,1745157112406185690
250145,-12,-16,28,152,121,-8064,1745157112406185690
250337,-19,-6,19,192,277,-7983,1745157112453632861
250529,-22,1,8,322,480,-7897,1745157112453632861
250721,-19,5,0,492,636,-7829,1745157112453632861
250913,-5,4,-5,591,697,-7863,1745157112453632861
251105,10,-3,-8,599,639,-7940,1745157112453632861
251297,20,-13,-9,527,541,-7997,1745157112453632861
251489,29,-22,-3,444,456,-8049,1745157112453632861
251681,33,-25,9,388,421,-8108,1745157112453632861
251873,33,-25,20,388,409,-8191,1745157112453632861
252065,28,-24,25,423,408,-8233,1745157112453632861
252257,22,-20,24,450,395,-8230,1745157112453632861
252449,21,-17,19,491,353,-8199,1745157112453632861
252641,21,-14,16,523,353,-8194,1745157112520531781
252833,12,-7,15,512,362,-8212,1745157112520531781
253025,-5,-3,16,483,365,-8227,1745157112520531781
253217,-23,-3,16,434,411,-8271,1745157112520531781
253409,-34,0,20,403,429,-8259,1745157112520531781
253601,-39,4,24,422,469,-8271,1745157112520531781
253793,-36,8,27,404,483,-8289,1745157112520531781
253985,-27,14,26,411,460,-8227,1745157112520531781
254177,-13,19,23,430,427,-8234,1745157112520531781
254369,-1,20,19,399,386,-8199,1745157112520531781
254561,5,22,17,395,342,-8147,1745157112520531781
254753,4,24,19,363,297,-8111,1745157112520531781
254945,1,27,22,373,279,-8051,1745157112569736279
255137,0,30,22,386,303,-8014,1745157112569736279
255329,2,32,20,414,338,-7983,1745157112569736279
255521,6,31,15,437,372,-7978,1745157112569736279
255713,11,28,9,440,394,-7976,1745157112569736279
255905,18,26,6,426,419,-8021,1745157112569736279
256097,22,29,4,384,441,-8060,1745157112569736279
256289,29,33,4,367,483,-8087,1745157112569736279
256481,37,37,6,364,516,-8122,1745157112569736279
256673,42,40,9,392,544,-8150,1745157112569736279
256865,44,43,9,397,524,-8179,1745157112569736279
257057,43,44,10,408,504,-8248,1745157112569736279
257249,39,46,12,393,466,-8300,1745157112637610190
257441,31,51,16,376,431,-8310,1745157112637610190
257633,23,60,23,363,404,-8302,1745157112637610190
257825,15,69,33,341,418,-8342,1745157112637610190
258017,7,81,43,325,449,-8388,1745157112637610190
258209,-6,96,51,313,479,-8408,1745157112637610190
258401,-10,107,57,315,516,-8389,1745157112637610190
258593,-12,115,61,367,519,-8343,1745157112637610190
258785,-14,120,62,438,511,-8283,1745157112637610190
258977,-19,121,60,488,502,-8206,1745157112637610190
259169,-20,118,60,522,443,-8129,1745157112637610190
259361,-19,112,59,523,420,-8082,1745157112637610190
259553,-16,108,57,496,397,-8025,1745157112690450906
259745,-10,108,54,491,389,-7982,1745157112690450906
259937,-3,107,52,475,377,-7936,1745157112690450906
260129,8,105,46,523,355,-7863,1745157112690450906
260321,18,101,39,547,344,-7855,1745157112690450906
260513,28,96,31,596,302,-7847,1745157112690450906
260705,37,88,26,614,244,-7852,1745157112690450906
260897,46,79,22,629,216,-7889,1745157112690450906
261089,49,69,18,632,185,-7897,1745157112690450906
261281,48,60,15,629,197,-7889,1745157112690450906
261473,43,52,12,624,218,-7921,1745157112690450906
261665,38,45,9,594,264,-7955,1745157112690450906
261857,35,38,7,606,327,-7984,1745157112760396048
262049,31,33,2,566,387,-8019,1745157112760396048
262241,28,31,0,561,436,-8029,1745157112760396048
262433,25,31,-1,569,482,-8014,1745157112760396048
262625,22,31,1,569,547,-7995,1745157112760396048
262817,15,33,3,607,571,-7990,1745157112760396048
263009,9,32,9,634,555,-7997,1745157112760396048
263201,5,27,15,668,514,-8019,1745157112760396048
263393,2,19,16,659,473,-8077,1745157112760396048
263585,1,13,13,637,428,-8105,1745157112760396048
263777,-1,8,10,589,380,-8133,1745157112760396048
263969,-4,6,9,557,343,-8141,1745157112760396048
264161,-6,7,8,538,306,-8145,1745157112814086391
264353,-7,9,7,517,279,-8102,1745157112814086391
264545,-5,9,5,513,252,-8107,1745157112814086391
264737,-5,9,2,531,258,-8094,1745157112814086391
264929,-7,8,1,515,254,-8056,1745157112814086391
265121,-9,6,-1,503,247,-8019,1745157112814086391
265313,-8,1,-1,506,254,-7989,1745157112814086391
265505,-6,-4,-3,493,282,-7988,1745157112814086391
265697,-6,-7,-5,470,311,-8000,1745157112814086391
265889,-6,-7,-8,480,323,-7976,1745157112814086391
266081,-5,-8,-10,479,350,-7963,1745157112814086391
266273,-5,-8,-11,498,366,-7974,1745157112814086391
266465,-5,-9,-10,480,384,-8036,1745157112929331171
266657,-6,-9,-12,471,374,-8079,1745157112929331171
266849,-8,-12,-14,439,376,-8108,1745157112929331171
267041,-5,-16,-14,416,384,-8130,1745157112929331171
267233,-3,-16,-13,418,402,-8144,1745157112929331171
267425,-3,-13,-10,427,422,-8167,1745157112929331171
267617,-5,-9,-8,431,429,-8164,1745157112929331171
267809,-5,-6,-6,463,424,-8163,1745157112929331171
268001,0,-5,-6,468,391,-8194,1745157112929331171
268193,3,-6,-9,455,374,-8238,1745157112929331171
268385,-1,-9,-13,430,326,-8237,1745157112929331171
268577,-5,-11,-13,380,276,-8241,1745157112929331171
268769,-9,-11,-10,371,280,-8212,1745157112940076959
268961,-13,-6,-8,357,292,-8163,1745157112940076959
269153,-15,1,-8,390,304,-8106,1745157112940076959
269345,-15,4,-9,439,314,-8080,1745157112940076959
269537,-14,6,-11,493,323,-8067,1745157112940076959
269729,-16,5,-14,515,347,-8097,1745157112940076959
269921,-19,5,-15,502,342,-8113,1745157112940076959
270113,-21,5,-15,413,329,-7624,1745157112940076959
270305,165,-170,37,854,298,-4625,1745157112940076959
270497,380,-269,8,1414,-2307,-10723,1745157112940076959
270689,-425,-60,-105,1168,-2585,-7775,1745157112940076959
270881,-399,-185,-88,393,-495,-7041,1745157112940076959
272993,100,-33,-31,583,663,-8315,1745157113939360643
308513,-14,11,15,352,454,-7939,1745157113939360643
308705,-31,17,-4,328,98,-8357,1745157113939360643
308897,-7,1,2,245,532,-7884,1745157113939360643
309089,12,-2,21,333,506,-8086,1745157113939360643
309281,4,-9,17,415,495,-8013,1745157113939360643
309473,10,-7,12,430,474,-8040,1745157113939360643
309665,19,-23,9,395,372,-8028,1745157113939360643
309857,18,-18,3,358,329,-8042,1745157113939360643
310049,18,-22,-1,354,288,-8040,1745157113939360643
310241,13,-32,1,395,321,-7996,1745157113939360643
310433,12,-37,4,456,361,-7981,1745157113939360643
310625,13,-49,1,481,331,-7954,1745157113981336249
310625,13,-49,1,481,331,-7954,1745157113981336249
310817,8,-61,-5,446,323,-7967,1745157113981336249
311009,8,-65,-13,373,352,-8000,1745157113981336249
311201,8,-68,-16,285,332,-8040,1745157113981336249
311393,4,-66,-16,228,299,-8119,1745157113981336249
311585,-2,-58,-14,205,238,-8208,1745157113981336249
311777,-12,-53,-13,205,215,-8274,1745157113981336249
311969,-20,-44,-13,231,251,-8337,1745157113981336249
312161,-26,-36,-12,217,293,-8410,1745157113981336249
312353,-35,-26,-12,195,315,-8476,1745157113981336249
312545,-40,-14,-11,178,351,-8500,1745157113981336249
312737,-40,-3,-7,172,411,-8560,1745157114041898508
312929,-40,11,-3,182,448,-8564,1745157114041898508
313121,-37,23,-1,212,468,-8501,1745157114041898508
313313,-33,34,2,234,467,-8458,1745157114041898508
313505,-33,48,3,216,471,-8422,1745157114041898508
313697,-30,62,6,207,514,-8385,1745157114041898508
313889,-26,73,12,278,556,-8355,1745157114041898508
314081,-18,77,17,369,549,-8357,1745157114041898508
314273,-4,75,22,449,574,-8365,1745157114041898508
314465,17,63,25,546,627,-8333,1745157114041898508
314657,40,45,28,610,659,-8296,1745157114041898508
314849,58,32,30,638,569,-8341,1745157114041898508
315041,68,17,30,613,449,-7923,1745157114110324446
315233,-65,40,3,314,-1126,-9365,1745157114110324446
315425,40,30,17,733,1634,-8004,1745157114110324446
315617,139,11,68,461,1279,-8313,1745157114110324446
315809,155,55,8,659,606,-8759,1745157114110324446
316001,166,20,-58,947,393,-8670,1745157114110324446
316193,180,18,-63,1046,275,-8683,1745157114110324446
316385,185,23,-60,997,127,-8718,1745157114110324446
316577,168,29,-84,923,-191,-8656,1745157114110324446
316769,164,45,-116,854,249,-8581,1745157114110324446
316961,-170,120,-74,922,-1716,-10301,1745157114110324446
317153,-412,160,-120,1134,-2660,-8249,1745157114110324446
317345,-238,47,-153,1139,-1578,-8928,1745157114157268965
317537,-282,43,-108,1204,-240,-8369,1745157114157268965
317729,-310,48,-91,1120,821,-8323,1745157114157268965
317921,-297,65,-92,1274,1388,-8401,1745157114157268965
318113,-246,58,-100,1435,1682,-7947,1745157114157268965
318305,-165,36,-85,1547,1623,-7864,1745157114157268965
318497,-81,-8,-67,1581,1326,-8026,1745157114157268965
318689,2,-40,-59,1569,998,-8295,1745157114157268965
318881,79,-53,-60,1589,722,-8339,1745157114157268965
319073,112,-44,-70,1493,488,-8316,1745157114157268965
319265,99,-14,-95,1315,279,-8445,1745157114157268965
319457,69,17,-115,1041,117,-8558,1745157114157268965
319649,50,65,-117,741,76,-8656,1745157114215824107
319841,34,134,-107,563,152,-8557,1745157114215824107
320033,29,211,-98,568,198,-8555,1745157114215824107
320225,15,292,-82,783,91,-8543,1745157114215824107
320417,-67,398,-41,1106,-42,-8453,1745157114215824107
320609,-100,426,-20,1442,28,-8646,1745157114215824107
320801,-49,335,-43,1730,311,-8909,1745157114215824107
320993,-5,278,-91,2105,552,-9201,1745157114215824107
321185,13,244,-144,2430,609,-9342,1745157114215824107
321377,63,177,-190,2671,522,-9328,1745157114215824107
321569,152,61,-229,2774,296,-9099,1745157114215824107
321761,252,-63,-271,2649,43,-8912,1745157114215824107
321953,303,-146,-311,2390,-138,-8920,1745157114273924826
322145,282,-194,-344,2136,-351,-8799,1745157114273924826
322337,223,-223,-355,2008,-523,-8800,1745157114273924826
322529,130,-241,-339,2110,-602,-8915,1745157114273924826
322721,16,-279,-299,2341,-610,-8882,1745157114273924826
322913,-96,-345,-249,2589,-517,-8941,1745157114273924826
323105,-191,-423,-215,2781,-366,-8784,1745157114273924826
323297,-253,-474,-159,2993,-316,-8658,1745157114273924826
323489,-321,-505,-83,3178,-7,-8722,1745157114273924826
323681,-286,-582,-71,3171,280,-8524,1745157114273924826
323873,-147,-691,-72,2924,421,-8873,1745157114273924826
324065,-63,-796,-47,2835,218,-8583,1745157114273924826
324257,9,-883,-12,2701,-154,-8722,1745157114345776149
324449,33,-940,19,2467,-646,-8449,1745157114345776149
324641,60,-970,53,2173,-998,-8456,1745157114345776149
324833,43,-992,84,1902,-1294,-8510,1745157114345776149
325025,-24,-1002,106,1690,-1583,-8446,1745157114345776149
325217,-115,-1002,139,1554,-1810,-8239,1745157114345776149
325409,-203,-984,181,1413,-1895,-8025,1745157114345776149
325601,-283,-941,225,1238,-1757,-7799,1745157114345776149
325793,-344,-878,264,1075,-1473,-7606,1745157114345776149
325985,-379,-814,298,996,-1165,-7464,1745157114345776149
326177,-395,-755,332,1062,-909,-7317,1745157114345776149
326369,-398,-704,371,1162,-762,-7135,1745157114345776149
326561,-391,-661,412,1290,-723,-6975,1745157114389434969
326753,-388,-627,449,1406,-784,-6798,1745157114389434969
326945,-397,-593,477,1453,-946,-6573,1745157114389434969
327137,-409,-556,496,1427,-1114,-6429,1745157114389434969
327329,-427,-508,511,1304,-1240,-6232,1745157114389434969
327521,-446,-468,520,1168,-1309,-6132,1745157114389434969
327713,-467,-428,531,1066,-1338,-6186,1745157114389434969
327905,-500,-380,551,1009,-1341,-6169,1745157114389434969
328097,-541,-328,583,988,-1349,-6017,1745157114389434969
328289,-578,-286,617,993,-1368,-5895,1745157114389434969
328481,-600,-245,652,962,-1237,-6041,1745157114389434969
328673,-622,-175,684,874,-985,-6089,1745157114389434969
328865,-626,-104,710,804,-705,-6145,1745157114448989998
329057,-615,-24,743,774,-311,-6276,1745157114448989998
329249,-595,59,809,768,-77,-6234,1745157114448989998
329441,-543,138,879,786,181,-6308,1745157114448989998
329633,-476,217,948,772,367,-6390,1745157114448989998
329825,-396,301,1016,734,498,-6411,1745157114448989998
330017,-310,395,1081,697,564,-6412,1745157114448989998
330209,-221,498,1142,666,554,-6423,1745157114448989998
330401,-133,601,1199,658,416,-6425,1745157114448989998
330593,-56,704,1253,609,252,-6358,1745157114448989998
330785,1,810,1304,562,10,-6296,1745157114448989998
330977,36,907,1352,603,-267,-6224,1745157114448989998
331169,52,991,1401,741,-577,-6128,1745157114508173728
331361,44,1068,1454,845,-857,-5977,1745157114508173728
331553,27,1137,1502,892,-1019,-5846,1745157114508173728
331745,1,1206,1540,926,-1077,-5763,1745157114508173728
331937,-33,1276,1572,942,-1044,-5627,1745157114508173728
332129,-71,1351,1604,929,-924,-5426,1745157114508173728
332321,-100,1436,1638,893,-681,-5352,1745157114508173728
332513,-122,1535,1678,875,-341,-5323,1745157114508173728
332705,-137,1647,1718,946,7,-5321,1745157114508173728
332897,-135,1766,1752,1057,369,-5348,1745157114508173728
333089,-125,1885,1790,1161,827,-5414,1745157114508173728
333281,-122,2005,1850,1345,1106,-5392,1745157114508173728
333473,-115,2121,1907,1507,1468,-5402,1745157114568020577
333665,-110,2231,1959,1673,1749,-5364,1745157114568020577
333857,-114,2337,2009,1749,1975,-5198,1745157114568020577
334049,-120,2432,2058,1838,2054,-5164,1745157114568020577
334241,-132,2540,2100,1890,2114,-5098,1745157114568020577
334433,-148,2647,2135,1960,2098,-5123,1745157114568020577
334625,-174,2752,2165,2094,2096,-5116,1745157114568020577
334817,-208,2852,2181,2253,2058,-5126,1745157114568020577
335009,-257,2949,2184,2455,2008,-5155,1745157114568020577
335201,-314,3027,2184,2687,1966,-5132,1745157114568020577
335393,-370,3099,2183,2874,1964,-5003,1745157114568020577
335585,-423,3177,2182,3027,2063,-4851,1745157114568020577
335777,-480,3259,2173,3250,2237,-4754,1745157114684047694
335969,-546,3343,2147,3524,2405,-4557,1745157114684047694
336161,-626,3417,2112,3793,2540,-4239,1745157114684047694
336353,-703,3459,2069,4062,2601,-3774,1745157114684047694
336545,-722,3470,2017,4330,2771,-3813,1745157114684047694
336737,-729,3502,1965,4498,3026,-3750,1745157114684047694
336929,-724,3540,1913,4639,3416,-3633,1745157114684047694
337121,-711,3585,1857,4791,3876,-3651,1745157114684047694
337313,-691,3637,1806,5005,4430,-3725,1745157114684047694
337505,-665,3680,1758,5297,4959,-3742,1745157114684047694
337697,-633,3718,1713,5649,5363,-3772,1745157114684047694
337889,-593,3748,1662,6016,5698,-3791,1745157114684047694
338081,-542,3763,1605,6282,5842,-3818,1745157114691337940
338273,-478,3775,1553,6395,5930,-3875,1745157114691337940
338465,-410,3791,1507,6428,5911,-3920,1745157114691337940
338657,-351,3801,1462,6523,5780,-3866,1745157114691337940
338849,-314,3799,1404,6666,5543,-3687,1745157114691337940
339041,-300,3793,1330,6807,5332,-3457,1745157114691337940
339233,-300,3798,1237,6945,5110,-3311,1745157114691337940
339425,-306,3821,1125,6948,5075,-3334,1745157114691337940
339617,-313,3873,1035,6975,5295,-3341,1745157114691337940
339809,-330,3920,967,7111,5576,-3271,1745157114691337940
340001,-367,3969,894,7435,6026,-3026,1745157114691337940
340193,-414,4015,799,7816,6442,-2750,1745157114691337940
340385,-459,4053,700,8193,6688,-2453,1745157114751347809
340577,-486,4070,613,8572,6882,-2221,1745157114751347809
340769,-485,4078,536,8889,7056,-2128,1745157114751347809
340961,-465,4088,459,9163,7287,-2071,1745157114751347809
341153,-440,4110,371,9444,7515,-2143,1745157114751347809
341345,-417,4143,270,9646,7669,-2322,1745157114751347809
341537,-390,4185,169,9800,7716,-2552,1745157114751347809
341729,-341,4226,86,9977,7590,-2761,1745157114751347809
341921,-269,4265,11,10246,7444,-2959,1745157114751347809
342113,-178,4296,-80,10471,7182,-3095,1745157114751347809
342305,-80,4311,-185,10641,6898,-3120,1745157114751347809
342497,19,4320,-308,11024,6755,-3114,1745157114751347809
342689,122,4314,-478,11119,6496,-2937,1745157114800711264
342881,213,4294,-640,11078,6162,-2695,1745157114800711264
343073,290,4265,-777,10999,5793,-2576,1745157114800711264
343265,350,4237,-900,10922,5427,-2456,1745157114800711264
343457,394,4200,-1013,10841,5096,-2405,1745157114800711264
343649,420,4155,-1118,10773,4823,-2405,1745157114800711264
343841,429,4104,-1220,10746,4576,-2350,1745157114800711264
344033,425,4051,-1316,10746,4371,-2314,1745157114800711264
344225,412,3992,-1409,10761,4197,-2275,1745157114800711264
344417,391,3928,-1495,10784,4111,-2328,1745157114800711264
344609,364,3858,-1569,10794,4019,-2332,1745157114800711264
344801,334,3771,-1629,10853,3925,-2285,1745157114800711264
344993,304,3672,-1689,10956,3821,-2193,1745157114862387836
345185,269,3571,-1756,10997,3731,-2213,1745157114862387836
345377,224,3467,-1815,10992,3679,-2399,1745157114862387836
345569,166,3363,-1859,10955,3613,-2598,1745157114862387836
345761,104,3256,-1896,10891,3525,-2741,1745157114862387836
345953,42,3163,-1936,10764,3438,-2862,1745157114862387836
346145,-11,3087,-1981,10648,3348,-2788,1745157114862387836
346337,-51,3017,-2024,10546,3267,-2548,1745157114862387836
346529,-77,2950,-2052,10458,3243,-2375,1745157114862387836
346721,-90,2889,-2070,10406,3269,-2377,1745157114862387836
346913,-91,2821,-2084,10394,3320,-2355,1745157114862387836
347105,-81,2750,-2099,10354,3389,-2315,1745157114862387836
347297,-55,2676,-2104,10278,3404,-2216,1745157114913986115
347489,-17,2596,-2097,10269,3471,-2060,1745157114913986115
347681,21,2508,-2084,10269,3480,-1889,1745157114913986115
347873,59,2416,-2068,10255,3551,-1717,1745157114913986115
348065,98,2319,-2045,10232,3648,-1512,1745157114913986115
348257,138,2211,-2020,10213,3692,-1349,1745157114913986115
348449,178,2103,-1998,10214,3714,-1239,1745157114913986115
348641,215,1987,-1978,10208,3721,-1180,1745157114913986115
348833,247,1870,-1959,10228,3702,-1233,1745157114913986115
349025,265,1741,-1937,10324,3576,-1265,1745157114913986115
349217,264,1600,-1914,10409,3418,-1180,1745157114913986115
349409,247,1464,-1891,10413,3301,-1084,1745157114913986115
349601,215,1338,-1865,10355,3201,-1083,1745157114977034601
349793,167,1225,-1840,10255,3122,-1098,1745157114977034601
349985,112,1119,-1817,10184,3040,-1057,1745157114977034601
350177,65,1014,-1789,10028,2990,-1096,1745157114977034601
350369,32,918,-1757,9849,3013,-1095,1745157114977034601
350561,9,826,-1720,9646,3102,-1028,1745157114977034601
350753,-5,746,-1682,9442,3260,-966,1745157114977034601
350945,-3,680,-1641,9201,3445,-854,1745157114977034601
351137,19,623,-1597,8996,3661,-694,1745157114977034601
351329,61,571,-1552,8880,3784,-550,1745157114977034601
351521,113,518,-1508,8814,3862,-414,1745157114977034601
351713,162,467,-1475,8778,3859,-417,1745157114977034601
351905,195,419,-1455,8789,3783,-480,1745157115031755195
352097,207,373,-1443,8801,3685,-468,1745157115031755195
352289,198,324,-1437,8817,3551,-331,1745157115031755195
352481,174,277,-1436,8751,3443,-221,1745157115031755195
352673,143,235,-1438,8639,3347,-90,1745157115031755195
352865,108,189,-1444,8455,3289,25,1745157115031755195
353057,71,143,-1450,8254,3219,131,1745157115031755195
353249,37,101,-1452,8053,3164,213,1745157115031755195
353441,-1,68,-1447,7884,3134,245,1745157115031755195
353633,-53,46,-1437,7729,3126,299,1745157115031755195
353825,-120,33,-1429,7628,3154,367,1745157115031755195
354017,-196,26,-1420,7499,3253,389,1745157115031755195
354209,-267,27,-1408,7384,3423,432,1745157115088712956
354401,-326,21,-1393,7311,3581,576,1745157115088712956
354593,-368,9,-1381,7225,3763,779,1745157115088712956
354785,-391,2,-1368,7120,4012,931,1745157115088712956
354977,-403,8,-1353,6967,4307,994,1745157115088712956
355169,-413,26,-1330,6867,4601,985,1745157115088712956
355361,-415,45,-1297,6771,4865,1032,1745157115088712956
355553,-391,59,-1261,6771,5050,1155,1745157115088712956
355745,-334,59,-1228,6787,5181,1377,1745157115088712956
355937,-248,55,-1202,6810,5331,1519,1745157115088712956
356129,-159,56,-1183,6824,5458,1445,1745157115088712956
356321,-85,55,-1166,6838,5535,1481,1745157115088712956
356513,-27,52,-1148,6968,5473,1519,1745157115171349805
356705,23,41,-1147,7053,5381,1520,1745157115171349805
356897,75,22,-1160,7100,5242,1529,1745157115171349805
357089,130,-1,-1187,7097,5133,1463,1745157115171349805
357281,173,-15,-1223,7028,5012,1296,1745157115171349805
357473,185,-31,-1255,6899,4845,1140,1745157115171349805
357665,185,-38,-1276,6756,4667,1097,1745157115171349805
357857,181,-48,-1294,6616,4538,1107,1745157115171349805
358049,182,-58,-1313,6540,4525,1028,1745157115171349805
358241,168,-64,-1338,6515,4590,837,1745157115171349805
358433,127,-69,-1365,6551,4639,675,1745157115171349805
358625,62,-80,-1387,6604,4660,629,1745157115171349805
358817,-12,-100,-1398,6598,4747,632,1745157115218970828
359009,-98,-113,-1401,6539,4957,623,1745157115218970828
359201,-193,-114,-1396,6455,5280,687,1745157115218970828
359393,-283,-102,-1375,6366,5669,792,1745157115218970828
359585,-351,-91,-1339,6323,5966,939,1745157115218970828
359777,-386,-82,-1293,6282,6242,1089,1745157115218970828
359969,-385,-75,-1243,6273,6451,1194,1745157115218970828
360161,-351,-77,-1194,6298,6640,1317,1745157115218970828
360353,-302,-85,-1151,6312,6793,1379,1745157115218970828
360545,-246,-106,-1108,6334,6829,1379,1745157115218970828
360737,-177,-137,-1067,6476,6672,1464,1745157115218970828
360929,-89,-174,-1042,6520,6532,1475,1745157115218970828
361121,4,-213,-1035,6543,6307,1493,1745157115270418796
361313,85,-249,-1045,6521,6015,1559,1745157115270418796
361505,158,-283,-1053,6433,5758,1611,1745157115270418796
361697,214,-313,-1053,6292,5526,1677,1745157115270418796
361889,241,-335,-1055,6152,5321,1731,1745157115270418796
362081,233,-347,-1055,5968,5145,1751,1745157115270418796
362273,207,-360,-1041,5840,4994,1802,1745157115270418796
362465,168,-366,-1019,5668,4894,1842,1745157115270418796
362657,107,-359,-992,5514,4917,1888,1745157115270418796
362849,31,-342,-965,5344,5020,2042,1745157115270418796
363041,-43,-320,-937,5146,5207,2182,1745157115270418796
363233,-99,-292,-904,4947,5409,2238,1745157115270418796
363425,-134,-265,-870,4847,5564,2321,1745157115324257054
363617,-150,-239,-837,4762,5690,2431,1745157115324257054
363809,-152,-209,-802,4737,5796,2468,1745157115324257054
364001,-144,-180,-762,4725,5893,2439,1745157115324257054
364193,-125,-161,-724,4748,5958,2471,1745157115324257054
364385,-94,-157,-690,4762,6011,2559,1745157115324257054
364577,-59,-160,-662,4747,6079,2574,1745157115324257054
364769,-24,-169,-637,4710,6100,2616,1745157115324257054
364961,10,-182,-619,4639,6127,2676,1745157115324257054
365153,34,-185,-600,4507,6176,2656,1745157115324257054
365345,55,-184,-571,4408,6160,2579,1745157115324257054
365537,76,-192,-539,4383,6076,2599,1745157115324257054
365729,93,-199,-516,4344,5996,2655,1745157115393411475
365921,96,-197,-496,4305,6002,2692,1745157115393411475
366113,72,-191,-474,4262,5980,2658,1745157115393411475
366305,49,-176,-453,4210,5990,2664,1745157115393411475
366497,33,-163,-439,4204,5988,2672,1745157115393411475
366689,17,-150,-432,4191,5998,2594,1745157115393411475
366881,-4,-135,-424,4186,5949,2490,1745157115393411475
367073,-28,-128,-415,4193,5866,2518,1745157115393411475
367265,-53,-121,-404,4142,5882,2546,1745157115393411475
367457,-85,-106,-390,4029,5983,2503,1745157115393411475
367649,-117,-81,-379,3925,6108,2410,1745157115393411475
367841,-133,-54,-364,3855,6205,2359,1745157115393411475
368033,-132,-27,-343,3881,6326,2313,1745157115441270569
368225,-120,-3,-316,3957,6389,2315,1745157115441270569
368417,-96,12,-282,4072,6434,2306,1745157115441270569
368609,-66,15,-251,4191,6455,2334,1745157115441270569
368801,-39,6,-229,4264,6474,2381,1745157115441270569
368993,-28,-5,-217,4273,6468,2424,1745157115441270569
369185,-26,-17,-208,4200,6411,2470,1745157115441270569
369377,-25,-28,-193,4122,6345,2511,1745157115441270569
369569,-24,-40,-174,4094,6313,2587,1745157115441270569
369761,-27,-49,-159,4038,6327,2627,1745157115441270569
369953,-38,-50,-149,4037,6360,2587,1745157115441270569
370145,-49,-49,-145,4070,6377,2547,1745157115441270569
370337,-56,-48,-148,4112,6376,2461,1745157115503898642
370529,-63,-47,-153,4158,6374,2283,1745157115503898642
370721,-70,-46,-154,4206,6371,2113,1745157115503898642
370913,-74,-44,-154,4222,6375,1968,1745157115503898642
371105,-76,-43,-149,4261,6452,1890,1745157115503898642
371297,-81,-48,-141,4237,6555,1922,1745157115503898642
371489,-90,-49,-131,4143,6707,1961,1745157115503898642
371681,-102,-43,-121,4057,6842,2051,1745157115503898642
371873,-106,-36,-110,3966,6951,2116,1745157115503898642
372065,-100,-28,-99,3886,7042,2169,1745157115503898642
372257,-85,-17,-86,3866,7082,2198,1745157115503898642
372449,-58,-9,-75,3891,7093,2263,1745157115503898642
372641,-18,-4,-69,3968,7070,2319,1745157115576972194
372833,23,-3,-74,4049,7025,2364,1745157115576972194
373025,62,-5,-81,4105,6955,2414,1745157115576972194
373217,95,-9,-85,4105,6886,2430,1745157115576972194
373409,114,-12,-84,4106,6790,2405,1745157115576972194
373601,117,-8,-83,4092,6685,2339,1745157115576972194
373793,113,-2,-83,4094,6602,2281,1745157115576972194
373985,103,3,-81,4070,6543,2262,1745157115576972194
374177,94,10,-76,4076,6522,2193,1745157115576972194
374369,79,17,-75,4075,6502,2071,1745157115576972194
374561,62,21,-75,4084,6491,2034,1745157115576972194
374753,51,21,-73,4094,6496,2014,1745157115576972194
374945,38,24,-67,4053,6553,1958,1745157115619808938
375137,19,26,-55,4016,6603,1953,1745157115619808938
375329,11,28,-42,3975,6660,1969,1745157115619808938
375521,15,26,-28,3927,6772,1997,1745157115619808938
375713,24,24,-11,3924,6879,2036,1745157115619808938
375905,38,19,8,3920,7002,2100,1745157115619808938
376097,60,17,26,3867,7133,2128,1745157115619808938
376289,92,10,44,3818,7252,2218,1745157115619808938
376481,131,4,59,3786,7359,2282,1745157115619808938
376673,169,5,75,3736,7431,2255,1745157115619808938
376865,205,9,91,3740,7417,2279,1745157115619808938
377057,239,5,100,3779,7320,2265,1745157115619808938
377249,264,-2,100,3817,7160,2182,1745157115680796193
377441,274,-8,95,3841,6991,2108,1745157115680796193
377633,271,-18,85,3855,6830,2076,1745157115680796193
377825,251,-25,73,3827,6700,2018,1745157115680796193
378017,216,-33,63,3820,6590,1950,1745157115680796193
378209,174,-42,55,3795,6565,1894,1745157115680796193
378401,119,-49,49,3755,6578,1891,1745157115680796193
378593,54,-54,46,3685,6670,1966,1745157115680796193
378785,-8,-53,46,3628,6811,2021,1745157115680796193
378977,-55,-49,50,3556,7038,2099,1745157115680796193
379169,-73,-41,53,3492,7342,2159,1745157115680796193
379361,-67,-34,53,3467,7610,2210,1745157115680796193
379553,-41,-29,49,3503,7816,2271,1745157115733339776
379745,-4,-28,41,3551,7953,2293,1745157115733339776
379937,39,-28,34,3594,8030,2206,1745157115733339776
380129,79,-31,26,3605,7981,2145,1745157115733339776
380321,116,-35,17,3603,7862,2102,1745157115733339776
380513,150,-38,10,3551,7729,2047,1745157115733339776
380705,173,-47,8,3553,7565,2011,1745157115733339776
380897,180,-54,10,3544,7425,1938,1745157115733339776
381089,173,-57,14,3477,7277,1880,1745157115733339776
381281,162,-56,19,3434,7177,1865,1745157115733339776
381473,151,-58,25,3437,7090,1883,1745157115733339776
381665,130,-61,25,3468,7032,1946,1745157115733339776
381857,93,-67,22,3517,6959,2024,1745157115799050009
382049,42,-71,16,3554,6877,2065,1745157115799050009
382241,-12,-76,8,3511,6764,2107,1745157115799050009
382433,-61,-75,-3,3453,6713,2150,1745157115799050009
382625,-101,-69,-11,3356,6787,2194,1745157115799050009
382817,-126,-55,-16,3274,6959,2227,1745157115799050009
383009,-130,-36,-19,3251,7170,2271,1745157115799050009
383201,-108,-17,-23,3289,7409,2236,1745157115799050009
383393,-70,0,-24,3408,7579,2169,1745157115799050009
383585,-21,5,-25,3584,7645,2070,1745157115799050009
383777,34,-5,-27,3774,7596,1948,1745157115799050009
383969,83,-25,-34,3916,7482,1868,1745157115799050009
384161,115,-46,-39,3935,7330,1824,1745157115857408903
384353,125,-64,-39,3909,7197,1788,1745157115857408903
384545,120,-81,-32,3834,7130,1812,1745157115857408903
384737,104,-91,-27,3760,7087,1827,1745157115857408903
384929,85,-100,-22,3713,7007,1881,1745157115857408903
385121,63,-109,-19,3730,6880,1943,1745157115857408903
385313,33,-119,-18,3722,6734,1955,1745157115857408903
385505,-12,-128,-20,3739,6595,1992,1745157115857408903
385697,-67,-134,-27,3723,6496,2012,1745157115857408903
385889,-128,-135,-35,3695,6443,1986,1745157115857408903
386081,-184,-129,-44,3656,6482,2032,1745157115857408903
386273,-225,-117,-49,3603,6657,2112,1745157115857408903
386465,-246,-94,-51,3531,6989,2153,1745157115908613435
386657,-239,-68,-46,3522,7404,2197,1745157115908613435
386849,-200,-48,-39,3591,7752,2211,1745157115908613435
387041,-137,-39,-34,3692,7967,2209,1745157115908613435
387233,-63,-40,-30,3868,7968,2209,1745157115908613435
387425,10,-48,-27,4023,7816,2192,1745157115908613435
387617,72,-60,-25,4089,7573,2144,1745157115908613435
387809,111,-68,-21,4089,7307,2071,1745157115908613435
388001,128,-70,-14,4054,7109,2054,1745157115908613435
388193,132,-71,-7,4014,7023,2079,1745157115908613435
388385,122,-66,-1,3981,6983,2090,1745157115908613435
388577,101,-59,1,3990,6888,2121,1745157115908613435
388769,80,-56,1,4040,6762,2182,1745157115984948154
388961,56,-57,1,4065,6657,2230,1745157115984948154
389153,24,-53,0,4073,6559,2234,1745157115984948154
389345,-9,-43,4,4079,6489,2223,1745157115984948154
389537,-35,-30,8,4080,6465,2219,1745157115984948154
389729,-52,-17,12,4102,6476,2222,1745157115984948154
389921,-61,-6,15,4118,6531,2252,1745157115984948154
390113,-55,6,22,4142,6640,2263,1745157115984948154
390305,-40,15,34,4203,6705,2272,1745157115984948154
390497,-21,19,46,4265,6786,2283,1745157115984948154
390689,2,25,62,4275,6881,2280,1745157115984948154
390881,30,33,83,4292,6880,2278,1745157115984948154
391073,59,39,105,4327,6816,2250,1745157116035832794
391265,92,49,126,4364,6725,2233,1745157116035832794
391457,120,59,149,4456,6535,2199,1745157116035832794
391649,140,70,175,4514,6372,2179,1745157116035832794
391841,149,84,202,4690,6146,2111,1745157116035832794
392033,145,95,226,4840,5951,2064,1745157116035832794
392225,135,104,250,4963,5801,2037,1745157116035832794
392417,120,111,273,5076,5649,2050,1745157116035832794
392609,97,114,299,5172,5482,2041,1745157116035832794
392801,68,117,330,5257,5348,2040,1745157116035832794
392993,40,119,367,5333,5245,2065,1745157116035832794
393185,16,118,406,5376,5196,2138,1745157116035832794
393377,-7,118,445,5409,5183,2207,1745157116090416514
393569,-32,118,483,5442,5186,2331,1745157116090416514
393761,-53,124,522,5430,5213,2439,1745157116090416514
393953,-71,140,568,5403,5262,2493,1745157116090416514
394145,-79,162,621,5388,5306,2519,1745157116090416514
394337,-70,190,674,5348,5411,2493,1745157116090416514
394529,-42,224,729,5321,5532,2453,1745157116090416514
394721,1,263,787,5302,5657,2381,1745157116090416514
394913,52,301,843,5339,5706,2298,1745157116090416514
395105,105,340,900,5433,5632,2176,1745157116090416514
395297,165,383,958,5533,5525,1996,1745157116090416514
395489,224,428,1021,5614,5385,1762,1745157116090416514
395681,268,472,1092,5777,5159,1501,1745157116152621258
395873,298,513,1164,5991,4932,1286,1745157116152621258
396065,328,547,1238,6177,4732,1098,1745157116152621258
396257,361,577,1310,6360,4549,926,1745157116152621258
396449,393,588,1377,6598,4382,888,1745157116152621258
396641,418,585,1429,6830,4187,836,1745157116152621258
396833,413,582,1475,6905,3991,775,1745157116152621258
397025,392,570,1529,6945,3792,706,1745157116152621258
397217,362,567,1584,6974,3576,621,1745157116152621258
397409,330,554,1637,7045,3352,489,1745157116152621258
397601,294,542,1684,7164,3127,322,1745157116152621258
397793,253,523,1732,7306,2956,156,1745157116152621258
397985,207,503,1782,7455,2867,-69,1745157116205896761
398177,168,485,1837,7605,2891,-279,1745157116205896761
398369,148,461,1897,7751,3082,-470,1745157116205896761
398561,147,431,1961,7911,3409,-682,1745157116205896761
398753,157,389,2023,8131,3726,-809,1745157116205896761
398945,175,332,2087,8325,3970,-850,1745157116205896761
399137,192,263,2154,8533,4123,-911,1745157116205896761
399329,205,187,2227,8702,4191,-962,1745157116205896761
399521,213,104,2304,8808,4205,-975,1745157116205896761
399713,217,17,2390,8987,4085,-953,1745157116205896761
399905,214,-77,2466,9078,3995,-914,1745157116205896761
400097,204,-174,2520,9174,3880,-877,1745157116205896761
400289,188,-267,2559,9115,3864,-876,1745157116266461312
400481,170,-358,2598,9090,3795,-864,1745157116266461312
400673,164,-446,2631,9067,3657,-842,1745157116266461312
400865,167,-536,2646,9071,3460,-805,1745157116266461312
401057,158,-624,2649,9077,3294,-811,1745157116266461312
401249,123,-696,2651,9041,3189,-935,1745157116266461312
401441,70,-756,2661,9037,3171,-1132,1745157116266461312
401633,20,-812,2678,9074,3274,-1389,1745157116266461312
401825,-8,-870,2700,9137,3518,-1689,1745157116266461312
402017,-16,-931,2719,9256,3794,-2010,1745157116266461312
402209,-1,-995,2727,9414,4067,-2383,1745157116266461312
402401,15,-1066,2728,9601,4263,-2704,1745157116266461312
402593,39,-1158,2729,9758,4443,-2689,1745157116328869596
402785,66,-1268,2730,9849,4680,-2441,1745157116328869596
402977,74,-1384,2725,9867,4976,-2215,1745157116328869596
403169,58,-1490,2719,9761,5342,-2055,1745157116328869596
403361,27,-1591,2712,9610,5686,-1971,1745157116328869596
403553,8,-1682,2709,9478,5993,-1923,1745157116328869596
403745,12,-1760,2712,9346,6244,-1930,1745157116328869596
403937,37,-1843,2716,9262,6415,-2016,1745157116328869596
404129,83,-1904,2723,9251,6522,-2247,1745157116328869596
404321,147,-1955,2731,9305,6544,-2587,1745157116328869596
404513,227,-2008,2736,9465,6459,-2858,1745157116328869596
404705,313,-2089,2728,9740,6330,-2542,1745157116328869596
404897,384,-2190,2699,9842,6393,-2035,1745157116381424220
405089,420,-2258,2649,9727,6709,-1920,1745157116381424220
405281,421,-2307,2584,9564,7167,-1943,1745157116381424220
405473,415,-2358,2502,9423,7586,-2044,1745157116381424220
405665,431,-2404,2407,9335,7913,-2258,1745157116381424220
405857,490,-2459,2300,9302,8111,-2486,1745157116381424220
406049,579,-2512,2192,9366,8135,-2621,1745157116381424220
406241,677,-2564,2091,9473,8006,-2846,1745157116381424220
406433,766,-2608,2006,9563,7732,-3146,1745157116381424220
406625,832,-2654,1929,9722,7283,-3471,1745157116381424220
406817,865,-2723,1839,9858,6826,-3513,1745157116381424220
407009,873,-2809,1748,9849,6457,-3357,1745157116381424220
407201,845,-2883,1644,9655,6275,-3171,1745157116449752658
407393,779,-2932,1532,9387,6194,-3051,1745157116449752658
407585,681,-2989,1427,9167,6164,-2769,1745157116449752658
407777,574,-3046,1330,8980,6239,-2470,1745157116449752658
407969,476,-3092,1250,8817,6446,-2240,1745157116449752658
408161,391,-3116,1183,8697,6745,-2102,1745157116449752658
408353,331,-3134,1129,8620,7041,-2007,1745157116449752658
408545,307,-3143,1079,8592,7250,-2077,1745157116449752658
408737,325,-3138,1026,8661,7363,-2298,1745157116449752658
408929,381,-3130,964,8807,7296,-2583,1745157116449752658
409121,464,-3131,892,9042,7038,-2947,1745157116449752658
409313,560,-3143,807,9239,6599,-3336,1745157116449752658
409505,658,-3155,710,9361,6033,-3770,1745157116500325373
409697,742,-3173,603,9385,5350,-4209,1745157116500325373
409889,805,-3199,490,9314,4677,-4604,1745157116500325373
410081,836,-3229,378,9170,4082,-4861,1745157116500325373
410273,828,-3261,268,8957,3671,-4957,1745157116500325373
410465,784,-3287,164,8714,3432,-4839,1745157116500325373
410657,704,-3312,75,8555,3439,-4536,1745157116500325373
410849,593,-3332,7,8477,3641,-4119,1745157116500325373
411041,456,-3351,-39,8476,4013,-3710,1745157116500325373
411233,309,-3370,-72,8496,4531,-3384,1745157116500325373
411425,171,-3392,-97,8471,5055,-3078,1745157116500325373
411617,70,-3416,-124,8361,5490,-2844,1745157116500325373
411809,19,-3442,-162,8260,5756,-2783,1745157116557984586
412001,17,-3464,-207,8124,5872,-2781,1745157116557984586
412193,53,-3478,-251,7930,5828,-2899,1745157116557984586
412385,114,-3489,-294,7745,5619,-3177,1745157116557984586
412577,195,-3497,-344,7586,5277,-3612,1745157116557984586
412769,285,-3504,-406,7471,4890,-4079,1745157116557984586
412961,371,-3505,-478,7387,4505,-4414,1745157116557984586
413153,441,-3499,-557,7397,4116,-4666,1745157116557984586
413345,491,-3488,-647,7503,3783,-4919,1745157116557984586
413537,520,-3484,-743,7582,3496,-5001,1745157116557984586
413729,529,-3491,-836,7605,3255,-4996,1745157116557984586
413921,520,-3501,-916,7561,3081,-4946,1745157116557984586
414113,494,-3515,-982,7436,3012,-4781,1745157116616749570
414305,450,-3522,-1029,7237,3029,-4576,1745157116616749570
414497,384,-3516,-1059,6906,3089,-4394,1745157116616749570
414689,295,-3485,-1103,6773,3109,-4305,1745157116616749570
414881,208,-3455,-1143,6502,3328,-4185,1745157116616749570
415073,134,-3429,-1133,6194,3471,-4059,1745157116616749570
415265,71,-3405,-1120,5977,3470,-4060,1745157116616749570
415457,20,-3395,-1125,5725,3392,-4076,1745157116616749570
415649,-26,-3379,-1137,5534,3268,-4146,1745157116616749570
415841,-76,-3372,-1155,5454,3132,-4377,1745157116616749570
416033,-143,-3374,-1178,5382,2902,-4350,1745157116616749570
416225,-220,-3359,-1202,5227,2727,-4294,1745157116616749570
416417,-290,-3308,-1235,4967,2643,-4513,1745157116683535523
416609,-348,-3265,-1276,4700,2610,-4598,1745157116683535523
416801,-393,-3225,-1327,4404,2664,-4552,1745157116683535523
416993,-415,-3147,-1393,4045,2777,-4596,1745157116683535523
417185,-420,-3040,-1461,3666,2922,-4823,1745157116683535523
417377,-407,-2920,-1518,3261,3124,-5079,1745157116683535523
417569,-375,-2782,-1564,2984,3188,-5330,1745157116683535523
417761,-318,-2649,-1605,2843,3184,-5548,1745157116683535523
417953,-240,-2534,-1645,2806,3194,-5767,1745157116683535523
418145,-153,-2437,-1676,2854,3133,-5888,1745157116683535523
418337,-61,-2351,-1701,2890,3000,-6010,1745157116683535523
418529,32,-2284,-1716,2969,2841,-6083,1745157116683535523
418721,118,-2238,-1724,3023,2642,-6061,1745157116732105496
418913,181,-2200,-1723,3001,2461,-6000,1745157116732105496
419105,212,-2157,-1721,2852,2320,-5929,1745157116732105496
419297,228,-2114,-1727,2699,2204,-5909,1745157116732105496
419489,228,-2068,-1734,2466,2085,-5798,1745157116732105496
419681,228,-2018,-1734,2283,1990,-5745,1745157116732105496
419873,228,-1968,-1726,2099,1939,-5618,1745157116732105496
420065,237,-1905,-1711,1853,1930,-5565,1745157116732105496
420257,259,-1832,-1694,1562,1993,-5575,1745157116732105496
420449,298,-1751,-1669,1345,2024,-5705,1745157116732105496
420641,342,-1686,-1636,1232,1973,-5794,1745157116732105496
420833,384,-1629,-1598,1254,1854,-5857,1745157116732105496
421025,421,-1569,-1558,1174,1732,-5877,1745157116807353246
421217,454,-1493,-1510,1063,1545,-6027,1745157116807353246
421409,477,-1424,-1461,1031,1348,-5950,1745157116807353246
421601,493,-1353,-1419,899,1138,-5884,1745157116807353246
421793,501,-1266,-1377,716,994,-6008,1745157116807353246
421985,501,-1173,-1327,500,898,-6049,1745157116807353246
422177,507,-1083,-1268,405,810,-6115,1745157116807353246
422369,523,-993,-1222,355,795,-6311,1745157116807353246
422561,552,-900,-1185,324,745,-6236,1745157116807353246
422753,586,-826,-1141,362,556,-6254,1745157116807353246
422945,635,-780,-1095,492,430,-6583,1745157116807353246
423137,667,-707,-1054,522,362,-6658,1745157116807353246
423329,709,-632,-1010,387,472,-6435,1745157116847749491
423521,774,-589,-956,273,740,-6596,1745157116847749491
423713,821,-509,-901,200,906,-6712,1745157116847749491
423905,867,-422,-861,172,1003,-6516,1745157116847749491
424097,920,-366,-812,303,987,-6615,1745157116847749491
424289,955,-307,-756,441,892,-6629,1745157116847749491
424481,971,-267,-705,582,741,-6652,1745157116847749491
424673,974,-237,-654,710,554,-6701,1745157116847749491
424865,968,-219,-604,793,372,-6687,1745157116847749491
425057,948,-197,-563,784,192,-6728,1745157116847749491
425249,909,-172,-534,718,19,-6775,1745157116847749491
425441,861,-144,-514,650,-190,-6778,1745157116847749491
425633,811,-117,-493,607,-441,-6779,1745157116910364492
425825,755,-101,-491,632,-631,-6795,1745157116910364492
426017,695,-67,-480,518,-698,-6689,1745157116910364492
426209,636,-59,-436,489,-809,-6887,1745157116910364492
426401,564,-19,-411,403,-861,-6765,1745157116910364492
426593,513,31,-397,338,-878,-7003,1745157116910364492
426785,463,46,-391,286,-774,-7047,1745157116910364492
426977,411,85,-380,252,-512,-7526,1745157116910364492
427169,345,181,-358,221,-190,-7445,1745157116910364492
427361,306,252,-334,357,215,-7562,1745157116910364492
427553,282,316,-295,468,538,-7696,1745157116910364492
427745,276,380,-245,665,812,-7772,1745157116910364492
427937,299,431,-211,902,987,-7901,1745157116973420999
428129,326,460,-182,1183,965,-7819,1745157116973420999
428321,340,473,-156,1382,877,-7597,1745157116973420999
428513,342,464,-129,1566,578,-7418,1745157116973420999
428705,333,464,-99,1581,378,-7185,1745157116973420999
428897,317,455,-68,1551,174,-7017,1745157116973420999
429089,288,453,-48,1492,4,-6913,1745157116973420999
429281,254,456,-37,1338,-178,-6767,1745157116973420999
429473,217,448,-32,1253,-355,-6703,1745157116973420999
429665,184,435,-30,1140,-503,-6744,1745157116973420999
429857,163,422,-23,1108,-454,-7053,1745157116973420999
430049,147,429,-24,1112,-347,-7379,1745157116973420999
430241,132,450,-22,1173,-234,-7668,1745157117028720807
430433,115,469,-10,1355,-54,-7933,1745157117028720807
430625,95,504,1,1522,153,-8098,1745157117028720807
430817,87,529,9,1724,357,-8198,1745157117028720807
431009,96,533,19,1948,498,-8265,1745157117028720807
431201,117,531,30,2133,619,-8365,1745157117028720807
431393,134,537,39,2234,723,-8422,1745157117028720807
431585,142,550,44,2260,797,-8324,1745157117028720807
431777,143,559,54,2266,851,-8253,1745157117028720807
431969,137,549,83,2319,757,-8057,1745157117028720807
432161,120,520,126,2376,628,-7840,1745157117028720807
432353,97,501,170,2327,488,-7701,1745157117028720807
432545,70,495,208,2218,385,-7450,1745157117161608499
432737,41,504,232,2081,210,-7245,1745157117161608499
432929,8,512,247,1932,41,-7068,1745157117161608499
433121,-28,518,258,1808,-149,-7002,1745157117161608499
433313,-64,525,267,1701,-298,-6977,1745157117161608499
433505,-101,534,276,1634,-378,-7001,1745157117161608499
433697,-133,549,283,1588,-395,-7046,1745157117161608499
433889,-157,568,289,1593,-323,-7212,1745157117161608499
434081,-176,591,289,1639,-181,-7328,1745157117161608499
434273,-186,613,288,1713,9,-7477,1745157117161608499
434465,-181,628,282,1821,237,-7752,1745157117161608499
434657,-169,643,268,1979,417,-7930,1745157117161608499
434849,-162,647,257,2230,593,-8080,1745157117168960724
435041,-155,624,254,2564,807,-8370,1745157117168960724
435233,-105,548,246,3013,1159,-8616,1745157117168960724
435425,12,426,221,3512,1510,-8685,1745157117168960724
435617,160,278,195,3905,1714,-8752,1745157117168960724
435809,295,107,184,4169,1476,-8808,1745157117168960724
436001,375,-92,192,4294,973,-9102,1745157117168960724
436193,385,-324,207,4243,263,-9337,1745157117168960724
436385,347,-567,235,3856,-554,-9368,1745157117168960724
436577,291,-762,262,3231,-1123,-9285,1745157117168960724
436769,225,-828,263,2407,-1294,-9254,1745157117168960724
436961,150,-768,226,1422,-1041,-9046,1745157117168960724
437153,74,-669,176,604,-671,-8882,1745157117232488737
437345,4,-567,151,107,-247,-8780,1745157117232488737
437537,-58,-475,161,-44,17,-8640,1745157117232488737
437729,-100,-404,194,122,160,-8453,1745157117232488737
437921,-122,-347,219,447,190,-8348,1745157117232488737
438113,-140,-299,218,810,194,-8345,1745157117232488737
438305,-166,-257,203,1126,178,-8261,1745157117232488737
438497,-192,-245,183,1261,182,-8168,1745157117232488737
438689,-217,-245,169,1276,270,-8141,1745157117232488737
438881,-227,-245,156,1165,481,-8064,1745157117232488737
439073,-216,-248,140,927,736,-7944,1745157117232488737
439265,-189,-238,124,668,952,-7846,1745157117232488737
439457,-151,-216,117,519,1135,-7835,1745157117259400002
439649,-108,-191,114,512,1203,-7871,1745157117259400002
439841,-55,-173,108,594,1146,-8006,1745157117259400002
440033,-8,-159,99,761,1015,-8190,1745157117259400002
440225,34,-158,83,951,845,-8394,1745157117259400002
440417,72,-178,58,1087,735,-8552,1745157117259400002
440609,106,-201,24,1114,708,-8610,1745157117259400002
440801,131,-220,-6,1015,684,-8604,1745157117259400002
440993,145,-232,-15,881,622,-8541,1745157117259400002
441185,147,-240,-1,711,546,-8568,1745157117259400002
441377,132,-236,21,568,524,-8702,1745157117259400002
441569,103,-219,31,420,441,-8796,1745157117259400002
441761,70,-202,35,337,358,-8881,1745157117320009448
441953,28,-176,41,340,285,-8956,1745157117320009448
442145,-11,-145,48,372,259,-8886,1745157117320009448
442337,-35,-126,57,429,294,-8825,1745157117320009448
442529,-48,-112,59,474,334,-8776,1745157117320009448
442721,-55,-98,49,465,407,-8721,1745157117320009448
442913,-56,-84,32,400,461,-8677,1745157117320009448
443105,-57,-67,19,349,461,-8602,1745157117320009448
443297,-59,-50,10,355,509,-8514,1745157117320009448
443489,-56,-40,7,416,558,-8454,1745157117320009448
443681,-44,-33,7,378,578,-8344,1745157117320009448
443873,-28,-27,19,360,506,-8318,1745157117320009448
444065,-23,-16,25,297,406,-8238,1745157117452161314
444257,-22,-5,25,227,299,-8174,1745157117452161314
444449,-23,7,27,214,223,-8089,1745157117452161314
444641,-26,15,27,249,208,-8039,1745157117452161314
444833,-30,20,21,335,233,-8029,1745157117452161314
445025,-33,20,8,420,248,-8010,1745157117452161314
445217,-34,14,-4,445,291,-7994,1745157117452161314
445409,-31,7,-13,441,316,-8023,1745157117452161314
445601,-29,2,-17,365,344,-8064,1745157117452161314
445793,-27,4,-17,293,373,-8112,1745157117452161314
445985,-25,9,-12,252,409,-8113,1745157117452161314
446177,-18,15,-8,275,438,-8116,1745157117452161314
446369,-11,17,-5,291,453,-8123,1745157117466029729
446561,-3,16,-6,315,445,-8122,1745157117466029729
446753,2,15,-11,326,433,-8173,1745157117466029729
446945,6,17,-17,342,438,-8158,1745157117466029729
447137,9,17,-20,354,468,-8137,1745157117466029729
447329,12,16,-24,356,507,-8129,1745157117466029729
447521,11,18,-26,355,518,-8130,1745157117466029729
447713,6,18,-24,372,472,-8105,1745157117466029729
447905,0,18,-20,372,434,-8106,1745157117466029729
448097,-5,16,-16,361,393,-8123,1745157117466029729
448289,-13,14,-12,284,364,-8032,1745157117466029729
448481,-53,-76,4,-656,-1668,-5537,1745157117466029729
448673,-730,114,-142,-1196,-7221,-10449,1745157117488799729
448673,-730,114,-142,-1196,-7221,-10449,1745157117488799729
448865,-1042,246,-264,793,-3370,-8436,1745157117488799729
449057,-832,-15,-9,789,980,-6895,1745157117488799729
449249,-715,168,143,-326,2908,-7376,1745157117488799729
449441,-613,204,20,-389,2975,-7655,1745157117488799729
449633,-484,161,-81,984,2839,-7715,1745157117488799729
449825,-334,61,-101,1723,2742,-7733,1745157117488799729
450017,-184,-21,-112,1565,2498,-7841,1745157117488799729
450209,-42,-72,-105,1198,2233,-7927,1745157117488799729
450401,76,-107,-78,712,1834,-7939,1745157117488799729
450593,165,-123,-56,148,1477,-7933,1745157117488799729
452513,155,-53,-8,359,204,-8240,1745157118719516091
496673,110,-209,-10,329,600,-7719,1745157118719516091
496865,-58,-12,-36,424,265,-8282,1745157118719516091
497057,-43,-56,-23,276,698,-7758,1745157118719516091
497249,-24,-14,-2,298,667,-8035,1745157118719516091
497441,-20,-53,-5,331,644,-7987,1745157118719516091
497633,-30,-40,-8,392,602,-8033,1745157118719516091
497825,-20,-40,-9,342,479,-8095,1745157118719516091
498017,-24,-53,-13,296,489,-8122,1745157118719516091
498209,-29,-37,-10,251,544,-1,1745157118719516091
498401,-27,-38,-6,224,597,-8220,1745157118719516091
498593,-29,-38,-2,156,647,-8273,1745157118719516091
498785,-34,-16,1,143,570,-8325,1745157118766247382
498977,-40,-10,1,118,513,-8302,1745157118766247382
499169,-48,4,1,92,453,-8295,1745157118766247382
499361,-55,18,3,135,482,-8219,1745157118766247382
499553,-62,18,8,205,517,-8180,1745157118766247382
499745,-67,23,9,247,613,-8122,1745157118766247382
499937,-66,27,5,246,737,-8054,1745157118766247382
500129,-60,27,4,286,785,-8039,1745157118766247382
500321,-50,32,7,316,770,-8027,1745157118766247382
500513,-36,32,13,329,819,-8066,1745157118766247382
500705,-16,36,14,258,885,-8126,1745157118766247382
500897,11,49,14,152,977,-8230,1745157118766247382
501089,48,68,12,74,1074,-8328,1745157118826662664
501281,90,85,16,96,1165,-8443,1745157118826662664
501473,130,104,27,149,1217,-8554,1745157118826662664
501665,167,123,38,138,1217,-8758,1745157118826662664
501857,200,158,42,64,1191,-9010,1745157118826662664
502049,230,201,38,88,1153,-9237,1745157118826662664
502241,258,230,27,282,980,-9374,1745157118826662664
502433,255,227,5,622,-535,-9167,1745157118826662664
502625,256,267,-33,765,1687,-10011,1745157118826662664
502817,392,232,-10,600,1831,-8805,1745157118826662664
503009,430,270,-55,1092,801,-10038,1745157118826662664
503201,429,233,-126,1405,-179,-9837,1745157118826662664
503393,293,196,-166,1614,-2316,-10087,1745157118886404514
503585,-119,138,-208,1636,-4133,-10252,1745157118886404514
503777,-538,157,-156,1547,-4250,-10710,1745157118886404514
503969,-858,136,-95,1738,-4099,-9195,1745157118886404514
504161,-835,106,-122,1274,-1568,-9492,1745157118886404514
504353,-986,169,-166,536,183,-9102,1745157118886404514
504545,-991,255,-282,-182,1819,-8213,1745157118886404514
504737,-887,307,-299,-227,2568,-7994,1745157118886404514
504929,-759,355,-279,242,2530,-8198,1745157118886404514
505121,-630,377,-252,758,2228,-8258,1745157118886404514
505313,-508,377,-193,1266,1756,-8462,1745157118886404514
505505,-408,374,-137,1632,1468,-8640,1745157118886404514
505697,-347,372,-112,2068,1247,-8734,1745157119011838472
505889,-317,349,-137,2420,1075,-8676,1745157119011838472
506081,-306,315,-188,2568,1076,-8406,1745157119011838472
506273,-287,286,-237,2497,1212,-8227,1745157119011838472
506465,-253,278,-281,2216,1431,-8292,1745157119011838472
506657,-207,297,-311,1889,1612,-8230,1745157119011838472
506849,-149,323,-316,1689,1807,-8087,1745157119011838472
507041,-89,380,-313,1455,1941,-8091,1745157119011838472
507233,-32,459,-302,1312,2054,-8183,1745157119011838472
507425,25,538,-286,1370,2120,-8349,1745157119011838472
507617,87,590,-266,1671,2033,-8495,1745157119011838472
507809,168,589,-242,2163,1888,-8621,1745157119011838472
508001,272,554,-222,2666,1758,-8739,1745157119019695276
508193,386,488,-216,3096,1584,-8760,1745157119019695276
508385,528,404,-243,3371,1294,-8525,1745157119019695276
508577,663,300,-293,3546,685,-8187,1745157119019695276
508769,768,168,-333,3603,81,-7739,1745157119019695276
508961,799,69,-360,3347,-468,-7660,1745157119019695276
509153,731,6,-387,2962,-886,-7614,1745157119019695276
509345,589,-41,-421,2590,-1128,-7492,1745157119019695276
509537,399,-76,-452,2335,-1222,-7284,1745157119019695276
509729,196,-93,-467,2316,-1214,-7205,1745157119019695276
509921,-6,-116,-454,2386,-1211,-7075,1745157119019695276
510113,-174,-170,-434,2542,-1158,-7088,1745157119019695276
510305,-308,-240,-429,2753,-895,-7234,1745157119061429061
510497,-411,-286,-464,3051,-383,-7420,1745157119061429061
510689,-484,-310,-518,3443,289,-7441,1745157119061429061
510881,-519,-325,-504,4145,822,-7441,1745157119061429061
511073,-545,-373,-444,4727,1418,-7616,1745157119061429061
511265,-480,-554,-461,5088,1896,-7637,1745157119061429061
511457,-270,-798,-539,5250,2202,-7516,1745157119061429061
511649,-49,-1019,-597,5294,1908,-7745,1745157119061429061
511841,95,-1203,-603,5113,1291,-7878,1745157119061429061
512033,168,-1363,-569,4641,590,-7847,1745157119061429061
512225,215,-1483,-521,3943,39,-7777,1745157119061429061
512417,240,-1557,-474,3101,-344,-7693,1745157119061429061
512609,228,-1572,-436,2282,-599,-7681,1745157119116748764
512801,178,-1541,-395,1668,-808,-7609,1745157119116748764
512993,108,-1486,-339,1301,-984,-7412,1745157119116748764
513185,16,-1409,-261,1148,-1149,-7133,1745157119116748764
513377,-90,-1323,-164,1072,-1302,-6991,1745157119116748764
513569,-181,-1230,-62,1063,-1216,-6417,1745157119116748764
513761,-217,-1119,25,918,-600,-5999,1745157119116748764
513953,-199,-1033,142,774,136,-5671,1745157119116748764
514145,-139,-946,238,998,85,-5609,1745157119116748764
514337,-125,-873,306,1288,-464,-5647,1745157119116748764
514529,-151,-787,364,1355,-912,-5623,1745157119116748764
514721,-198,-695,411,1285,-1160,-5557,1745157119116748764
514913,-278,-601,468,1142,-1325,-5513,1745157119192710987
515105,-390,-510,545,982,-1499,-5507,1745157119192710987
515297,-506,-430,647,787,-1612,-5581,1745157119192710987
515489,-623,-319,761,645,-1715,-5622,1745157119192710987
515681,-719,-194,857,540,-1711,-5750,1745157119192710987
515873,-785,-61,940,586,-1775,-5958,1745157119192710987
516065,-832,70,1010,775,-1931,-6016,1745157119192710987
516257,-846,156,1067,942,-1963,-6160,1745157119192710987
516449,-845,225,1131,1017,-1885,-6324,1745157119192710987
516641,-834,312,1206,958,-1599,-6384,1745157119192710987
516833,-806,414,1283,880,-1246,-6343,1745157119192710987
517025,-758,519,1349,749,-857,-6166,1745157119192710987
517217,-687,634,1408,619,-454,-6032,1745157119233897850
517409,-595,756,1462,523,-122,-5921,1745157119233897850
517601,-499,878,1527,480,258,-5929,1745157119233897850
517793,-403,996,1613,603,380,-5790,1745157119233897850
517985,-304,1099,1693,672,433,-5669,1745157119233897850
518177,-210,1189,1776,852,425,-5710,1745157119233897850
518369,-130,1268,1855,1076,219,-5587,1745157119233897850
518561,-69,1333,1921,1290,-59,-5482,1745157119233897850
518753,-31,1389,1978,1464,-245,-5563,1745157119233897850
518945,-22,1446,2038,1633,-337,-5736,1745157119233897850
519137,-37,1506,2096,1753,-230,-5932,1745157119233897850
519329,-60,1576,2151,1771,118,-6206,1745157119233897850
519521,-81,1668,2204,1780,692,-6554,1745157119295587339
519713,-101,1777,2257,1845,1302,-6655,1745157119295587339
519905,-122,1872,2304,2053,1902,-6726,1745157119295587339
520097,-144,1949,2341,2370,2372,-6757,1745157119295587339
520289,-167,2006,2362,2696,2681,-6748,1745157119295587339
520481,-184,2037,2373,2895,2780,-6721,1745157119295587339
520673,-193,2053,2380,2956,2707,-6730,1745157119295587339
520865,-208,2061,2379,2887,2518,-6663,1745157119295587339
521057,-233,2079,2373,2743,2326,-6537,1745157119295587339
521249,-275,2107,2361,2653,2180,-6435,1745157119295587339
521441,-337,2136,2338,2695,2076,-6248,1745157119295587339
521633,-416,2160,2319,2731,2106,-5810,1745157119295587339
521825,-501,2170,2312,2874,2111,-5548,1745157119366052580
522017,-599,2193,2290,3024,2211,-5226,1745157119366052580
522209,-698,2214,2247,3167,2340,-4881,1745157119366052580
522401,-794,2226,2193,3279,2538,-4693,1745157119366052580
522593,-884,2241,2140,3350,2704,-4503,1745157119366052580
522785,-965,2263,2099,3394,2870,-4340,1745157119366052580
522977,-1037,2279,2073,3447,3009,-4253,1745157119366052580
523169,-1099,2307,2062,3462,3149,-4286,1745157119366052580
523361,-1143,2364,2055,3404,3402,-4618,1745157119366052580
523553,-1162,2454,2047,3318,3736,-4990,1745157119366052580
523745,-1154,2566,2036,3312,4148,-5259,1745157119366052580
523937,-1132,2688,2022,3444,4574,-5487,1745157119366052580
524129,-1107,2822,1987,3650,4925,-5823,1745157119409681453
524321,-1064,2959,1939,3858,5245,-6009,1745157119409681453
524513,-1006,3093,1881,4040,5502,-6080,1745157119409681453
524705,-951,3226,1817,4060,5678,-6035,1745157119409681453
524897,-902,3360,1760,3993,5741,-5838,1745157119409681453
525089,-849,3497,1713,3948,5788,-5609,1745157119409681453
525281,-782,3631,1672,3984,5786,-5249,1745157119409681453
525473,-699,3749,1634,4214,5750,-4791,1745157119409681453
525665,-607,3842,1592,4578,5716,-4413,1745157119409681453
525857,-520,3928,1535,4886,5777,-4098,1745157119409681453
526049,-431,3988,1470,5136,5832,-3401,1745157119409681453
526241,-312,4030,1391,5365,6043,-3310,1745157119409681453
526433,-217,4089,1307,5610,6188,-3115,1745157119471125266
526625,-137,4124,1218,5955,6331,-2910,1745157119471125266
526817,-79,4148,1123,6295,6397,-2797,1745157119471125266
527009,-45,4167,1018,6634,6431,-2714,1745157119471125266
527201,-30,4183,906,6908,6439,-2712,1745157119471125266
527393,-10,4205,794,7122,6504,-2789,1745157119471125266
527585,27,4234,682,7353,6655,-2913,1745157119471125266
527777,77,4254,568,7575,6829,-2973,1745157119471125266
527969,137,4266,450,7748,7041,-3041,1745157119471125266
528161,194,4280,329,7921,7244,-3128,1745157119471125266
528353,242,4288,198,8112,7336,-3104,1745157119471125266
528545,295,4287,68,8187,7265,-3067,1745157119471125266
528737,361,4281,-47,8284,7154,-3040,1745157119528767761
528929,435,4277,-154,8412,7063,-2981,1745157119528767761
529121,503,4274,-274,8504,6934,-2969,1745157119528767761
529313,551,4265,-397,8647,6778,-2904,1745157119528767761
529505,588,4251,-515,8758,6587,-2819,1745157119528767761
529697,625,4249,-626,8862,6435,-2851,1745157119528767761
529889,664,4250,-727,8985,6352,-2916,1745157119528767761
530081,697,4247,-819,9140,6318,-2941,1745157119528767761
530273,726,4232,-900,9297,6290,-2875,1745157119528767761
530465,756,4200,-968,9523,6223,-2747,1745157119528767761
530657,794,4148,-1038,9801,6117,-2566,1745157119528767761
530849,843,4073,-1123,10099,6014,-2528,1745157119528767761
531041,894,3988,-1229,10348,5921,-2628,1745157119587979511
531233,934,3892,-1341,10495,5793,-2723,1745157119587979511
531425,953,3784,-1434,10504,5594,-2750,1745157119587979511
531617,945,3670,-1499,10508,5360,-2708,1745157119587979511
531809,911,3565,-1559,10480,5162,-2666,1745157119587979511
532001,846,3459,-1623,10456,4888,-2658,1745157119587979511
532193,762,3337,-1672,10423,4571,-2570,1745157119587979511
532385,673,3221,-1703,10386,4264,-2573,1745157119587979511
532577,576,3095,-1722,10421,3911,-2530,1745157119587979511
532769,468,2973,-1731,10459,3604,-2642,1745157119587979511
532961,342,2860,-1732,10461,3369,-2796,1745157119587979511
533153,202,2762,-1738,10486,3206,-2878,1745157119587979511
533345,58,2667,-1754,10466,3056,-2914,1745157119650544304
533537,-83,2577,-1773,10397,2969,-2896,1745157119650544304
533729,-216,2481,-1786,10415,2820,-2839,1745157119650544304
533921,-331,2379,-1788,10306,2818,-2772,1745157119650544304
534113,-437,2295,-1776,10173,2836,-2646,1745157119650544304
534305,-532,2214,-1755,10090,2915,-2438,1745157119650544304
534497,-612,2125,-1725,10047,3006,-2246,1745157119650544304
534689,-668,2035,-1696,10046,3084,-2114,1745157119650544304
534881,-710,1948,-1678,10023,3221,-2000,1745157119650544304
535073,-754,1858,-1670,10005,3360,-1796,1745157119650544304
535265,-792,1766,-1663,9974,3481,-1597,1745157119650544304
535457,-812,1666,-1652,9945,3562,-1322,1745157119650544304
535649,-815,1556,-1638,9961,3612,-1062,1745157119702553933
535841,-812,1442,-1635,9953,3593,-928,1745157119702553933
536033,-823,1331,-1639,9906,3500,-879,1745157119702553933
536225,-837,1226,-1644,9782,3421,-730,1745157119702553933
536417,-834,1132,-1646,9594,3365,-629,1745157119702553933
536609,-818,1047,-1642,9391,3378,-628,1745157119702553933
536801,-801,985,-1639,9201,3444,-654,1745157119702553933
536993,-790,941,-1636,9065,3477,-718,1745157119702553933
537185,-775,915,-1633,8964,3520,-750,1745157119702553933
537377,-762,903,-1619,8943,3554,-664,1745157119702553933
537569,-744,879,-1590,8907,3578,-567,1745157119702553933
537761,-722,848,-1553,8851,3608,-392,1745157119702553933
537953,-692,801,-1514,8780,3631,-191,1745157119771005131
538145,-643,760,-1486,8672,3668,-28,1745157119771005131
538337,-596,731,-1472,8555,3709,26,1745157119771005131
538529,-568,699,-1447,8430,3692,91,1745157119771005131
538721,-550,668,-1413,8311,3710,344,1745157119771005131
538913,-529,643,-1379,8197,3787,634,1745157119771005131
539105,-500,623,-1354,8099,3964,803,1745157119771005131
539297,-469,612,-1338,8060,4137,1000,1745157119771005131
539489,-438,606,-1325,8083,4257,1101,1745157119771005131
539681,-404,607,-1315,8146,4342,1181,1745157119771005131
539873,-372,608,-1305,8249,4405,1241,1745157119771005131
540065,-332,603,-1297,8335,4499,1318,1745157119771005131
540257,-283,596,-1294,8383,4647,1377,1745157119822871480
540449,-235,588,-1295,8393,4801,1322,1745157119822871480
540641,-178,580,-1306,8409,4905,1359,1745157119822871480
540833,-121,560,-1313,8395,4993,1461,1745157119822871480
541025,-57,538,-1316,8320,5022,1481,1745157119822871480
541217,-4,521,-1319,8229,5013,1483,1745157119822871480
541409,38,500,-1319,8158,4922,1447,1745157119822871480
541601,71,477,-1319,8074,4788,1424,1745157119822871480
541793,80,458,-1321,7992,4629,1430,1745157119822871480
541985,77,445,-1323,7905,4477,1449,1745157119822871480
542177,68,436,-1321,7834,4366,1492,1745157119822871480
542369,59,426,-1314,7745,4324,1493,1745157119822871480
542561,46,417,-1304,7712,4316,1452,1745157119879990854
542753,23,405,-1294,7702,4362,1446,1745157119879990854
542945,-3,393,-1285,7699,4458,1476,1745157119879990854
543137,-26,374,-1276,7652,4540,1418,1745157119879990854
543329,-38,351,-1263,7588,4629,1361,1745157119879990854
543521,-50,325,-1253,7504,4706,1356,1745157119879990854
543713,-63,304,-1244,7428,4781,1384,1745157119879990854
543905,-73,288,-1232,7350,4868,1453,1745157119879990854
544097,-69,264,-1220,7240,4882,1504,1745157119879990854
544289,-49,240,-1209,7176,4884,1488,1745157119879990854
544481,-32,216,-1202,7131,4843,1455,1745157119879990854
544673,-26,193,-1197,7097,4748,1365,1745157119879990854
544865,-25,168,-1191,7091,4649,1315,1745157119940613269
545057,-41,146,-1184,7098,4593,1197,1745157119940613269
545249,-72,121,-1175,7118,4565,1134,1745157119940613269
545441,-112,91,-1172,7139,4567,1103,1745157119940613269
545633,-153,53,-1172,7136,4642,1078,1745157119940613269
545825,-191,15,-1175,7106,4771,1058,1745157119940613269
546017,-227,-22,-1181,7046,4941,1113,1745157119940613269
546209,-264,-55,-1184,6974,5205,1125,1745157119940613269
546401,-301,-76,-1177,6922,5493,1121,1745157119940613269
546593,-332,-96,-1163,6898,5807,1157,1745157119940613269
546785,-354,-117,-1148,6856,6113,1221,1745157119940613269
546977,-360,-135,-1131,6799,6420,1329,1745157119940613269
547169,-340,-151,-1116,6764,6638,1422,1745157119995007876
547361,-302,-168,-1101,6635,6862,1439,1745157119995007876
547553,-252,-175,-1071,6512,6948,1463,1745157119995007876
547745,-184,-173,-1044,6378,7017,1587,1745157119995007876
547937,-95,-166,-1019,6327,7028,1707,1745157119995007876
548129,-13,-166,-1001,6269,7010,1811,1745157119995007876
548321,72,-169,-990,6247,6908,1912,1745157119995007876
548513,147,-176,-984,6268,6703,2027,1745157119995007876
548705,204,-185,-990,6293,6407,2077,1745157119995007876
548897,239,-203,-998,6272,6067,2136,1745157119995007876
549089,243,-223,-1002,6226,5686,2225,1745157119995007876
549281,218,-241,-1010,6094,5358,2316,1745157119995007876
549473,174,-248,-1019,5918,5233,2447,1745157120053445155
549665,129,-250,-1027,5720,5188,2567,1745157120053445155
549857,85,-249,-1035,5532,5199,2661,1745157120053445155
550049,47,-241,-1039,5388,5211,2704,1745157120053445155
550241,-4,-237,-1031,5314,5014,2815,1745157120053445155
550433,-37,-218,-1035,5226,5281,2847,1745157120053445155
550625,-84,-213,-1045,5128,5173,2815,1745157120053445155
550817,-154,-211,-1018,4971,4834,2897,1745157120053445155
551009,-216,-187,-972,4720,4867,2996,1745157120053445155
551201,-231,-143,-953,4636,5531,3023,1745157120053445155
551393,-183,-108,-993,4678,6455,3028,1745157120053445155
551585,-158,-110,-1037,4706,6238,2882,1745157120053445155
551777,-136,-111,-993,4702,5771,2908,1745157120112242118
551969,-113,-102,-938,4660,5560,2832,1745157120112242118
552161,-100,-101,-910,4578,5532,2775,1745157120112242118
552353,-86,-103,-893,4415,5587,2713,1745157120112242118
552545,-68,-104,-875,4290,5594,2668,1745157120112242118
552737,-57,-103,-853,4184,5583,2656,1745157120112242118
552929,-55,-92,-828,4121,5579,2655,1745157120112242118
553121,-56,-77,-798,4077,5617,2623,1745157120112242118
553313,-51,-64,-766,4089,5667,2590,1745157120112242118
553505,-41,-55,-738,4121,5710,2568,1745157120112242118
553697,-28,-50,-715,4144,5696,2442,1745157120112242118
553889,-21,-50,-694,4184,5623,2320,1745157120112242118
554081,-20,-56,-672,4226,5496,2256,1745157120187184298
554273,-37,-69,-642,4247,5170,2181,1745157120187184298
554465,-62,-76,-606,4195,5208,2286,1745157120187184298
554657,-67,-70,-603,4132,5584,2324,1745157120187184298
554849,-56,-73,-624,4154,5724,2200,1745157120187184298
555041,-61,-95,-608,4201,5496,2209,1745157120187184298
555233,-69,-113,-572,4188,5202,2170,1745157120187184298
555425,-85,-130,-529,4159,5101,2171,1745157120187184298
555617,-106,-139,-511,4087,5188,2200,1745157120187184298
555809,-119,-142,-512,3965,5490,2135,1745157120187184298
556001,-127,-149,-505,3960,5524,2128,1745157120187184298
556193,-138,-163,-475,3982,5429,2063,1745157120187184298
556385,-157,-177,-425,4011,5350,2045,1745157120228429286
556577,-182,-186,-383,3966,5419,2105,1745157120228429286
556769,-197,-189,-355,3878,5682,2168,1745157120228429286
556961,-195,-186,-342,3826,5954,2224,1745157120228429286
557153,-184,-193,-323,3847,6001,2356,1745157120228429286
557345,-143,-194,-307,3953,6384,2575,1745157120228429286
557537,-106,-213,-308,3988,6204,2605,1745157120228429286
557729,-86,-226,-277,3921,5984,2702,1745157120228429286
557921,-65,-228,-239,3751,5971,2724,1745157120228429286
558113,-57,-227,-211,3603,6023,2784,1745157120228429286
558305,-56,-213,-199,3486,6095,2846,1745157120228429286
558497,-51,-196,-195,3485,6135,2898,1745157120228429286
558689,-48,-183,-184,3494,6109,2904,1745157120289215501
558881,-51,-167,-170,3511,6114,2914,1745157120289215501
559073,-47,-151,-158,3545,6153,2912,1745157120289215501
559265,-38,-140,-149,3575,6176,2926,1745157120289215501
559457,-28,-130,-140,3618,6178,2874,1745157120289215501
559649,-20,-121,-127,3688,6176,2823,1745157120289215501
559841,-15,-118,-115,3749,6177,2826,1745157120289215501
560033,-22,-116,-104,3784,6239,2806,1745157120289215501
560225,-32,-112,-89,3760,6331,2804,1745157120289215501
560417,-39,-110,-78,3679,6439,2772,1745157120289215501
560609,-44,-104,-73,3636,6493,2765,1745157120289215501
560801,-38,-96,-68,3622,6530,2761,1745157120289215501
560993,-31,-92,-56,3649,6570,2763,1745157120347576427
561185,-28,-87,-45,3678,6635,2771,1745157120347576427
561377,-27,-82,-37,3708,6707,2791,1745157120347576427
561569,-22,-81,-32,3738,6793,2849,1745157120347576427
561761,-15,-82,-29,3759,6909,2829,1745157120347576427
561953,-11,-84,-27,3775,6955,2778,1745157120347576427
562145,-16,-83,-23,3792,6957,2672,1745157120347576427
562337,-27,-84,-16,3836,6906,2561,1745157120347576427
562529,-46,-92,-7,3876,6872,2535,1745157120347576427
562721,-68,-98,3,3859,6879,2543,1745157120347576427
562913,-95,-100,11,3835,7036,2481,1745157120347576427
563105,-120,-101,16,3803,7240,2484,1745157120347576427
563297,-137,-99,20,3741,7455,2501,1745157120405634125
563489,-136,-91,26,3713,7723,2573,1745157120405634125
563681,-116,-84,28,3708,7946,2612,1745157120405634125
563873,-89,-79,28,3735,8109,2626,1745157120405634125
564065,-65,-74,28,3747,8161,2647,1745157120405634125
564257,-43,-66,32,3746,8126,2629,1745157120405634125
564449,-20,-59,38,3714,8047,2726,1745157120405634125
564641,10,-48,40,3645,8004,2815,1745157120405634125
564833,46,-38,40,3595,7901,2838,1745157120405634125
565025,69,-28,34,3610,7747,2813,1745157120405634125
565217,80,-19,26,3660,7523,2784,1745157120405634125
565409,75,-18,18,3749,7321,2844,1745157120405634125
565601,54,-24,7,3780,7172,2920,1745157120465224466
565793,26,-24,-7,3723,7139,2987,1745157120465224466
565985,3,-28,-24,3647,7112,3047,1745157120465224466
566177,-13,-32,-42,3581,7105,3105,1745157120465224466
566369,-27,-34,-62,3525,7060,3119,1745157120465224466
566561,-42,-31,-78,3497,6962,3021,1745157120465224466
566753,-60,-32,-90,3457,6809,2908,1745157120465224466
566945,-83,-33,-103,3421,6687,2827,1745157120465224466
567137,-103,-28,-108,3358,6628,2762,1745157120465224466
567329,-115,-20,-105,3300,6628,2714,1745157120465224466
567521,-119,-12,-93,3299,6688,2670,1745157120465224466
567713,-115,-5,-74,3309,6782,2665,1745157120465224466
567905,-102,0,-57,3319,6877,2634,1745157120520990103
568097,-83,6,-43,3332,6941,2642,1745157120520990103
568289,-53,11,-33,3345,6949,2684,1745157120520990103
568481,-18,16,-24,3346,6933,2688,1745157120520990103
568673,14,21,-14,3366,6847,2628,1745157120520990103
568865,39,23,-5,3409,6710,2572,1745157120520990103
569057,62,25,-2,3469,6564,2537,1745157120520990103
569249,75,25,-6,3534,6454,2530,1745157120520990103
569441,79,22,-12,3560,6405,2526,1745157120520990103
569633,73,19,-13,3566,6354,2480,1745157120520990103
569825,60,13,-14,3567,6342,2491,1745157120520990103
570017,46,6,-14,3600,6347,2493,1745157120520990103
570209,27,-4,-16,3619,6348,2509,1745157120597211334
570401,1,-13,-17,3617,6370,2512,1745157120597211334
570593,-24,-17,-12,3549,6446,2489,1745157120597211334
570785,-43,-17,-4,3490,6522,2437,1745157120597211334
570977,-59,-12,4,3431,6599,2393,1745157120597211334
571169,-67,-7,11,3457,6712,2402,1745157120597211334
571361,-66,0,21,3476,6859,2418,1745157120597211334
571553,-58,9,30,3518,7008,2431,1745157120597211334
571745,-42,12,35,3557,7143,2473,1745157120597211334
571937,-17,16,37,3557,7276,2525,1745157120597211334
572129,17,18,42,3554,7363,2534,1745157120597211334
572321,50,18,49,3582,7369,2549,1745157120597211334
572513,82,20,55,3581,7283,2554,1745157120702421779
572705,109,21,61,3622,7182,2554,1745157120702421779
572897,127,16,67,3659,7025,2557,1745157120702421779
573089,132,15,70,3679,6856,2568,1745157120702421779
573281,128,12,72,3683,6723,2588,1745157120702421779
573473,114,6,73,3692,6660,2657,1745157120702421779
573665,87,5,72,3689,6654,2726,1745157120702421779
573857,48,6,66,3708,6664,2725,1745157120702421779
574049,6,2,57,3734,6659,2794,1745157120702421779
574241,-32,-4,47,3724,6719,2917,1745157120702421779
574433,-58,-4,42,3630,6901,3020,1745157120702421779
574625,-68,7,39,3534,7154,3021,1745157120702421779
574817,-59,21,33,3478,7390,3006,1745157120711683778
575009,-32,32,22,3505,7554,2931,1745157120711683778
575201,4,41,14,3572,7614,2846,1745157120711683778
575393,37,48,13,3656,7577,2732,1745157120711683778
575585,59,48,16,3725,7495,2659,1745157120711683778
575777,75,47,21,3734,7418,2622,1745157120711683778
575969,92,47,29,3679,7402,2641,1745157120711683778
576161,108,45,31,3666,7395,2646,1745157120711683778
576353,115,43,31,3597,7405,2732,1745157120711683778
576545,120,46,40,3535,7422,2864,1745157120711683778
576737,130,56,50,3492,7461,2880,1745157120711683778
576929,142,65,55,3513,7483,2874,1745157120711683778
577121,155,72,51,3542,7426,2900,1745157120759071730
577313,173,80,43,3541,7342,2910,1745157120759071730
577505,192,89,31,3531,7273,2915,1745157120759071730
577697,207,99,22,3493,7194,2852,1745157120759071730
577889,214,110,15,3528,7085,2815,1745157120759071730
578081,214,117,12,3598,7031,2730,1745157120759071730
578273,199,123,10,3677,6957,2606,1745157120759071730
578465,174,126,9,3784,6899,2498,1745157120759071730
578657,148,120,9,3869,6899,2420,1745157120759071730
578849,120,110,6,3909,6955,2359,1745157120759071730
579041,88,100,6,3884,7017,2264,1745157120759071730
579233,59,87,7,3893,7053,2267,1745157120759071730
579425,37,74,6,3856,7076,2289,1745157120814041645
579617,18,67,3,3808,7066,2266,1745157120814041645
579809,5,61,0,3775,7055,2275,1745157120814041645
580001,-3,57,-8,3770,7025,2252,1745157120814041645
580193,-6,52,-17,3771,7025,2233,1745157120814041645
580385,-6,46,-24,3784,7069,2293,1745157120814041645
580577,-8,38,-28,3761,7113,2314,1745157120814041645
580769,-6,32,-31,3722,7184,2337,1745157120814041645
580961,0,21,-33,3671,7240,2356,1745157120814041645
581153,7,11,-33,3606,7279,2380,1745157120814041645
581345,16,5,-31,3580,7277,2348,1745157120814041645
581537,26,-4,-27,3551,7260,2317,1745157120814041645
581729,33,-11,-25,3544,7189,2301,1745157120875521812
581921,35,-18,-23,3548,7063,2278,1745157120875521812
582113,34,-28,-23,3544,6914,2269,1745157120875521812
582305,22,-37,-23,3517,6791,2269,1745157120875521812
582497,-1,-41,-23,3478,6662,2248,1745157120875521812
582689,-28,-43,-23,3439,6589,2255,1745157120875521812
582881,-55,-45,-25,3456,6558,2278,1745157120875521812
583073,-78,-49,-28,3496,6586,2326,1745157120875521812
583265,-95,-51,-26,3506,6680,2396,1745157120875521812
583457,-99,-48,-20,3435,6832,2463,1745157120875521812
583649,-96,-42,-13,3375,7034,2512,1745157120875521812
583841,-84,-34,-8,3345,7178,2529,1745157120875521812
584033,-62,-23,-4,3342,7274,2592,1745157120936500161
584225,-26,-10,1,3373,7309,2589,1745157120936500161
584417,17,-2,7,3411,7255,2533,1745157120936500161
584609,57,2,10,3465,7144,2531,1745157120936500161
584801,93,7,15,3488,6989,2567,1745157120936500161
584993,121,9,21,3511,6873,2610,1745157120936500161
585185,138,9,21,3503,6821,2678,1745157120936500161
585377,143,13,21,3500,6805,2699,1745157120936500161
585569,136,15,24,3507,6770,2700,1745157120936500161
585761,124,18,25,3525,6737,2688,1745157120936500161
585953,103,19,24,3571,6692,2690,1745157120936500161
586145,74,19,22,3615,6618,2679,1745157120936500161
586337,38,19,18,3643,6571,2690,1745157121007494982
586529,-3,23,13,3617,6587,2667,1745157121007494982
586721,-38,30,9,3594,6661,2689,1745157121007494982
586913,-63,39,7,3602,6719,2709,1745157121007494982
587105,-78,49,6,3609,6818,2679,1745157121007494982
587297,-81,60,7,3651,7003,2680,1745157121007494982
587489,-69,69,11,3677,7158,2675,1745157121007494982
587681,-46,76,16,3705,7293,2647,1745157121007494982
587873,-14,80,21,3716,7401,2667,1745157121007494982
588065,28,84,27,3748,7473,2656,1745157121007494982
588257,70,86,34,3766,7458,2643,1745157121007494982
588449,110,81,40,3804,7320,2614,1745157121007494982
588641,142,77,48,3783,7165,2606,1745157121053265501
588833,163,76,61,3784,6969,2603,1745157121053265501
589025,170,75,72,3802,6768,2604,1745157121053265501
589217,166,70,80,3826,6563,2618,1745157121053265501
589409,152,67,88,3828,6389,2679,1745157121053265501
589601,130,64,96,3828,6218,2734,1745157121053265501
589793,104,65,107,3790,6094,2776,1745157121053265501
589985,85,74,117,3737,6008,2800,1745157121053265501
590177,77,93,127,3684,5982,2819,1745157121053265501
590369,79,115,137,3678,5965,2838,1745157121053265501
590561,90,146,155,3679,5982,2840,1745157121053265501
590753,115,186,178,3741,6047,2778,1745157121053265501
590945,155,223,208,3834,6081,2717,1745157121121841958
591137,209,254,241,3952,6076,2675,1745157121121841958
591329,279,281,277,4049,6037,2644,1745157121121841958
591521,353,303,320,4120,5910,2569,1745157121121841958
591713,435,322,367,4212,5708,2524,1745157121121841958
591905,502,337,420,4298,5443,2550,1745157121121841958
592097,562,353,478,4362,5124,2553,1745157121121841958
592289,608,370,541,4415,4786,2512,1745157121121841958
592481,643,386,604,4451,4414,2467,1745157121121841958
592673,665,402,670,4494,4042,2488,1745157121121841958
592865,671,420,738,4561,3655,2555,1745157121121841958
593057,666,445,812,4660,3305,2602,1745157121121841958
593249,652,473,885,4779,2991,2647,1745157121172195144
593441,646,495,954,4897,2761,2701,1745157121172195144
593633,647,511,1014,5045,2591,2656,1745157121172195144
593825,645,526,1070,5226,2489,2622,1745157121172195144
594017,644,535,1128,5381,2411,2580,1745157121172195144
594209,643,536,1191,5534,2380,2549,1745157121172195144
594401,638,533,1255,5677,2399,2429,1745157121172195144
594593,637,529,1323,5786,2402,2298,1745157121172195144
594785,655,525,1389,5939,2448,2131,1745157121172195144
594977,691,517,1451,6106,2513,1922,1745157121172195144
595169,732,509,1514,6316,2575,1573,1745157121172195144
595361,756,502,1576,6584,2604,1050,1745157121172195144
595553,749,494,1642,6907,2616,553,1745157121227519326
595745,717,491,1708,7236,2705,183,1745157121227519326
595937,688,490,1777,7559,2919,-167,1745157121227519326
596129,650,485,1848,7850,3253,-481,1745157121227519326
596321,621,472,1921,8048,3549,-619,1745157121227519326
596513,610,457,1999,8187,3867,-691,1745157121227519326
596705,622,438,2086,8270,4081,-766,1745157121227519326
596897,643,415,2179,8417,4077,-838,1745157121227519326
597089,661,380,2262,8568,3979,-838,1745157121227519326
597281,670,345,2348,8520,3932,-719,1745157121227519326
597473,669,316,2441,8553,3803,-590,1745157121227519326
597665,670,277,2512,8694,3599,-501,1745157121227519326
597857,675,222,2554,8830,3401,-377,1745157121286984980
598049,682,145,2579,9040,3269,-243,1745157121286984980
598241,673,61,2593,9248,3184,-244,1745157121286984980
598433,638,-29,2610,9418,3144,-309,1745157121286984980
598625,592,-123,2633,9557,3137,-501,1745157121286984980
598817,548,-223,2651,9726,3159,-794,1745157121286984980
599009,500,-326,2661,9852,3240,-1124,1745157121286984980
599201,455,-423,2672,9972,3373,-1513,1745157121286984980
599393,390,-517,2703,10147,3465,-1945,1745157121286984980
599585,323,-618,2744,10333,3486,-2373,1745157121286984980
599777,244,-730,2793,10606,3474,-2712,1745157121286984980
599969,159,-863,2834,10778,3581,-2551,1745157121286984980
600161,55,-988,2867,10652,3992,-2220,1745157121344913878
600353,-75,-1070,2902,10381,4726,-2008,1745157121344913878
600545,-202,-1122,2957,10032,5529,-1822,1745157121344913878
600737,-287,-1165,3016,9853,6149,-1713,1745157121344913878
600929,-304,-1202,3056,9789,6701,-1727,1745157121344913878
601121,-260,-1235,3081,9874,7082,-1877,1745157121344913878
601313,-175,-1275,3098,10164,7171,-2162,1745157121344913878
601505,-67,-1340,3104,10564,7001,-2588,1745157121344913878
601697,61,-1425,3100,10906,6627,-3124,1745157121344913878
601889,182,-1526,3087,11164,6067,-3589,1745157121344913878
602081,278,-1650,3066,11363,5420,-3869,1745157121344913878
602273,339,-1776,3032,11363,4867,-4100,1745157121344913878
602465,353,-1885,2974,11049,4322,-4211,1745157121416942595
602657,306,-1963,2935,10689,3863,-4378,1745157121416942595
602849,217,-2038,2913,10668,3592,-4424,1745157121416942595
603041,85,-2139,2878,10629,3445,-4402,1745157121416942595
603233,-54,-2231,2846,10557,3446,-4010,1745157121416942595
603425,-207,-2319,2824,10485,3892,-3506,1745157121416942595
603617,-370,-2381,2811,10315,4642,-3097,1745157121416942595
603809,-528,-2415,2814,10292,5584,-2986,1745157121416942595
604001,-642,-2459,2805,10449,6504,-2848,1745157121416942595
604193,-673,-2524,2775,10728,7379,-2748,1745157121416942595
604385,-613,-2622,2719,11122,8074,-2665,1745157121416942595
604577,-490,-2747,2636,11507,8534,-2667,1745157121416942595
604769,-332,-2876,2539,11938,8683,-2749,1745157121464673409
604961,-163,-3020,2428,12152,8503,-2945,1745157121464673409
605153,3,-3160,2300,12093,8025,-3181,1745157121464673409
605345,152,-3285,2168,11729,7402,-3503,1745157121464673409
605537,264,-3385,2055,11222,6670,-3814,1745157121464673409
605729,315,-3445,1960,10815,5828,-4163,1745157121464673409
605921,304,-3497,1869,10656,4941,-4419,1745157121464673409
606113,236,-3544,1774,10523,4280,-4625,1745157121464673409
