timestamp,gyr_x,gyr_y,gyr_z,acc_x,acc_y,acc_z,pkt_time_ns
90400,202,-455,-59,1362,1798,-8187,1745157268901978861
90592,242,-503,-43,870,757,-8293,1745157268901978861
90784,76,-462,-31,812,831,-8301,1745157268901978861
90976,123,-501,7,812,1096,-8145,1745157268901978861
91168,125,-532,47,966,1208,-8206,1745157268901978861
91360,145,-555,75,1075,1283,-8157,1745157268901978861
91552,163,-585,89,886,1368,-8035,1745157268901978861
91744,180,-589,92,437,1434,-7994,1745157268901978861
91936,221,-558,81,-78,1409,-8009,1745157268901978861
92128,251,-513,65,-610,1407,-8023,1745157268901978861
92320,277,-425,43,-1053,1345,-8086,1745157268901978861
92512,299,-321,19,-1327,1206,-8180,1745157268901978861
92704,302,-193,-1,-1367,946,-8275,1745157268958279440
92896,300,-48,9,-1243,752,-8428,1745157268958279440
93088,290,82,43,-1005,618,-8532,1745157268958279440
93280,280,189,72,-670,606,-8664,1745157268958279440
93472,269,269,85,-313,569,-8841,1745157268958279440
93664,244,314,82,-39,482,-8954,1745157268958279440
93856,209,343,63,145,448,-8989,1745157268958279440
94048,168,363,39,262,405,-8994,1745157268958279440
94240,124,375,22,312,306,-8910,1745157268958279440
94432,81,393,22,284,175,-8822,1745157268958279440
94624,39,411,29,240,161,-8768,1745157268958279440
94816,0,422,29,303,188,-8656,1745157268958279440
95008,-37,419,25,482,270,-8553,1745157269014939340
95200,-66,395,21,744,423,-8480,1745157269014939340
95392,-83,359,18,964,672,-8304,1745157269014939340
95584,-82,327,11,1106,948,-8177,1745157269014939340
95776,-67,292,7,1193,1127,-8063,1745157269014939340
95968,-46,258,4,1158,1186,-7922,1745157269014939340
96160,-101,214,-10,915,-427,-7838,1745157269014939340
96352,-200,251,-71,963,536,-8131,1745157269014939340
96544,-31,157,-57,1143,2565,-7355,1745157269014939340
96736,173,128,31,997,3364,-7605,1745157269014939340
96928,294,150,80,765,2623,-7665,1745157269014939340
97120,334,146,50,769,1761,-7614,1745157269014939340
97312,-8,219,-13,341,-473,-9126,1745157269076052167
97504,-459,486,-91,-533,-2919,-5763,1745157269076052167
97696,-106,401,-142,-134,-1806,-6591,1745157269076052167
97888,-105,317,-62,649,-1014,-7395,1745157269076052167
98080,-154,332,19,1284,-203,-7612,1745157269076052167
98272,-232,304,39,1714,619,-7754,1745157269076052167
98464,-284,262,-1,2021,1245,-7743,1745157269076052167
98656,-261,185,-56,2169,1675,-7860,1745157269076052167
98848,-187,110,-96,2214,1774,-7922,1745157269076052167
99040,-88,21,-117,2069,1774,-8073,1745157269076052167
99232,-23,-43,-106,1784,1640,-8159,1745157269076052167
99424,8,-84,-69,1404,1388,-8181,1745157269076052167
99616,20,-104,-25,1009,1133,-8186,1745157269131261142
99808,19,-100,9,682,889,-8158,1745157269131261142
100000,10,-80,23,445,682,-8150,1745157269131261142
100192,-6,-52,17,317,548,-8129,1745157269131261142
100384,-31,-17,3,291,500,-8103,1745157269131261142
100576,-61,19,-11,325,551,-8079,1745157269131261142
100768,-93,48,-19,425,662,-8053,1745157269131261142
100960,-116,66,-22,564,809,-7996,1745157269131261142
101152,-125,72,-21,688,929,-7976,1745157269131261142
101344,-121,68,-20,760,1041,-7949,1745157269131261142
101536,-103,59,-17,800,1112,-7954,1745157269131261142
101728,-80,48,-15,788,1137,-8001,1745157269131261142
101920,-56,37,-14,754,1091,-8045,1745157269193663384
102112,-34,31,-12,679,1042,-8063,1745157269193663384
102304,-15,30,-12,610,956,-8083,1745157269193663384
102496,-2,35,-14,544,873,-8097,1745157269193663384
102688,5,46,-15,496,806,-8122,1745157269193663384
102880,11,59,-15,491,768,-8159,1745157269193663384
103072,10,74,-13,508,757,-8183,1745157269193663384
103264,3,91,-11,557,745,-8193,1745157269193663384
103456,-7,104,-11,636,708,-8204,1745157269193663384
103648,-13,112,-13,722,683,-8209,1745157269193663384
103840,-11,114,-17,798,685,-8230,1745157269193663384
104032,-12,113,-22,853,695,-8227,1745157269193663384
104224,-21,113,-24,917,738,-8182,1745157269248272625
104416,-33,111,-25,927,760,-8125,1745157269248272625
104608,-42,110,-23,923,811,-8096,1745157269248272625
104800,-48,111,-25,920,883,-8037,1745157269248272625
104992,-51,116,-30,928,959,-7977,1745157269248272625
105184,-49,120,-38,947,1026,-7951,1745157269248272625
105376,-45,124,-47,966,1077,-7912,1745157269248272625
105568,-39,125,-53,969,1093,-7897,1745157269248272625
105760,-33,124,-54,976,1094,-7872,1745157269248272625
105952,-27,124,-54,991,1062,-7847,1745157269248272625
106144,-20,124,-51,996,1021,-7846,1745157269248272625
106336,-13,124,-48,990,996,-7864,1745157269248272625
106528,-7,127,-46,999,964,-7905,1745157269311198144
106720,-1,128,-45,1018,950,-7939,1745157269311198144
106912,5,127,-48,1045,931,-7983,1745157269311198144
107104,11,126,-50,1065,890,-8008,1745157269311198144
107296,14,125,-52,1090,843,-8036,1745157269311198144
107488,13,123,-53,1109,820,-8069,1745157269311198144
107680,8,121,-53,1117,811,-8090,1745157269311198144
107872,0,120,-55,1105,817,-8081,1745157269311198144
108064,-6,117,-58,1107,829,-8088,1745157269311198144
108256,-10,116,-60,1094,869,-8089,1745157269311198144
108448,-11,114,-62,1076,886,-8076,1745157269311198144
108640,-13,112,-67,1077,916,-8056,1745157269311198144
108832,-13,110,-71,1079,926,-7997,1745157269365072756
109024,-12,109,-72,1095,910,-7936,1745157269365072756
109216,-10,108,-71,1100,914,-7908,1745157269365072756
109408,-11,109,-67,1110,894,-7878,1745157269365072756
109600,-15,109,-62,1117,872,-7857,1745157269365072756
109792,-18,107,-57,1112,871,-7854,1745157269365072756
109984,-19,105,-55,1112,892,-7827,1745157269365072756
110176,-19,101,-53,1113,907,-7842,1745157269365072756
110368,-22,96,-49,1103,924,-7863,1745157269365072756
110560,-27,91,-43,1080,961,-7880,1745157269365072756
110752,-32,86,-37,1040,1013,-7927,1745157269365072756
110944,-33,83,-30,987,1065,-7970,1745157269365072756
111136,-29,79,-23,926,1101,-8028,1745157269424080237
111328,-21,76,-15,878,1131,-8096,1745157269424080237
111520,-12,74,-7,836,1130,-8161,1745157269424080237
111712,-7,77,5,829,1105,-8192,1745157269424080237
111904,-7,82,20,807,1012,-8172,1745157269424080237
112096,-10,91,36,792,954,-8173,1745157269424080237
112288,-18,100,48,810,894,-8175,1745157269424080237
112480,-29,109,53,835,866,-8151,1745157269424080237
112672,-39,118,53,863,890,-8124,1745157269424080237
112864,-46,127,51,899,902,-8113,1745157269424080237
113056,-50,136,49,932,930,-8085,1745157269424080237
113248,-51,145,51,973,941,-8052,1745157269424080237
113440,-49,150,55,1026,931,-8033,1745157269489501046
113632,-46,152,61,1074,908,-8033,1745157269489501046
113824,-44,153,65,1125,903,-8016,1745157269489501046
114016,-45,151,65,1175,872,-7984,1745157269489501046
114208,-48,148,64,1206,886,-7962,1745157269489501046
114400,-50,145,62,1242,893,-7950,1745157269489501046
114592,-54,142,58,1264,912,-7911,1745157269489501046
114784,-58,142,55,1269,945,-7903,1745157269489501046
114976,-61,143,52,1277,994,-7921,1745157269489501046
115168,-58,141,50,1288,1029,-7914,1745157269489501046
115360,-46,135,45,1309,1010,-7941,1745157269489501046
115552,-33,128,43,1332,1007,-7993,1745157269489501046
115744,-23,129,49,1369,1005,-8020,1745157269540118396
115936,-14,130,55,1393,995,-8050,1745157269540118396
116128,-10,134,58,1421,936,-8126,1745157269540118396
116320,-7,139,60,1435,888,-8212,1745157269540118396
116512,-5,143,55,1455,863,-8247,1745157269540118396
116704,-2,146,45,1442,863,-8271,1745157269540118396
116896,0,155,34,1433,879,-8290,1745157269540118396
117088,-2,165,23,1424,874,-8292,1745157269540118396
117280,-6,180,13,1457,911,-8323,1745157269540118396
117472,-5,206,-7,1506,957,-8360,1745157269540118396
117664,1,240,-47,1571,918,-8415,1745157269540118396
117856,9,268,-102,1621,803,-8511,1745157269540118396
118048,23,276,-143,1662,618,-8515,1745157269616374679
118240,53,265,-162,1714,486,-8569,1745157269616374679
118432,71,244,-179,1757,411,-8626,1745157269616374679
118624,62,231,-199,1867,300,-8621,1745157269616374679
118816,41,223,-220,1991,251,-8514,1745157269616374679
119008,30,215,-239,2134,271,-8351,1745157269616374679
119200,16,198,-254,2253,294,-8297,1745157269616374679
119392,20,159,-257,2372,371,-8252,1745157269616374679
119584,42,129,-259,2568,564,-8177,1745157269616374679
119776,47,130,-273,2761,825,-8149,1745157269616374679
119968,45,131,-292,2902,1033,-8113,1745157269616374679
120160,83,115,-300,3004,1143,-8008,1745157269616374679
120352,165,89,-306,3104,1140,-7798,1745157269662027491
120544,247,78,-331,3055,1141,-7962,1745157269662027491
120736,324,92,-365,2914,1197,-8371,1745157269662027491
120928,369,120,-383,2838,1219,-7884,1745157269662027491
121120,385,152,-383,2790,1172,-7097,1745157269662027491
121312,407,193,-382,2740,1059,-6806,1745157269662027491
121504,423,208,-379,2815,926,-7080,1745157269662027491
121696,452,203,-375,2780,1069,-7999,1745157269662027491
121888,536,243,-377,2841,1448,-8702,1745157269662027491
122080,592,278,-372,3077,1491,-8002,1745157269662027491
122272,637,304,-381,3297,1306,-8135,1745157269662027491
122464,633,346,-407,3365,1105,-8537,1745157269662027491
122656,608,419,-436,3394,1055,-9139,1745157269716986676
122848,566,513,-468,3251,1184,-9314,1745157269716986676
123040,522,618,-485,3649,963,-9502,1745157269716986676
123232,436,571,-491,4565,155,-9674,1745157269716986676
123424,324,386,-486,5621,-564,-9765,1745157269716986676
123616,227,199,-543,6324,-655,-9386,1745157269716986676
123808,180,85,-663,6514,89,-8508,1745157269716986676
124000,152,-28,-783,6418,1089,-7827,1745157269716986676
124192,206,-203,-899,6114,1765,-7109,1745157269716986676
124384,305,-358,-984,5697,2060,-6678,1745157269716986676
124576,386,-446,-990,5204,2386,-7135,1745157269716986676
124768,488,-552,-894,5088,2662,-7433,1745157269716986676
124960,543,-457,-331,6249,2500,-7547,1745157269796459336
125152,258,-435,254,6360,1660,-7121,1745157269796459336
125344,283,-775,142,5438,1045,-6832,1745157269796459336
125536,476,-1067,-306,4186,789,-6945,1745157269796459336
125728,504,-997,-666,3219,141,-7180,1745157269796459336
125920,431,-851,-690,2932,-833,-7206,1745157269796459336
126112,395,-785,-453,3127,-1386,-7197,1745157269796459336
126304,391,-794,-193,3342,-1341,-7055,1745157269796459336
126496,350,-772,-44,3512,-1106,-6898,1745157269796459336
126688,311,-737,8,3710,-962,-6801,1745157269796459336
126880,298,-709,27,3872,-891,-6562,1745157269796459336
127072,292,-681,50,3862,-883,-6259,1745157269796459336
127264,274,-629,85,3616,-877,-5968,1745157269843583853
127456,249,-548,119,3124,-868,-5597,1745157269843583853
127648,227,-448,140,2748,-809,-5520,1745157269843583853
127840,190,-341,151,2403,-997,-5561,1745157269843583853
128032,175,-216,169,2193,-1127,-6127,1745157269843583853
128224,91,-45,240,2023,-1730,-5089,1745157269843583853
128416,31,35,296,2010,-1910,-5179,1745157269843583853
128608,-106,150,353,1960,-1938,-5069,1745157269843583853
128800,-279,324,430,1844,-1875,-4510,1745157269843583853
128992,-430,496,500,1812,-1541,-4282,1745157269843583853
129184,-560,671,558,1720,-1165,-4106,1745157269843583853
129376,-658,847,616,1725,-741,-4150,1745157269843583853
129568,-750,1008,678,1924,-403,-4099,1745157269899306417
129760,-833,1162,741,2027,-72,-3931,1745157269899306417
129952,-887,1312,819,2172,222,-3926,1745157269899306417
130144,-930,1430,908,2290,411,-3700,1745157269899306417
130336,-953,1544,993,2412,643,-3768,1745157269899306417
130528,-979,1666,1067,2473,891,-3740,1745157269899306417
130720,-993,1792,1132,2470,1080,-3738,1745157269899306417
130912,-991,1927,1189,2508,1229,-3716,1745157269899306417
131104,-983,2054,1237,2650,1296,-3685,1745157269899306417
131296,-992,2173,1282,2724,1317,-3789,1745157269899306417
131488,-1019,2292,1330,2750,1371,-3883,1745157269899306417
131680,-1046,2403,1378,2796,1427,-3970,1745157269899306417
131872,-1068,2505,1421,2859,1499,-4017,1745157269954025605
132064,-1095,2607,1457,2899,1650,-4050,1745157269954025605
132256,-1122,2705,1478,3014,1744,-4074,1745157269954025605
132448,-1139,2799,1488,3117,1843,-4115,1745157269954025605
132640,-1144,2891,1494,3101,1943,-4149,1745157269954025605
132832,-1140,2986,1497,3093,2095,-4214,1745157269954025605
133024,-1127,3073,1493,3184,2292,-4294,1745157269954025605
133216,-1110,3151,1489,3267,2505,-4210,1745157269954025605
133408,-1087,3234,1495,3272,2713,-4138,1745157269954025605
133600,-1058,3328,1518,3344,2873,-4249,1745157269954025605
133792,-1034,3431,1527,3453,3227,-4349,1745157269954025605
133984,-1002,3537,1510,3604,3467,-4536,1745157269954025605
134176,-971,3651,1487,3753,3847,-4689,1745157270014383335
134368,-950,3770,1452,3985,4287,-4927,1745157270014383335
134560,-937,3863,1411,4312,4619,-5062,1745157270014383335
134752,-936,3921,1387,4655,4800,-4962,1745157270014383335
134944,-951,3976,1375,4941,4908,-4795,1745157270014383335
135136,-972,4023,1351,5131,5052,-4695,1745157270014383335
135328,-1004,4058,1312,5340,5071,-4542,1745157270014383335
135520,-1048,4081,1262,5570,4905,-4280,1745157270014383335
135712,-1103,4076,1215,5879,4770,-3918,1745157270014383335
135904,-1163,4065,1151,6073,4696,-3499,1745157270014383335
136096,-1216,4067,1062,6250,4760,-3240,1745157270014383335
136288,-1262,4060,955,6380,4916,-2946,1745157270014383335
136480,-1283,4055,848,6525,5201,-2779,1745157270071161462
136672,-1298,4046,753,6855,5605,-2711,1745157270071161462
136864,-1305,4018,658,7145,5948,-2703,1745157270071161462
137056,-1307,3982,562,7463,6226,-2759,1745157270071161462
137248,-1293,3936,462,7757,6517,-2852,1745157270071161462
137440,-1268,3878,364,8092,6775,-2913,1745157270071161462
137632,-1242,3816,269,8328,7008,-2837,1745157270071161462
137824,-1222,3774,175,8418,7195,-2926,1745157270071161462
138016,-1197,3745,87,8369,7312,-3092,1745157270071161462
138208,-1159,3717,14,8305,7344,-3219,1745157270071161462
138400,-1108,3699,-47,8230,7290,-3426,1745157270071161462
138592,-1048,3694,-100,8171,7163,-3632,1745157270071161462
138784,-993,3700,-153,8137,7004,-3813,1745157270131026384
138976,-947,3706,-200,8235,6801,-4005,1745157270131026384
139168,-908,3706,-241,8340,6502,-4089,1745157270131026384
139360,-873,3702,-274,8568,6310,-4107,1745157270131026384
139552,-839,3705,-318,8676,6169,-4064,1745157270131026384
139744,-807,3713,-368,8758,6063,-4017,1745157270131026384
139936,-786,3707,-431,9005,5896,-3891,1745157270131026384
140128,-779,3690,-519,9210,5874,-3680,1745157270131026384
140320,-773,3681,-596,9315,5822,-3428,1745157270131026384
140512,-768,3671,-651,9471,5888,-3276,1745157270131026384
140704,-768,3666,-716,9642,6005,-3201,1745157270131026384
140896,-771,3656,-798,9863,6105,-3202,1745157270131026384
141088,-779,3637,-894,10100,6186,-3310,1745157270195915947
141280,-787,3612,-1000,10309,6254,-3479,1745157270195915947
141472,-776,3586,-1096,10476,6396,-3576,1745157270195915947
141664,-744,3562,-1170,10523,6599,-3616,1745157270195915947
141856,-691,3537,-1215,10375,6795,-3638,1745157270195915947
142048,-613,3514,-1245,10379,7055,-3412,1745157270195915947
142240,-493,3481,-1311,10579,7385,-2989,1745157270195915947
142432,-329,3429,-1427,10755,7613,-2625,1745157270195915947
142624,-136,3352,-1564,11036,7554,-2323,1745157270195915947
142816,60,3256,-1718,11181,7408,-2149,1745157270195915947
143008,235,3164,-1853,11205,6949,-2022,1745157270195915947
143200,379,3057,-1967,11300,6295,-1913,1745157270195915947
143392,490,2936,-2062,11081,5658,-1796,1745157270249595821
143584,578,2832,-2117,10920,4819,-1784,1745157270249595821
143776,629,2735,-2161,10694,4202,-1862,1745157270249595821
143968,631,2655,-2181,10387,3763,-1989,1745157270249595821
144160,588,2586,-2191,10166,3528,-2131,1745157270249595821
144352,519,2501,-2181,10196,3609,-2283,1745157270249595821
144544,430,2416,-2181,9931,3469,-2376,1745157270249595821
144736,333,2367,-2243,9867,3695,-2394,1745157270249595821
144928,227,2256,-2284,9761,4088,-2416,1745157270249595821
145120,120,2179,-2295,9672,4519,-2321,1745157270249595821
145312,30,2084,-2286,9647,4831,-2311,1745157270249595821
145504,-46,1975,-2270,9653,4971,-2264,1745157270249595821
145696,-113,1864,-2264,9639,4978,-2420,1745157270305714371
145888,-181,1743,-2266,9641,4868,-2338,1745157270305714371
146080,-248,1613,-2263,9607,4735,-2392,1745157270305714371
146272,-319,1488,-2251,9518,4584,-2496,1745157270305714371
146464,-392,1357,-2243,9452,4475,-2508,1745157270305714371
146656,-468,1216,-2245,9302,4446,-2265,1745157270305714371
146848,-536,1114,-2245,9043,4549,-2192,1745157270305714371
147040,-611,1012,-2239,8909,4632,-2126,1745157270305714371
147232,-685,897,-2236,8782,4692,-2014,1745157270305714371
147424,-738,792,-2231,8566,4829,-1833,1745157270305714371
147616,-753,686,-2219,8377,4953,-1603,1745157270305714371
147808,-745,573,-2200,8165,5055,-1384,1745157270305714371
148000,-726,475,-2186,7998,5163,-1274,1745157270365151693
148192,-706,388,-2177,7901,5291,-1167,1745157270365151693
148384,-686,308,-2178,7798,5385,-973,1745157270365151693
148576,-660,228,-2180,7672,5387,-872,1745157270365151693
148768,-632,165,-2170,7558,5323,-853,1745157270365151693
148960,-606,101,-2158,7436,5159,-804,1745157270365151693
149152,-576,41,-2152,7321,5000,-772,1745157270365151693
149344,-554,-26,-2143,7222,4816,-671,1745157270365151693
149536,-542,-87,-2121,7051,4698,-598,1745157270365151693
149728,-539,-132,-2087,6926,4642,-544,1745157270365151693
149920,-546,-181,-2054,6824,4609,-430,1745157270365151693
150112,-555,-224,-2023,6715,4644,-246,1745157270365151693
150304,-559,-263,-1999,6574,4757,-83,1745157270421485032
150496,-564,-302,-1976,6476,4868,101,1745157270421485032
150688,-572,-339,-1950,6394,5022,325,1745157270421485032
150880,-577,-358,-1923,6272,5217,419,1745157270421485032
151072,-579,-365,-1892,6162,5397,419,1745157270421485032
151264,-573,-367,-1865,6101,5491,492,1745157270421485032
151456,-548,-370,-1844,6106,5525,635,1745157270421485032
151648,-506,-376,-1820,6141,5491,717,1745157270421485032
151840,-452,-377,-1791,6197,5464,765,1745157270421485032
152032,-406,-383,-1755,6274,5411,802,1745157270421485032
152224,-369,-394,-1715,6334,5344,912,1745157270421485032
152416,-334,-410,-1678,6332,5297,1044,1745157270421485032
152608,-303,-428,-1650,6324,5286,1154,1745157270481522921
152800,-281,-446,-1629,6249,5287,1232,1745157270481522921
152992,-261,-463,-1605,6169,5253,1296,1745157270481522921
153184,-248,-476,-1573,6088,5269,1340,1745157270481522921
153376,-236,-491,-1538,6020,5227,1469,1745157270481522921
153568,-218,-512,-1499,5981,5250,1620,1745157270481522921
153760,-207,-536,-1467,5898,5286,1747,1745157270481522921
153952,-202,-546,-1445,5740,5337,1766,1745157270481522921
154144,-207,-549,-1420,5607,5316,1801,1745157270481522921
154336,-214,-555,-1389,5512,5294,1860,1745157270481522921
154528,-219,-546,-1360,5399,5313,1884,1745157270481522921
154720,-216,-524,-1328,5328,5366,1864,1745157270481522921
154912,-211,-498,-1291,5337,5429,1759,1745157270538038030
155104,-207,-477,-1252,5373,5460,1630,1745157270538038030
155296,-208,-463,-1209,5524,5396,1492,1745157270538038030
155488,-212,-463,-1168,5702,5336,1392,1745157270538038030
155680,-215,-465,-1127,5761,5318,1325,1745157270538038030
155872,-215,-471,-1083,5777,5331,1273,1745157270538038030
156064,-215,-484,-1040,5747,5380,1268,1745157270538038030
156256,-215,-500,-998,5649,5524,1357,1745157270538038030
156448,-214,-517,-959,5559,5678,1535,1745157270538038030
156640,-211,-521,-926,5457,5828,1629,1745157270538038030
156832,-214,-517,-897,5396,5934,1706,1745157270538038030
157024,-209,-520,-861,5365,6021,1913,1745157270538038030
157216,-189,-519,-821,5347,6096,2115,1745157270612050323
157408,-167,-518,-789,5311,6190,2282,1745157270612050323
157600,-144,-512,-764,5370,6240,2364,1745157270612050323
157792,-120,-506,-751,5165,6414,2699,1745157270612050323
157984,-74,-476,-753,5112,6508,2587,1745157270612050323
158176,-47,-460,-756,5118,6534,2603,1745157270612050323
158368,-33,-430,-752,5109,6497,2542,1745157270612050323
158560,-15,-406,-736,5127,6413,2481,1745157270612050323
158752,3,-388,-712,5100,6351,2376,1745157270612050323
158944,9,-375,-684,5120,6275,2234,1745157270612050323
159136,7,-368,-656,5095,6169,2156,1745157270612050323
159328,-4,-365,-624,5057,6087,2065,1745157270612050323
159520,-20,-362,-590,4983,6065,2108,1745157270654903890
159712,-43,-359,-558,4930,6145,2194,1745157270654903890
159904,-66,-356,-530,4769,6403,2425,1745157270654903890
160096,-74,-336,-502,4527,6737,2535,1745157270654903890
160288,-66,-320,-460,4444,6943,2637,1745157270654903890
160480,-47,-312,-411,4396,7054,2738,1745157270654903890
160672,-9,-295,-370,4310,7069,2798,1745157270654903890
160864,40,-274,-342,4209,6994,2793,1745157270654903890
161056,95,-264,-318,4122,6860,2786,1745157270654903890
161248,150,-253,-293,4026,6785,2795,1745157270654903890
161440,199,-236,-273,3994,6721,2705,1745157270654903890
161632,228,-224,-254,3916,6709,2756,1745157270654903890
161824,259,-195,-235,3725,6864,2807,1745157270714935321
162016,307,-154,-227,3587,7090,2718,1745157270714935321
162208,339,-135,-210,3696,7056,2539,1745157270714935321
162400,362,-112,-178,3822,6907,2412,1745157270714935321
162592,397,-84,-149,3705,7082,2558,1745157270714935321
162784,440,-48,-136,3821,7100,2336,1745157270714935321
162976,460,-34,-119,3824,7172,2329,1745157270714935321
163168,483,-20,-105,3886,7151,2227,1745157270714935321
163360,501,-17,-87,4032,6996,2128,1745157270714935321
163552,512,-18,-68,4097,6935,2113,1745157270714935321
163744,513,-18,-53,4081,6869,2098,1745157270714935321
163936,502,-16,-44,4016,6861,2078,1745157270714935321
164128,485,-24,-34,3982,6866,2134,1745157270772357088
164320,463,-33,-21,3923,6894,2186,1745157270772357088
164512,435,-35,-2,3890,6935,2245,1745157270772357088
164704,405,-32,11,3827,7012,2297,1745157270772357088
164896,377,-26,20,3830,7068,2295,1745157270772357088
165088,352,-23,23,3876,7113,2320,1745157270772357088
165280,329,-21,21,3899,7099,2302,1745157270772357088
165472,304,-20,16,3899,7052,2265,1745157270772357088
165664,282,-25,10,3914,6991,2237,1745157270772357088
165856,254,-29,5,3871,6986,2115,1745157270772357088
166048,220,-28,2,3812,7026,1972,1745157270772357088
166240,186,-27,-4,3771,7070,1895,1745157270772357088
166432,158,-25,-11,3728,7159,1881,1745157270832187999
166624,133,-19,-14,3662,7273,1844,1745157270832187999
166816,107,-14,-8,3635,7312,1821,1745157270832187999
167008,85,-14,-6,3670,7321,1817,1745157270832187999
167200,64,-13,-8,3614,7375,1829,1745157270832187999
167392,46,-6,-11,3552,7411,1858,1745157270832187999
167584,35,-6,-17,3515,7397,1890,1745157270832187999
167776,30,-7,-25,3477,7390,1949,1745157270832187999
167968,30,-4,-32,3404,7411,2020,1745157270832187999
168160,34,2,-33,3354,7427,2069,1745157270832187999
168352,40,7,-34,3331,7410,2065,1745157270832187999
168544,43,10,-37,3331,7354,2062,1745157270832187999
168736,45,12,-37,3352,7261,2037,1745157270889904816
168928,47,9,-35,3372,7138,1999,1745157270889904816
169120,43,1,-29,3390,6993,1977,1745157270889904816
169312,31,-9,-21,3361,6928,2011,1745157270889904816
169504,11,-10,-15,3271,6957,2007,1745157270889904816
169696,-11,-6,-7,3234,6991,2013,1745157270889904816
169888,-26,-2,-3,3196,7047,2040,1745157270889904816
170080,-35,4,1,3190,7068,2054,1745157270889904816
170272,-38,14,5,3198,7082,2010,1745157270889904816
170464,-38,24,9,3257,7032,1957,1745157270889904816
170656,-30,32,14,3312,7016,1954,1745157270889904816
170848,-13,39,21,3344,6996,1989,1745157270889904816
171040,9,47,25,3363,7052,1963,1745157270950016975
171232,31,57,28,3387,7063,1950,1745157270950016975
171424,55,64,34,3394,7061,1982,1745157270950016975
171616,83,73,42,3415,7064,1990,1745157270950016975
171808,106,86,55,3428,7050,1955,1745157270950016975
172000,123,93,72,3512,6932,1996,1745157270950016975
172192,139,93,85,3589,6863,2030,1745157270950016975
172384,151,92,95,3619,6815,2039,1745157270950016975
172576,155,92,110,3614,6805,2043,1745157270950016975
172768,155,94,124,3578,6845,2087,1745157270950016975
172960,154,98,140,3517,6875,2117,1745157270950016975
173152,156,102,154,3544,6871,2152,1745157270950016975
173344,158,100,165,3579,6842,2169,1745157271021366792
173536,156,97,172,3591,6820,2135,1745157271021366792
173728,144,95,179,3640,6800,2074,1745157271021366792
173920,122,91,186,3630,6808,2012,1745157271021366792
174112,95,89,192,3605,6843,1935,1745157271021366792
174304,71,87,196,3572,6902,1855,1745157271021366792
174496,49,84,200,3591,6971,1827,1745157271021366792
174688,32,83,206,3620,7063,1809,1745157271021366792
174880,17,81,213,3637,7142,1751,1745157271021366792
175072,2,81,216,3667,7220,1723,1745157271021366792
175264,-9,75,213,3696,7338,1719,1745157271021366792
175456,-13,64,210,3646,7476,1692,1745157271021366792
175648,-15,57,210,3554,7557,1662,1745157271065611232
175840,-13,55,215,3472,7650,1643,1745157271065611232
176032,-8,56,222,3412,7722,1635,1745157271065611232
176224,-1,55,228,3407,7743,1628,1745157271065611232
176416,10,54,231,3435,7717,1628,1745157271065611232
176608,22,53,230,3453,7650,1565,1745157271065611232
176800,31,45,226,3482,7556,1549,1745157271065611232
176992,38,34,223,3479,7513,1564,1745157271065611232
177184,38,31,221,3393,7543,1574,1745157271065611232
177376,37,33,220,3323,7631,1618,1745157271065611232
177568,42,34,217,3288,7697,1663,1745157271065611232
177760,49,32,214,3267,7765,1668,1745157271065611232
177952,53,29,210,3270,7779,1662,1745157271125892608
178144,54,26,205,3303,7749,1607,1745157271125892608
178336,55,24,195,3308,7715,1585,1745157271125892608
178528,57,16,183,3326,7707,1599,1745157271125892608
178720,60,10,171,3259,7723,1567,1745157271125892608
178912,60,7,161,3224,7802,1549,1745157271125892608
179104,63,8,150,3203,7889,1533,1745157271125892608
179296,68,11,138,3185,7995,1481,1745157271125892608
179488,75,16,125,3155,8103,1423,1745157271125892608
179680,89,20,116,3110,8224,1375,1745157271125892608
179872,116,28,119,3102,8351,1411,1745157271125892608
180064,148,33,122,3112,8438,1433,1745157271125892608
180256,177,33,115,3157,8471,1459,1745157271186083308
180448,209,26,97,3204,8446,1467,1745157271186083308
180640,241,19,77,3244,8355,1461,1745157271186083308
180832,264,10,65,3278,8217,1476,1745157271186083308
181024,280,1,59,3292,8020,1490,1745157271186083308
181216,288,-9,50,3269,7831,1513,1745157271186083308
181408,285,-21,40,3284,7666,1576,1745157271186083308
181600,268,-33,29,3269,7561,1678,1745157271186083308
181792,240,-39,22,3251,7475,1740,1745157271186083308
181984,204,-38,15,3225,7426,1784,1745157271186083308
182176,169,-38,1,3237,7393,1784,1745157271186083308
182368,140,-39,-18,3261,7338,1745,1745157271186083308
182560,113,-40,-38,3321,7276,1719,1745157271242815030
182752,86,-39,-60,3376,7200,1698,1745157271242815030
182944,57,-38,-82,3415,7149,1606,1745157271242815030
183136,27,-36,-102,3457,7109,1536,1745157271242815030
183328,3,-37,-118,3459,7058,1486,1745157271242815030
183520,-14,-37,-128,3492,7026,1483,1745157271242815030
183712,-31,-36,-136,3515,7041,1464,1745157271242815030
183904,-48,-34,-139,3526,7082,1472,1745157271242815030
184096,-61,-31,-133,3535,7160,1541,1745157271242815030
184288,-66,-29,-125,3555,7267,1571,1745157271242815030
184480,-64,-30,-114,3553,7341,1632,1745157271242815030
184672,-51,-27,-105,3545,7409,1715,1745157271242815030
184864,-32,-25,-93,3562,7417,1756,1745157271300000236
185056,-11,-25,-79,3585,7397,1779,1745157271300000236
185248,8,-23,-63,3610,7337,1763,1745157271300000236
185440,27,-20,-48,3662,7246,1763,1745157271300000236
185632,44,-17,-39,3710,7125,1741,1745157271300000236
185824,56,-12,-31,3761,7032,1722,1745157271300000236
186016,64,-8,-21,3770,6928,1764,1745157271300000236
186208,71,-1,-8,3803,6846,1781,1745157271300000236
186400,75,9,2,3836,6780,1806,1745157271300000236
186592,76,18,14,3875,6734,1857,1745157271300000236
186784,74,28,28,3931,6716,1882,1745157271300000236
186976,71,37,42,4003,6705,1940,1745157271300000236
187168,69,47,58,4064,6709,1999,1745157271359689899
187360,68,58,75,4132,6698,2022,1745157271359689899
187552,65,66,91,4215,6642,2064,1745157271359689899
187744,65,70,106,4290,6562,2080,1745157271359689899
187936,70,75,123,4334,6490,2085,1745157271359689899
188128,78,86,143,4384,6426,2072,1745157271359689899
188320,84,98,166,4475,6368,2034,1745157271359689899
188512,91,109,193,4548,6322,2021,1745157271359689899
188704,106,121,223,4652,6266,1986,1745157271359689899
188896,122,127,252,4781,6242,1952,1745157271359689899
189088,140,127,281,4876,6171,1941,1745157271359689899
189280,157,129,314,4947,6077,1917,1745157271359689899
189472,171,126,353,5013,5986,1912,1745157271423603378
189664,184,128,396,5008,5968,1908,1745157271423603378
189856,198,136,441,5031,5936,1947,1745157271423603378
190048,216,146,484,5095,5945,1992,1745157271423603378
190240,237,161,524,5140,5965,2065,1745157271423603378
190432,256,179,562,5260,5997,2091,1745157271423603378
190624,274,201,599,5357,5962,2052,1745157271423603378
190816,292,224,636,5512,5939,2049,1745157271423603378
191008,316,248,673,5671,5891,2071,1745157271423603378
191200,344,278,710,5792,5892,2059,1745157271423603378
191392,372,312,751,5965,5883,2069,1745157271423603378
191584,402,343,787,6168,5829,2060,1745157271423603378
191776,433,373,819,6344,5801,1984,1745157271481744722
191968,462,401,853,6579,5716,1940,1745157271481744722
192160,481,415,890,6783,5564,1830,1745157271481744722
192352,506,425,928,6895,5428,1756,1745157271481744722
192544,521,435,966,6974,5291,1655,1745157271481744722
192736,530,448,1005,7011,5149,1533,1745157271481744722
192928,537,464,1046,7033,5018,1448,1745157271481744722
193120,544,481,1091,7095,4927,1388,1745157271481744722
193312,550,501,1139,7101,4834,1293,1745157271481744722
193504,559,522,1190,7104,4785,1154,1745157271481744722
193696,578,542,1244,7160,4700,1004,1745157271481744722
193888,604,559,1300,7281,4569,847,1745157271481744722
194080,627,572,1357,7443,4397,629,1745157271535477148
194272,642,581,1424,7589,4179,392,1745157271535477148
194464,655,585,1500,7750,3925,149,1745157271535477148
194656,667,582,1583,7905,3646,-81,1745157271535477148
194848,670,571,1670,8025,3521,-253,1745157271535477148
195040,660,555,1748,8140,3471,-401,1745157271535477148
195232,641,545,1823,8197,3452,-519,1745157271535477148
195424,625,530,1910,8291,3437,-722,1745157271535477148
195616,616,490,1989,8450,3415,-802,1745157271535477148
195808,611,449,2062,8587,3241,-968,1745157271535477148
196000,602,412,2151,8757,3106,-1161,1745157271535477148
196192,587,374,2239,8894,3012,-1403,1745157271535477148
196384,569,346,2315,9114,2885,-1679,1745157271591436168
196576,552,299,2358,9407,2683,-1834,1745157271591436168
196768,536,232,2389,9611,2693,-2230,1745157271591436168
196960,511,149,2464,9528,2734,-2292,1745157271591436168
197152,495,116,2542,9419,2804,-2696,1745157271591436168
197344,473,48,2598,9370,2888,-2925,1745157271591436168
197536,448,-18,2651,9267,2988,-3133,1745157271591436168
197728,440,-77,2739,9092,3262,-3272,1745157271591436168
197920,445,-118,2836,9104,3454,-3462,1745157271591436168
198112,457,-169,2894,9206,3703,-3628,1745157271591436168
198304,459,-240,2925,9379,3719,-3710,1745157271591436168
198496,465,-329,2951,9455,3858,-3758,1745157271591436168
198688,469,-408,3010,9451,4072,-3873,1745157271651537858
198880,468,-484,3080,9415,4316,-3950,1745157271651537858
199072,467,-571,3145,9447,4535,-4047,1745157271651537858
199264,477,-677,3208,9516,4748,-4040,1745157271651537858
199456,491,-772,3250,9482,5042,-4103,1745157271651537858
199648,499,-854,3280,9386,5319,-4299,1745157271651537858
199840,503,-936,3306,9326,5483,-4532,1745157271651537858
200032,519,-1029,3323,9367,5533,-4873,1745157271651537858
200224,549,-1132,3322,9531,5441,-5232,1745157271651537858
200416,591,-1227,3291,9708,5483,-5473,1745157271651537858
200608,633,-1319,3235,9868,5547,-5723,1745157271651537858
200800,663,-1425,3171,9954,5594,-5934,1745157271651537858
200992,682,-1537,3122,9930,5643,-6084,1745157271708326819
201184,695,-1656,3090,9814,5700,-6252,1745157271708326819
201376,699,-1777,3062,9717,5823,-6261,1745157271708326819
201568,695,-1902,3025,9542,6066,-5933,1745157271708326819
201760,675,-2005,2987,9275,6424,-5560,1745157271708326819
201952,639,-2078,2951,9034,6957,-5319,1745157271708326819
202144,610,-2149,2920,8821,7466,-5090,1745157271708326819
202336,615,-2229,2891,8733,7954,-4860,1745157271708326819
202528,663,-2319,2851,8716,8369,-4664,1745157271708326819
202720,743,-2407,2799,8713,8719,-4590,1745157271708326819
202912,835,-2481,2740,8813,8925,-4661,1745157271708326819
203104,921,-2564,2677,9028,8839,-4738,1745157271708326819
203296,1004,-2658,2613,9298,8569,-4983,1745157271768601372
203488,1076,-2761,2541,9536,8128,-5277,1745157271768601372
203680,1130,-2865,2462,9673,7645,-5566,1745157271768601372
203872,1157,-2967,2372,9667,7166,-5856,1745157271768601372
204064,1162,-3059,2283,9596,6723,-6141,1745157271768601372
204256,1137,-3135,2192,9514,6288,-6245,1745157271768601372
204448,1083,-3217,2096,9332,5945,-6248,1745157271768601372
204640,1008,-3301,2000,9142,5757,-6083,1745157271768601372
204832,915,-3378,1910,8899,5807,-5845,1745157271768601372
205024,811,-3436,1824,8721,6082,-5505,1745157271768601372
205216,701,-3489,1744,8577,6490,-5051,1745157271768601372
205408,618,-3546,1667,8540,6945,-4554,1745157271768601372
205600,570,-3600,1591,8577,7456,-4085,1745157271844612240
205792,555,-3658,1507,8661,7917,-3834,1745157271844612240
205984,571,-3707,1409,8800,8208,-3641,1745157271844612240
206176,615,-3760,1301,8920,8334,-3589,1745157271844612240
206368,682,-3820,1195,8825,8314,-3565,1745157271844612240
206560,764,-3873,1115,9073,7613,-3856,1745157271844612240
206752,805,-3927,960,9271,6846,-4189,1745157271844612240
206944,819,-3993,808,9143,6224,-4390,1745157271844612240
207136,799,-4037,710,8995,5700,-4507,1745157271844612240
207328,763,-4078,628,8782,5334,-4733,1745157271844612240
207520,699,-4116,529,8518,4978,-4737,1745157271844612240
207712,618,-4155,434,8299,4590,-4774,1745157271844612240
207904,512,-4184,336,8108,4191,-4766,1745157271887018155
208096,400,-4215,254,7893,3999,-4642,1745157271887018155
208288,289,-4231,206,7658,3840,-4493,1745157271887018155
208480,186,-4208,170,7419,3921,-4436,1745157271887018155
208672,104,-4169,144,7259,4136,-4366,1745157271887018155
208864,43,-4130,128,7246,4376,-4241,1745157271887018155
209056,7,-4101,104,7310,4649,-4203,1745157271887018155
209248,5,-4090,71,7385,4824,-4082,1745157271887018155
209440,47,-4094,23,7428,4867,-4023,1745157271887018155
209632,120,-4097,-33,7364,4762,-3849,1745157271887018155
209824,209,-4089,-102,7268,4538,-3966,1745157271887018155
210016,296,-4081,-183,6992,4214,-4041,1745157271887018155
210208,368,-4060,-267,6738,3788,-4420,1745157271944882470
210400,411,-4052,-344,6575,3156,-4477,1745157271944882470
210592,435,-4072,-419,6329,2544,-4490,1745157271944882470
210784,444,-4053,-494,5894,2197,-4550,1745157271944882470
210976,418,-4014,-560,5499,1905,-4557,1745157271944882470
211168,357,-3973,-624,5170,1715,-4456,1745157271944882470
211360,271,-3905,-692,4806,1637,-4366,1745157271944882470
211552,179,-3818,-759,4511,1603,-4452,1745157271944882470
211744,93,-3731,-807,4112,1735,-4462,1745157271944882470
211936,13,-3640,-824,4198,1589,-4578,1745157271944882470
212128,-67,-3533,-857,4308,1661,-4659,1745157271944882470
212320,-126,-3427,-874,4322,1904,-4670,1745157271944882470
212512,-159,-3337,-853,4293,2157,-4620,1745157272000244517
212704,-162,-3250,-829,4185,2369,-4589,1745157272000244517
212896,-134,-3153,-823,3865,2551,-4583,1745157272000244517
213088,-80,-3038,-834,3705,2455,-4844,1745157272000244517
213280,-35,-2939,-878,3729,2145,-5110,1745157272000244517
213472,-4,-2848,-934,3516,1885,-5294,1745157272000244517
213664,31,-2736,-965,3150,1663,-5454,1745157272000244517
213856,72,-2638,-967,2811,1491,-5560,1745157272000244517
214048,107,-2538,-966,2523,1373,-5723,1745157272000244517
214240,116,-2429,-977,2238,1294,-5786,1745157272000244517
214432,106,-2318,-994,2081,1095,-5715,1745157272000244517
214624,105,-2201,-1014,1921,942,-5656,1745157272000244517
214816,122,-2092,-1023,1865,809,-5603,1745157272061292917
215008,137,-1980,-1026,1834,691,-5536,1745157272061292917
215200,146,-1881,-1025,1973,530,-5528,1745157272061292917
215392,144,-1780,-1024,2120,401,-5622,1745157272061292917
215584,136,-1672,-1020,2078,285,-5510,1745157272061292917
215776,132,-1601,-1010,2040,208,-5602,1745157272061292917
215968,111,-1505,-999,1894,151,-5671,1745157272061292917
216160,89,-1397,-992,1671,172,-5558,1745157272061292917
216352,80,-1301,-970,1432,356,-5516,1745157272061292917
216544,73,-1180,-943,1200,524,-5691,1745157272061292917
216736,61,-1032,-924,1114,694,-5901,1745157272061292917
216928,58,-880,-913,1042,716,-6055,1745157272061292917
217120,79,-766,-885,1010,767,-6246,1745157272117308656
217312,98,-654,-840,1057,742,-6438,1745157272117308656
217504,106,-544,-783,1103,517,-6175,1745157272117308656
217696,112,-474,-723,1236,138,-6487,1745157272117308656
217888,110,-414,-680,1361,-155,-6600,1745157272117308656
218080,107,-344,-643,1286,-386,-6560,1745157272117308656
218272,120,-278,-606,1138,-476,-6417,1745157272117308656
218464,140,-211,-579,1014,-493,-6462,1745157272117308656
218656,161,-123,-575,975,-532,-6207,1745157272117308656
218848,194,-54,-583,924,-630,-6403,1745157272117308656
219040,227,18,-609,1199,-766,-6152,1745157272117308656
219232,267,82,-614,1099,-1273,-6435,1745157272117308656
219424,265,128,-564,1015,-1461,-6430,1745157272177596595
219616,272,155,-541,1097,-1345,-6691,1745157272177596595
219808,261,244,-540,1172,-1198,-7056,1745157272177596595
220000,219,350,-541,1250,-1156,-6616,1745157272177596595
220192,191,352,-532,1413,-1112,-6465,1745157272177596595
220384,150,342,-497,1624,-1040,-6559,1745157272177596595
220576,89,379,-463,1660,-956,-6415,1745157272177596595
220768,42,424,-443,1575,-790,-6154,1745157272177596595
220960,28,451,-423,1438,-466,-6087,1745157272177596595
221152,34,482,-397,1478,-309,-6270,1745157272177596595
221344,37,542,-366,1477,-188,-6263,1745157272177596595
221536,57,582,-318,1510,-228,-6280,1745157272177596595
221728,83,605,-272,1655,-470,-6424,1745157272243885260
221920,102,624,-229,1785,-804,-6521,1745157272243885260
222112,116,636,-194,1948,-1124,-6687,1745157272243885260
222304,111,640,-172,2095,-1370,-6844,1745157272243885260
222496,78,634,-165,2230,-1568,-7039,1745157272243885260
222688,27,625,-167,2343,-1649,-7247,1745157272243885260
222880,-28,614,-176,2405,-1594,-7459,1745157272243885260
223072,-82,601,-181,2454,-1430,-7656,1745157272243885260
223264,-133,591,-177,2512,-1134,-7689,1745157272243885260
223456,-165,573,-166,2539,-852,-7661,1745157272243885260
223648,-173,546,-146,2610,-577,-7656,1745157272243885260
223840,-158,517,-128,2671,-322,-7704,1745157272243885260
224032,-130,496,-109,2736,-84,-7786,1745157272300486149
224224,-100,486,-86,2774,57,-7898,1745157272300486149
224416,-73,485,-61,2818,119,-8021,1745157272300486149
224608,-52,486,-36,2827,110,-8119,1745157272300486149
224800,-38,492,-7,2858,8,-8199,1745157272300486149
224992,-31,499,22,2834,-75,-8249,1745157272300486149
225184,-31,519,49,2796,-134,-8302,1745157272300486149
225376,-42,549,72,2746,-162,-8304,1745157272300486149
225568,-64,584,91,2730,-219,-8200,1745157272300486149
225760,-92,611,109,2711,-271,-8098,1745157272300486149
225952,-126,632,128,2661,-357,-8001,1745157272300486149
226144,-161,648,155,2615,-431,-7856,1745157272300486149
226336,-189,655,187,2613,-479,-7693,1745157272356393972
226528,-206,655,218,2591,-538,-7562,1745157272356393972
226720,-219,656,242,2588,-597,-7427,1745157272356393972
226912,-230,648,266,2639,-686,-7206,1745157272356393972
227104,-248,623,291,2787,-915,-6990,1745157272356393972
227296,-276,563,329,3048,-1360,-7099,1745157272356393972
227488,-321,442,388,3476,-1891,-7783,1745157272356393972
227680,-389,245,456,4005,-2434,-8662,1745157272356393972
227872,-481,21,505,4564,-2801,-9451,1745157272356393972
228064,-561,-176,459,4934,-2661,-9888,1745157272356393972
228256,-597,-338,313,4953,-1825,-10354,1745157272356393972
228448,-582,-453,111,4705,-467,-10071,1745157272356393972
228640,-510,-483,-86,4228,746,-9178,1745157272410136606
228832,-366,-508,-219,3492,1636,-8882,1745157272410136606
229024,-192,-564,-149,3181,1762,-8988,1745157272410136606
229216,-55,-605,9,2895,1282,-8731,1745157272410136606
229408,26,-665,183,2605,501,-8610,1745157272410136606
229600,28,-704,316,2200,-238,-8417,1745157272410136606
229792,-35,-695,401,1822,-815,-8438,1745157272410136606
229984,-137,-624,432,1409,-1061,-8235,1745157272410136606
230176,-247,-536,438,1121,-941,-7990,1745157272410136606
230368,-343,-438,427,957,-600,-7621,1745157272410136606
230560,-410,-346,410,870,-109,-7387,1745157272410136606
230752,-447,-272,403,893,392,-7248,1745157272410136606
230944,-461,-208,391,979,850,-7157,1745157272470522200
231136,-453,-160,366,1135,1249,-7068,1745157272470522200
231328,-414,-147,319,1298,1538,-7040,1745157272470522200
231520,-340,-167,253,1514,1763,-7052,1745157272470522200
231712,-239,-203,176,1658,1887,-7145,1745157272470522200
231904,-126,-240,98,1715,1907,-7262,1745157272470522200
232096,-17,-277,41,1689,1813,-7380,1745157272470522200
232288,83,-299,5,1550,1564,-7548,1745157272470522200
232480,156,-318,-6,1334,1255,-7698,1745157272470522200
232672,211,-345,-2,1079,885,-7896,1745157272470522200
232864,251,-358,6,840,535,-8235,1745157272470522200
233056,268,-352,9,653,236,-8515,1745157272470522200
233248,267,-341,4,580,28,-8856,1745157272532016899
233440,241,-320,-2,610,-113,-9183,1745157272532016899
233632,194,-283,-1,692,-214,-9433,1745157272532016899
233824,139,-250,9,694,-176,-9566,1745157272532016899
234016,92,-222,31,732,-58,-9681,1745157272532016899
234208,53,-197,59,747,66,-9703,1745157272532016899
234400,19,-171,80,866,273,-9703,1745157272532016899
234592,-8,-151,89,899,448,-9615,1745157272532016899
234784,-30,-128,96,938,627,-9513,1745157272532016899
234976,-48,-110,95,957,771,-9442,1745157272532016899
235168,-61,-99,91,954,894,-9311,1745157272532016899
235360,-73,-87,83,932,965,-9099,1745157272532016899
235552,-74,-67,77,863,956,-8897,1745157272588763411
235744,-65,-44,77,795,905,-8653,1745157272588763411
235936,-49,-24,77,771,775,-8462,1745157272588763411
236128,-31,-10,80,770,544,-8347,1745157272588763411
236320,-17,-4,84,755,276,-8211,1745157272588763411
236512,-13,4,85,644,67,-8132,1745157272588763411
236704,-26,23,65,539,111,-8034,1745157272588763411
236896,-48,57,19,510,377,-7671,1745157272588763411
237088,-52,78,-23,589,475,-7449,1745157272588763411
237280,-19,72,-43,780,368,-7551,1745157272588763411
237472,17,56,-38,941,228,-7657,1745157272588763411
237664,34,46,-21,1030,122,-7818,1745157272588763411
237856,38,41,-10,1000,15,-7886,1745157272643273591
238048,43,37,-5,933,-30,-7918,1745157272643273591
238240,57,30,-7,854,-14,-7904,1745157272643273591
238432,76,25,-12,837,47,-7916,1745157272643273591
238624,93,18,-22,805,120,-7973,1745157272643273591
238816,106,7,-32,824,159,-8049,1745157272643273591
239008,108,-1,-45,838,188,-8141,1745157272643273591
239200,100,-1,-49,804,162,-8205,1745157272643273591
239392,86,6,-44,766,195,-8286,1745157272643273591
239584,71,19,-41,742,238,-8304,1745157272643273591
239776,62,26,-41,730,276,-8360,1745157272643273591
239968,58,30,-40,711,321,-8403,1745157272643273591
240160,52,31,-40,710,371,-8372,1745157272704880267
240352,49,28,-36,701,411,-8367,1745157272704880267
240544,44,27,-29,707,423,-8295,1745157272704880267
240736,37,29,-22,702,433,-8261,1745157272704880267
240928,27,34,-16,705,411,-8246,1745157272704880267
241120,16,38,-13,717,367,-8151,1745157272704880267
241312,11,38,-11,729,326,-8090,1745157272704880267
241504,11,36,-10,750,310,-8071,1745157272704880267
241696,15,36,-11,769,281,-8073,1745157272704880267
241888,22,34,-12,777,257,-8037,1745157272704880267
242080,30,30,-13,764,213,-8058,1745157272704880267
242272,40,25,-13,748,164,-8043,1745157272704880267
242464,49,24,-9,739,130,-8006,1745157272762646406
242656,56,25,-4,742,122,-7991,1745157272762646406
242848,61,27,-3,768,107,-8001,1745157272762646406
243040,60,28,-4,783,127,-8033,1745157272762646406
243232,53,29,-5,803,148,-8029,1745157272762646406
243424,44,28,-5,817,165,-8064,1745157272762646406
243616,37,29,-5,821,213,-8099,1745157272762646406
243808,28,32,-2,801,272,-8149,1745157272762646406
244000,17,39,0,766,363,-8219,1745157272762646406
244192,5,46,8,733,420,-8260,1745157272762646406
244384,-5,50,19,740,450,-8298,1745157272762646406
244576,-10,49,27,745,481,-8338,1745157272762646406
244768,-16,49,32,753,487,-8335,1745157272818475532
244960,-23,53,33,749,467,-8341,1745157272818475532
245152,-31,57,39,745,419,-8320,1745157272818475532
245344,-39,59,44,756,352,-8301,1745157272818475532
245536,-45,57,47,758,271,-8283,1745157272818475532
245728,-52,53,50,754,197,-8252,1745157272818475532
245920,-59,52,49,745,146,-8167,1745157272818475532
246112,-63,52,47,763,89,-8097,1745157272818475532
246304,-63,52,46,776,58,-8003,1745157272818475532
246496,-62,50,41,797,61,-7909,1745157272818475532
246688,-61,46,37,814,63,-7839,1745157272818475532
246880,-57,43,33,821,87,-7798,1745157272818475532
247072,-48,40,27,828,132,-7745,1745157272877985613
247264,-33,36,21,847,177,-7736,1745157272877985613
247456,-16,27,13,856,215,-7713,1745157272877985613
247648,1,17,7,871,214,-7685,1745157272877985613
247840,19,3,1,879,208,-7719,1745157272877985613
248032,35,-9,-4,867,187,-7765,1745157272877985613
248224,47,-17,-8,815,193,-7815,1745157272877985613
248416,57,-26,-11,771,180,-7892,1745157272877985613
248608,60,-28,-14,728,193,-8009,1745157272877985613
248800,56,-26,-14,684,182,-8136,1745157272877985613
248992,46,-18,-10,678,200,-8249,1745157272877985613
249184,31,-11,-5,657,216,-8366,1745157272877985613
249376,17,-1,-1,660,251,-8479,1745157272937241218
249568,0,9,1,691,315,-8522,1745157272937241218
249760,-12,19,3,722,352,-8547,1745157272937241218
249952,-20,26,5,752,380,-8546,1745157272937241218
250144,-26,28,9,750,374,-8524,1745157272937241218
250336,-33,28,16,749,351,-8466,1745157272937241218
250528,-39,32,21,727,335,-8393,1745157272937241218
250720,-44,38,25,724,308,-8266,1745157272937241218
250912,-45,45,27,733,268,-8148,1745157272937241218
251104,-46,52,27,760,227,-8007,1745157272937241218
251296,-43,53,23,804,200,-7939,1745157272937241218
251488,-37,52,15,832,158,-7832,1745157272937241218
251680,-27,50,7,836,137,-7746,1745157272996625259
251872,-18,45,0,845,149,-7701,1745157272996625259
252064,-8,39,-7,864,153,-7679,1745157272996625259
252256,1,31,-13,872,161,-7688,1745157272996625259
252448,13,23,-17,878,183,-7725,1745157272996625259
252640,22,15,-21,873,168,-7752,1745157272996625259
252832,29,6,-25,875,155,-7801,1745157272996625259
253024,34,-3,-28,854,144,-7860,1745157272996625259
253216,37,-11,-30,832,136,-7919,1745157272996625259
253408,36,-19,-34,816,155,-7979,1745157272996625259
253600,31,-25,-37,818,165,-8051,1745157272996625259
253792,24,-29,-40,789,182,-8124,1745157272996625259
253984,18,-28,-39,755,212,-8204,1745157273070774008
254176,15,-24,-37,714,258,-8237,1745157273070774008
254368,14,-20,-33,713,302,-8287,1745157273070774008
254560,15,-17,-31,732,351,-8258,1745157273070774008
254752,16,-13,-29,773,363,-8224,1745157273070774008
254944,12,-9,-26,787,362,-8179,1745157273070774008
255136,9,-7,-24,832,352,-8121,1745157273070774008
255328,4,-9,-20,851,322,-8064,1745157273070774008
255520,1,-14,-19,849,270,-8009,1745157273070774008
255712,-2,-21,-20,811,236,-7999,1745157273070774008
255904,-2,-25,-21,761,213,-7969,1745157273070774008
256096,-2,-27,-22,710,197,-7969,1745157273070774008
256288,-3,-27,-23,687,198,-7969,1745157273115073187
256480,-6,-25,-24,689,169,-7993,1745157273115073187
256672,-11,-24,-25,718,146,-7988,1745157273115073187
256864,-14,-25,-27,739,121,-7993,1745157273115073187
257056,-15,-30,-27,764,117,-8035,1745157273115073187
257248,-16,-34,-26,757,151,-8062,1745157273115073187
257440,-15,-36,-25,736,217,-8083,1745157273115073187
257632,-12,-37,-24,710,267,-8145,1745157273115073187
257824,-9,-33,-21,675,294,-8195,1745157273115073187
258016,-5,-28,-16,684,311,-8208,1745157273115073187
258208,-2,-28,-13,710,309,-8239,1745157273115073187
258400,-5,-27,-9,716,304,-8234,1745157273115073187
258592,-11,-26,-5,730,273,-8226,1745157273172837451
258784,-17,-27,-3,747,281,-8218,1745157273172837451
258976,-23,-29,-1,737,280,-8200,1745157273172837451
259168,-29,-31,0,707,288,-8172,1745157273172837451
259360,-14,-35,1,257,382,-6840,1745157273172837451
259552,11,-122,54,737,-1141,-7585,1745157273172837451
259744,-422,-59,-70,1563,-4195,-8771,1745157273172837451
259936,-587,-137,-150,2735,-2508,-8056,1745157273172837451
260128,-580,-289,-95,2137,198,-6834,1745157273172837451
260320,-329,-278,4,738,2554,-6834,1745157273172837451
260512,-106,-263,38,34,2876,-7129,1745157273172837451
260704,35,-240,-19,142,2748,-7529,1745157273172837451
297760,-175,161,36,824,904,-7992,1745157274172337904
297952,-179,148,33,492,-144,-8328,1745157274172337904
298144,-151,88,10,680,159,-8110,1745157274172337904
298336,-146,78,20,601,288,-7689,1745157274172337904
298528,-123,93,34,605,206,-7785,1745157274172337904
298720,-111,76,29,608,215,-7631,1745157274172337904
299104,-73,85,-8,659,94,-7600,1745157274172337904
299296,-58,76,-12,735,113,-7646,1745157274172337904
299488,-41,67,-11,818,139,-7747,1745157274172337904
299680,-27,47,-13,776,196,-7849,1745157274172337904
299872,-13,32,-18,741,297,-7960,1745157274172337904
300064,2,16,-22,727,338,-8027,1745157274172337904
300256,16,-4,-23,971,-1,-1,1745157274242419712
300448,29,-21,-22,699,375,-8198,1745157274242419712
300640,41,-39,-20,646,410,-8260,1745157274242419712
300832,41,-51,-18,533,432,-8358,1745157274242419712
301024,30,-48,-14,411,403,-8445,1745157274242419712
301216,13,-39,-7,296,413,-8504,1745157274242419712
301408,-5,-22,4,237,401,-8533,1745157274242419712
301600,-21,0,15,218,401,-8582,1745157274242419712
301792,-40,20,23,239,415,-8648,1745157274242419712
301984,-58,44,28,268,450,-8689,1745157274242419712
302176,-69,69,31,258,493,-8718,1745157274242419712
302368,-75,94,37,304,490,-8716,1745157274242419712
302560,-79,118,42,350,466,-8666,1745157274297018275
302752,-79,136,49,437,437,-8579,1745157274297018275
302944,-77,145,58,574,436,-8454,1745157274297018275
303136,-67,150,65,681,455,-8339,1745157274297018275
303328,-49,150,69,745,523,-8250,1745157274297018275
303520,-21,143,75,857,568,-8191,1745157274297018275
303712,13,123,79,1006,622,-8130,1745157274297018275
303904,53,92,81,1181,645,-8104,1745157274297018275
304096,58,42,82,1279,-720,-8585,1745157274297018275
304288,-4,52,60,1287,210,-7870,1745157274297018275
304480,79,-6,77,1026,1285,-7800,1745157274297018275
304672,194,18,88,1086,1183,-8306,1745157274297018275
304864,212,-11,41,1202,160,-8544,1745157274343961024
305056,169,-7,-46,1274,-69,-8555,1745157274343961024
305248,216,-13,-97,1224,537,-8612,1745157274343961024
305440,318,8,-101,1279,24,-8665,1745157274343961024
305632,313,18,-133,948,-38,-9829,1745157274343961024
305824,-728,-23,-76,2250,-6872,-9495,1745157274343961024
306016,-553,-36,-266,1720,-4776,-9264,1745157274343961024
306208,-657,-102,-316,1149,-2660,-9314,1745157274343961024
306400,-746,-28,-229,913,-759,-9513,1745157274343961024
306592,-796,44,-228,779,615,-8918,1745157274343961024
306784,-744,61,-245,908,1628,-8829,1745157274343961024
306976,-652,47,-248,1206,1970,-8346,1745157274343961024
307168,-492,44,-244,1389,2112,-7983,1745157274403625791
307360,-320,83,-224,1516,2001,-8309,1745157274403625791
307552,-199,104,-210,1701,1537,-8294,1745157274403625791
307744,-121,98,-214,1859,976,-8341,1745157274403625791
307936,-57,61,-235,2075,569,-8607,1745157274403625791
308128,-21,11,-268,2287,381,-8660,1745157274403625791
308320,-8,-29,-302,2442,470,-8390,1745157274403625791
308512,-15,-27,-333,2343,608,-8155,1745157274403625791
308704,-26,17,-350,2148,670,-8089,1745157274403625791
308896,-28,53,-336,2039,643,-7826,1745157274403625791
309088,-28,103,-308,1890,690,-7780,1745157274403625791
309280,-34,192,-295,1710,701,-8012,1745157274403625791
309472,-40,298,-294,1650,605,-8343,1745157274467972859
309664,-40,375,-282,2043,374,-8524,1745157274467972859
309856,-95,423,-224,2832,96,-8402,1745157274467972859
310048,-217,427,-168,3614,-55,-8360,1745157274467972859
310240,-211,276,-191,4184,403,-8872,1745157274467972859
310432,-137,86,-284,4516,866,-9239,1745157274467972859
310624,-68,-29,-388,4705,912,-9020,1745157274467972859
310816,35,-137,-461,4722,513,-8433,1745157274467972859
311008,184,-263,-499,4473,151,-8085,1745157274467972859
311200,275,-376,-521,4101,-87,-8088,1745157274467972859
311392,292,-461,-541,3780,-152,-8053,1745157274467972859
311584,254,-537,-563,3635,-43,-8107,1745157274467972859
311776,131,-570,-535,4013,131,-7783,1745157274519642075
311968,-31,-574,-442,4522,406,-7219,1745157274519642075
312160,-141,-648,-335,4520,900,-7089,1745157274519642075
312352,-84,-805,-273,4369,1281,-6871,1745157274519642075
312544,34,-940,-269,4213,1352,-6905,1745157274519642075
312736,122,-1029,-288,4080,911,-7229,1745157274519642075
312928,184,-1118,-295,3986,196,-7471,1745157274519642075
313120,250,-1204,-263,3876,-463,-7693,1745157274519642075
313312,313,-1273,-185,3766,-895,-7883,1745157274519642075
313504,353,-1322,-96,3619,-1084,-7983,1745157274519642075
313696,345,-1344,-40,3263,-1206,-7944,1745157274519642075
313888,295,-1335,-13,2716,-1254,-7658,1745157274519642075
314080,225,-1279,6,2213,-1538,-7376,1745157274580166991
314272,152,-1180,1,1726,-1577,-6950,1745157274580166991
314464,74,-1059,38,1203,-1562,-6640,1745157274580166991
314656,-21,-909,100,856,-1464,-6354,1745157274580166991
314848,-111,-745,150,666,-1451,-6158,1745157274580166991
315040,-206,-562,195,597,-1466,-5947,1745157274580166991
315232,-301,-367,247,604,-1466,-5729,1745157274580166991
315424,-393,-174,307,698,-1428,-5669,1745157274580166991
315616,-492,14,373,836,-1374,-5415,1745157274580166991
315808,-592,185,439,938,-1275,-5119,1745157274580166991
316000,-691,354,508,1027,-1207,-4905,1745157274580166991
316192,-793,527,579,1045,-1137,-4756,1745157274580166991
316384,-889,702,649,1002,-995,-4651,1745157274653962462
316576,-981,892,721,976,-784,-4574,1745157274653962462
316768,-1068,1089,794,966,-554,-4458,1745157274653962462
316960,-1141,1276,872,1066,-338,-4377,1745157274653962462
317152,-1208,1454,950,1198,-185,-4251,1745157274653962462
317344,-1264,1622,1032,1322,0,-4106,1745157274653962462
317536,-1309,1792,1119,1395,168,-3975,1745157274653962462
317728,-1341,1957,1201,1486,330,-3855,1745157274653962462
317920,-1359,2118,1275,1573,465,-3786,1745157274653962462
318112,-1368,2276,1343,1667,547,-3709,1745157274653962462
318304,-1362,2423,1405,1746,663,-3642,1745157274653962462
318496,-1360,2558,1466,1909,660,-3531,1745157274653962462
318688,-1353,2688,1520,2110,708,-3499,1745157274706881875
318880,-1349,2816,1570,2272,760,-3340,1745157274706881875
319072,-1337,2929,1614,2481,846,-3353,1745157274706881875
319264,-1330,3043,1657,2688,956,-3317,1745157274706881875
319456,-1311,3156,1689,2853,1067,-3297,1745157274706881875
319648,-1286,3275,1724,3043,1240,-3388,1745157274706881875
319840,-1261,3385,1758,3206,1447,-3479,1745157274706881875
320032,-1231,3504,1788,3391,1789,-3584,1745157274706881875
320224,-1205,3627,1815,3571,2186,-3780,1745157274706881875
320416,-1183,3752,1846,3810,2691,-3955,1745157274706881875
320608,-1167,3877,1878,4119,3251,-4125,1745157274706881875
320800,-1164,3990,1905,4496,3861,-4184,1745157274706881875
320992,-1171,4093,1919,4848,4439,-4119,1745157274755832209
321184,-1188,4174,1921,5202,4885,-3932,1745157274755832209
321376,-1195,4224,1918,5576,5215,-3806,1745157274755832209
321568,-1182,4249,1906,5845,5368,-3709,1745157274755832209
321760,-1159,4259,1893,6047,5408,-3719,1745157274755832209
321952,-1130,4260,1874,6238,5438,-3817,1745157274755832209
322144,-1093,4274,1838,6292,5525,-3949,1745157274755832209
322336,-1045,4297,1791,6307,5694,-4078,1745157274755832209
322528,-999,4320,1737,6347,5946,-4137,1745157274755832209
322720,-963,4346,1674,6448,6207,-4070,1745157274755832209
322912,-933,4364,1605,6578,6418,-3910,1745157274755832209
323104,-902,4368,1526,6827,6497,-3774,1745157274755832209
323296,-863,4351,1421,7016,6499,-3718,1745157274820102143
323488,-799,4330,1325,7156,6732,-3606,1745157274820102143
323680,-734,4292,1240,7296,6834,-3456,1745157274820102143
323872,-685,4250,1140,7475,6991,-3371,1745157274820102143
324064,-660,4217,1027,7512,7218,-3232,1745157274820102143
324256,-649,4190,929,7500,7471,-3111,1745157274820102143
324448,-642,4170,849,7459,7751,-2897,1745157274820102143
324640,-633,4151,780,7500,7929,-2684,1745157274820102143
324832,-610,4127,701,7612,8008,-2592,1745157274820102143
325024,-595,4096,612,7793,7982,-2568,1745157274820102143
325216,-575,4055,518,7981,7926,-2603,1745157274820102143
325408,-548,4016,423,8139,7913,-2763,1745157274820102143
325600,-525,3991,328,8289,7877,-3001,1745157274875261274
325792,-517,3964,231,8400,7737,-3205,1745157274875261274
325984,-512,3932,132,8490,7586,-3348,1745157274875261274
326176,-499,3903,31,8519,7480,-3485,1745157274875261274
326368,-486,3879,-72,8494,7477,-3618,1745157274875261274
326560,-488,3865,-179,8472,7558,-3724,1745157274875261274
326752,-508,3856,-290,8479,7661,-3807,1745157274875261274
326944,-541,3841,-404,8518,7761,-3774,1745157274875261274
327136,-573,3820,-508,8530,7824,-3629,1745157274875261274
327328,-583,3781,-601,8645,7843,-3541,1745157274875261274
327520,-580,3742,-694,8696,7852,-3468,1745157274875261274
327712,-569,3706,-781,8783,7818,-3376,1745157274875261274
327904,-544,3664,-864,8896,7707,-3328,1745157274933050434
328096,-508,3613,-952,9011,7635,-3365,1745157274933050434
328288,-472,3563,-1034,9082,7582,-3323,1745157274933050434
328480,-437,3496,-1113,9210,7444,-3280,1745157274933050434
328672,-413,3409,-1207,9349,7318,-3271,1745157274933050434
328864,-402,3317,-1305,9436,7178,-3264,1745157274933050434
329056,-402,3231,-1397,9340,7125,-3317,1745157274933050434
329248,-409,3154,-1471,9238,7028,-3301,1745157274933050434
329440,-419,3073,-1535,9211,6941,-3206,1745157274933050434
329632,-429,2995,-1598,9179,6821,-3119,1745157274933050434
329824,-445,2921,-1666,9130,6717,-3139,1745157274933050434
330016,-469,2855,-1735,9035,6625,-3216,1745157274933050434
330208,-496,2806,-1788,8910,6520,-3268,1745157274991589847
330400,-516,2755,-1829,8896,6399,-3241,1745157274991589847
330592,-529,2700,-1873,8963,6229,-3244,1745157274991589847
330784,-550,2635,-1917,9068,6024,-3148,1745157274991589847
330976,-574,2567,-1949,9155,5836,-3084,1745157274991589847
331168,-606,2503,-1971,9227,5666,-2961,1745157274991589847
331360,-640,2432,-1983,9257,5521,-2771,1745157274991589847
331552,-664,2350,-1990,9321,5406,-2569,1745157274991589847
331744,-680,2257,-2007,9340,5349,-2373,1745157274991589847
331936,-695,2160,-2027,9271,5340,-2173,1745157274991589847
332128,-707,2068,-2038,9151,5425,-2064,1745157274991589847
332320,-716,1983,-2038,9100,5465,-1966,1745157274991589847
332512,-720,1888,-2046,9083,5469,-1809,1745157275049829575
332704,-716,1782,-2057,9083,5427,-1720,1745157275049829575
332896,-705,1668,-2056,9062,5366,-1729,1745157275049829575
333088,-704,1567,-2050,9034,5375,-1757,1745157275049829575
333280,-721,1481,-2058,8952,5326,-1724,1745157275049829575
333472,-742,1396,-2073,8909,5233,-1622,1745157275049829575
333664,-751,1304,-2079,8877,5102,-1461,1745157275049829575
333856,-747,1224,-2083,8802,5090,-1442,1745157275049829575
334048,-743,1155,-2083,8696,5151,-1386,1745157275049829575
334240,-745,1096,-2078,8552,5277,-1352,1745157275049829575
334432,-746,1035,-2065,8480,5425,-1288,1745157275049829575
334624,-734,964,-2055,8409,5557,-1083,1745157275049829575
334816,-701,900,-2050,8353,5744,-979,1745157275152450409
335008,-662,829,-2039,8380,5815,-780,1745157275152450409
335200,-618,756,-2024,8334,5843,-734,1745157275152450409
335392,-577,693,-2004,8230,5779,-774,1745157275152450409
335584,-544,622,-1992,8161,5677,-709,1745157275152450409
335776,-521,549,-1984,8082,5594,-633,1745157275152450409
335968,-517,480,-1975,7965,5548,-498,1745157275152450409
336160,-530,420,-1967,7801,5585,-423,1745157275152450409
336352,-547,369,-1954,7585,5686,-332,1745157275152450409
336544,-545,324,-1943,7399,5777,-241,1745157275152450409
336736,-525,280,-1933,7254,5848,-180,1745157275152450409
336928,-485,226,-1921,7114,5861,-90,1745157275152450409
337120,-438,197,-1912,7060,5910,-157,1745157275164699724
337312,-403,164,-1904,7065,5901,-215,1745157275164699724
337504,-383,123,-1898,7071,5868,-172,1745157275164699724
337696,-368,80,-1898,7028,5834,-97,1745157275164699724
337888,-353,37,-1904,7003,5826,-5,1745157275164699724
338080,-351,-7,-1906,6940,5850,66,1745157275164699724
338272,-362,-42,-1904,6798,5940,13,1745157275164699724
338464,-378,-73,-1884,6650,6042,-89,1745157275164699724
338656,-383,-106,-1857,6570,6117,-57,1745157275164699724
338848,-370,-140,-1838,6504,6153,2,1745157275164699724
339040,-347,-174,-1830,6462,6165,76,1745157275164699724
339232,-323,-198,-1825,6436,6148,69,1745157275164699724
339424,-305,-222,-1817,6480,6046,26,1745157275225537033
339616,-286,-257,-1805,6517,5900,86,1745157275225537033
339808,-267,-305,-1797,6551,5798,161,1745157275225537033
340000,-261,-352,-1792,6460,5735,197,1745157275225537033
340192,-274,-389,-1785,6341,5693,165,1745157275225537033
340384,-298,-421,-1768,6215,5690,186,1745157275225537033
340576,-320,-445,-1742,6131,5747,251,1745157275225537033
340768,-334,-459,-1706,6018,5842,306,1745157275225537033
340960,-325,-470,-1670,5994,5971,364,1745157275225537033
341152,-298,-480,-1635,6038,6048,396,1745157275225537033
341344,-268,-489,-1608,6113,6044,329,1745157275225537033
341536,-239,-500,-1585,6286,5927,297,1745157275225537033
341728,-216,-521,-1559,6459,5736,320,1745157275284799616
341920,-198,-560,-1533,6582,5535,499,1745157275284799616
342112,-187,-612,-1512,6584,5350,715,1745157275284799616
342304,-191,-664,-1497,6452,5229,949,1745157275284799616
342496,-211,-705,-1479,6232,5213,1206,1745157275284799616
342688,-243,-731,-1448,5977,5236,1418,1745157275284799616
342880,-277,-742,-1406,5872,5111,1505,1745157275284799616
343072,-311,-758,-1364,5862,5227,1493,1745157275284799616
343264,-328,-766,-1339,5508,5564,1610,1745157275284799616
343456,-314,-761,-1316,5430,5666,1589,1745157275284799616
343648,-289,-740,-1286,5343,5628,1575,1745157275284799616
343840,-260,-715,-1233,5418,5517,1505,1745157275284799616
344032,-242,-697,-1169,5688,5382,1512,1745157275340921500
344224,-229,-694,-1117,5993,5293,1513,1745157275340921500
344416,-223,-703,-1082,5980,5320,1639,1745157275340921500
344608,-212,-700,-1035,5650,5358,1764,1745157275340921500
344800,-208,-695,-978,5640,5411,1820,1745157275340921500
344992,-208,-690,-932,5562,5500,2020,1745157275340921500
345184,-201,-678,-899,5500,5603,2182,1745157275340921500
345376,-191,-671,-868,5451,5686,2431,1745157275340921500
345568,-157,-636,-841,5024,5964,2626,1745157275340921500
345760,-117,-612,-809,5197,5694,2560,1745157275340921500
345952,-96,-614,-763,5439,5433,2696,1745157275340921500
346144,-63,-607,-723,5315,5562,2978,1745157275340921500
346336,-4,-547,-710,5082,5731,2820,1745157275400866942
346528,22,-552,-683,5287,5654,2846,1745157275400866942
346720,34,-546,-645,5244,5725,3084,1745157275400866942
346912,44,-556,-608,5187,5731,3144,1745157275400866942
347104,32,-561,-565,5194,5766,3277,1745157275400866942
347296,9,-555,-532,5043,5878,3370,1745157275400866942
347488,-12,-547,-509,4821,5931,3448,1745157275400866942
347680,-21,-527,-482,4559,6024,3452,1745157275400866942
347872,-28,-500,-449,4395,6083,3392,1745157275400866942
348064,-30,-471,-423,4309,6124,3391,1745157275400866942
348256,16,-380,-408,3443,6691,3758,1745157275400866942
348448,62,-273,-400,3431,6602,3153,1745157275400866942
348640,37,-283,-358,4100,6115,3235,1745157275459116618
348832,14,-262,-322,4613,5938,3259,1745157275459116618
349024,-4,-249,-295,4691,6153,3340,1745157275459116618
349216,-30,-231,-253,4488,6562,3360,1745157275459116618
349408,-46,-211,-207,3655,7273,3739,1745157275459116618
349600,-35,-149,-181,3551,7386,3415,1745157275459116618
349792,-44,-161,-170,3935,7107,3565,1745157275459116618
349984,-44,-141,-172,3880,6969,3586,1745157275459116618
350176,-37,-119,-156,3792,7012,3547,1745157275459116618
350368,-43,-100,-135,3773,7142,3543,1745157275459116618
350560,-58,-84,-124,3690,7255,3520,1745157275459116618
350752,-62,-61,-123,3541,7327,3458,1745157275459116618
350944,-52,-38,-121,3485,7334,3335,1745157275528137133
351136,-29,-12,-116,3385,7338,3411,1745157275528137133
351328,46,90,-118,2647,7778,3207,1745157275528137133
351520,62,114,-108,3158,7345,2862,1745157275528137133
351712,57,125,-93,3736,6958,2818,1745157275528137133
351904,43,112,-88,4048,6798,2795,1745157275528137133
352096,21,111,-85,4138,6837,2731,1745157275528137133
352288,-18,84,-82,4085,6902,2780,1745157275528137133
352480,-50,58,-78,3899,6983,2857,1745157275528137133
352672,-68,36,-67,3636,7036,2926,1745157275528137133
352864,-74,29,-55,3390,7126,2978,1745157275528137133
353056,-70,43,-45,3219,7158,2927,1745157275528137133
353248,-55,65,-41,3106,7220,2887,1745157275576515285
353440,-29,88,-40,3097,7333,2876,1745157275576515285
353632,8,127,-51,3109,7406,2738,1745157275576515285
353824,26,131,-56,3318,7286,2665,1745157275576515285
354016,41,140,-51,3428,7192,2564,1745157275576515285
354208,54,136,-45,3522,7083,2479,1745157275576515285
354400,54,128,-36,3443,7053,2446,1745157275576515285
354592,51,121,-29,3352,7049,2372,1745157275576515285
354784,42,119,-20,3229,7051,2360,1745157275576515285
354976,37,124,-3,3117,7066,2349,1745157275576515285
355168,35,132,13,3035,7101,2370,1745157275576515285
355360,37,150,23,2983,7158,2321,1745157275576515285
355552,45,159,30,3022,7147,2279,1745157275641895052
355744,55,154,38,3111,7102,2335,1745157275641895052
355936,60,152,44,3143,7095,2299,1745157275641895052
356128,59,153,43,3164,7048,2243,1745157275641895052
356320,59,148,43,3187,6965,2206,1745157275641895052
356512,59,138,42,3199,6887,2214,1745157275641895052
356704,54,127,41,3163,6848,2197,1745157275641895052
356896,49,122,45,3079,6882,2231,1745157275641895052
357088,44,113,53,3047,6975,2285,1745157275641895052
357280,37,110,59,2994,7095,2278,1745157275641895052
357472,25,108,62,2967,7225,2268,1745157275641895052
357664,12,105,62,2964,7315,2251,1745157275641895052
357856,1,103,60,2961,7388,2262,1745157275693680308
358048,-5,101,61,2956,7462,2253,1745157275693680308
358240,-3,96,65,2947,7518,2237,1745157275693680308
358432,7,89,65,2979,7562,2214,1745157275693680308
358624,14,84,61,2965,7580,2164,1745157275693680308
358816,17,81,55,2956,7574,2091,1745157275693680308
359008,20,77,51,2987,7527,2034,1745157275693680308
359200,22,67,49,2999,7441,2025,1745157275693680308
359392,17,54,49,3009,7403,2057,1745157275693680308
359584,4,43,49,2995,7397,2115,1745157275693680308
359776,-9,33,52,2932,7419,2196,1745157275693680308
359968,-17,22,54,2869,7503,2318,1745157275693680308
360160,-18,15,55,2792,7649,2436,1745157275751728893
360352,-13,13,53,2744,7777,2543,1745157275751728893
360544,-2,14,49,2736,7844,2565,1745157275751728893
360736,15,9,40,2776,7810,2532,1745157275751728893
360928,32,-2,28,2838,7711,2527,1745157275751728893
361120,42,-14,15,2899,7561,2520,1745157275751728893
361312,38,-32,4,2960,7391,2535,1745157275751728893
361504,23,-50,-7,2970,7294,2528,1745157275751728893
361696,-3,-59,-17,2968,7315,2436,1745157275751728893
361888,-36,-66,-24,2989,7388,2370,1745157275751728893
362080,-69,-68,-34,2993,7512,2317,1745157275751728893
362272,-102,-65,-42,2997,7660,2249,1745157275751728893
362464,-134,-60,-47,3010,7807,2190,1745157275812275840
362656,-159,-53,-53,3044,7955,2224,1745157275812275840
362848,-168,-43,-57,2989,8114,2282,1745157275812275840
363040,-152,-34,-64,2980,8239,2338,1745157275812275840
363232,-115,-28,-76,2953,8276,2361,1745157275812275840
363424,-71,-28,-89,2955,8216,2367,1745157275812275840
363616,-26,-30,-97,2956,8067,2373,1745157275812275840
363808,12,-38,-97,2976,7848,2432,1745157275812275840
364000,39,-47,-94,2988,7619,2484,1745157275812275840
364192,47,-58,-89,2958,7427,2535,1745157275812275840
364384,40,-64,-84,2870,7234,2587,1745157275812275840
364576,27,-67,-77,2827,7089,2679,1745157275812275840
364768,16,-74,-73,2758,6985,2742,1745157275870354163
364960,7,-79,-65,2690,6877,2739,1745157275870354163
365152,-6,-77,-53,2608,6775,2740,1745157275870354163
365344,-22,-67,-43,2583,6712,2772,1745157275870354163
365536,-38,-59,-38,2603,6686,2819,1745157275870354163
365728,-56,-50,-38,2610,6685,2808,1745157275870354163
365920,-75,-36,-39,2602,6798,2795,1745157275870354163
366112,-84,-16,-42,2632,6923,2720,1745157275870354163
366304,-82,2,-46,2670,7041,2665,1745157275870354163
366496,-64,15,-49,2734,7100,2619,1745157275870354163
366688,-35,28,-49,2767,7154,2508,1745157275870354163
366880,-6,41,-47,2817,7183,2370,1745157275870354163
367072,22,50,-37,2898,7160,2294,1745157275936226999
367264,48,53,-25,2959,7136,2240,1745157275936226999
367456,71,52,-13,3007,7106,2221,1745157275936226999
367648,87,46,-3,3034,7085,2258,1745157275936226999
367840,99,34,10,3046,7069,2347,1745157275936226999
368032,106,24,24,2995,7067,2441,1745157275936226999
368224,105,22,37,2936,7055,2497,1745157275936226999
368416,102,24,46,2908,7037,2521,1745157275936226999
368608,102,27,52,2923,6970,2534,1745157275936226999
368800,103,28,51,2964,6917,2570,1745157275936226999
368992,105,27,45,3010,6862,2577,1745157275936226999
369184,102,17,34,3090,6803,2556,1745157275936226999
369376,89,8,20,3116,6764,2487,1745157275986627737
369568,71,3,11,3103,6797,2432,1745157275986627737
369760,52,0,10,3073,6899,2419,1745157275986627737
369952,32,1,11,3038,7063,2407,1745157275986627737
370144,14,7,12,3030,7288,2404,1745157275986627737
370336,6,11,15,3034,7465,2407,1745157275986627737
370528,5,17,20,3032,7616,2398,1745157275986627737
370720,11,22,26,3067,7701,2378,1745157275986627737
370912,20,24,31,3122,7748,2360,1745157275986627737
371104,36,23,30,3179,7741,2370,1745157275986627737
371296,51,14,27,3215,7666,2428,1745157275986627737
371488,63,6,30,3185,7651,2473,1745157275986627737
371680,72,0,34,3140,7643,2521,1745157276046231255
371872,80,-5,36,3075,7616,2580,1745157276046231255
372064,91,-7,40,3013,7614,2673,1745157276046231255
372256,105,-6,45,2961,7587,2729,1745157276046231255
372448,120,0,53,2928,7607,2762,1745157276046231255
372640,137,13,62,2912,7629,2756,1745157276046231255
372832,160,25,70,2890,7629,2765,1745157276046231255
373024,189,40,78,2869,7707,2784,1745157276046231255
373216,233,63,87,2868,7916,2806,1745157276046231255
373408,296,88,97,2912,8172,2804,1745157276046231255
373600,375,101,103,3004,8383,2775,1745157276046231255
373792,459,101,103,3119,8460,2750,1745157276046231255
373984,544,89,99,3243,8411,2688,1745157276105164675
374176,611,64,99,3320,8182,2631,1745157276105164675
374368,654,39,101,3355,7906,2537,1745157276105164675
374560,669,18,101,3326,7604,2433,1745157276105164675
374752,664,-1,101,3274,7327,2366,1745157276105164675
374944,644,-22,103,3187,7091,2328,1745157276105164675
375136,602,-37,102,3087,6925,2288,1745157276105164675
375328,540,-45,100,3024,6832,2267,1745157276105164675
375520,462,-48,98,2947,6767,2262,1745157276105164675
375712,378,-47,100,2887,6769,2313,1745157276105164675
375904,298,-38,102,2842,6861,2340,1745157276105164675
376096,227,-25,97,2834,6936,2332,1745157276105164675
376288,164,-17,84,2854,7013,2309,1745157276162926647
376480,104,-16,66,2924,7004,2258,1745157276162926647
376672,44,-20,50,2986,6966,2235,1745157276162926647
376864,-15,-23,38,3003,6945,2189,1745157276162926647
377056,-68,-22,28,2974,7007,2180,1745157276162926647
377248,-110,-18,23,2920,7145,2182,1745157276162926647
377440,-135,-16,23,2879,7310,2223,1745157276162926647
377632,-143,-13,23,2891,7478,2229,1745157276162926647
377824,-143,-5,24,2891,7652,2176,1745157276162926647
378016,-132,9,26,2908,7768,2128,1745157276162926647
378208,-105,22,28,2923,7877,2113,1745157276162926647
378400,-63,31,27,2953,7942,2073,1745157276162926647
378592,-17,37,22,2986,7965,2003,1745157276219537588
378784,32,42,16,3038,7917,1964,1745157276219537588
378976,81,42,11,3119,7796,1885,1745157276219537588
379168,120,32,7,3193,7636,1871,1745157276219537588
379360,142,22,1,3201,7463,1923,1745157276219537588
379552,152,10,-4,3175,7359,1984,1745157276219537588
379744,150,2,-2,3123,7222,2038,1745157276219537588
379936,132,-1,1,3077,7071,2063,1745157276219537588
380128,98,-1,5,3058,6948,2062,1745157276219537588
380320,48,2,8,3070,6807,2011,1745157276219537588
380512,-10,12,10,3075,6741,1977,1745157276219537588
380704,-59,25,11,3093,6783,1977,1745157276219537588
380896,-86,40,8,3113,6949,1969,1745157276279807350
381088,-91,53,1,3140,7172,1982,1745157276279807350
381280,-80,65,-2,3181,7372,1992,1745157276279807350
381472,-53,74,1,3271,7516,2020,1745157276279807350
381664,-17,81,3,3352,7616,2000,1745157276279807350
381856,15,87,4,3457,7601,1951,1745157276279807350
382048,45,89,9,3538,7522,1911,1745157276279807350
382240,78,88,15,3621,7437,1927,1745157276279807350
382432,111,91,22,3644,7401,1912,1745157276279807350
382624,140,98,32,3705,7324,1917,1745157276279807350
382816,167,105,43,3750,7223,1945,1745157276279807350
383008,199,109,54,3815,7061,1998,1745157276279807350
383200,235,105,60,3996,6975,2093,1745157276347438972
383392,261,90,56,4074,6792,2160,1745157276347438972
383584,260,80,63,4120,6577,2199,1745157276347438972
383776,237,75,80,4174,6379,2223,1745157276347438972
383968,205,75,100,4196,6254,2250,1745157276347438972
384160,171,75,119,4203,6160,2291,1745157276347438972
384352,139,79,132,4229,6156,2331,1745157276347438972
384544,106,85,144,4255,6226,2382,1745157276347438972
384736,73,98,162,4296,6385,2470,1745157276347438972
384928,48,119,188,4302,6605,2519,1745157276347438972
385120,40,145,214,4327,6854,2559,1745157276347438972
385312,59,166,235,4444,7053,2557,1745157276347438972
385504,106,183,250,4534,7152,2546,1745157276395042964
385696,166,195,265,4691,7153,2465,1745157276395042964
385888,219,201,287,4823,7041,2369,1745157276395042964
386080,259,206,314,4935,6887,2340,1745157276395042964
386272,290,216,340,4962,6763,2338,1745157276395042964
386464,321,227,361,4953,6661,2410,1745157276395042964
386656,359,241,378,4946,6540,2445,1745157276395042964
386848,396,258,399,4965,6396,2392,1745157276395042964
387040,426,278,430,5037,6201,2351,1745157276395042964
387232,442,298,472,5110,6006,2343,1745157276395042964
387424,444,318,519,5220,5875,2369,1745157276395042964
387616,437,334,567,5286,5780,2394,1745157276395042964
387808,423,344,613,5314,5704,2428,1745157276455318090
388000,402,360,658,5346,5630,2413,1745157276455318090
388192,371,377,709,5372,5517,2393,1745157276455318090
388384,338,394,767,5451,5423,2389,1745157276455318090
388576,301,411,822,5553,5358,2356,1745157276455318090
388768,265,429,877,5660,5292,2325,1745157276455318090
388960,234,446,930,5774,5260,2251,1745157276455318090
389152,212,460,986,5890,5214,2153,1745157276455318090
389344,198,472,1044,6013,5165,2013,1745157276455318090
389536,194,480,1099,6158,5125,1876,1745157276455318090
389728,198,477,1153,6287,5096,1742,1745157276455318090
389920,206,471,1210,6423,5093,1618,1745157276455318090
390112,216,458,1263,6570,5021,1469,1745157276514755360
390304,231,432,1315,6704,4885,1314,1745157276514755360
390496,257,398,1374,6767,4794,1167,1745157276514755360
390688,287,364,1434,6802,4655,997,1745157276514755360
390880,317,328,1491,6892,4500,750,1745157276514755360
391072,341,288,1545,7027,4310,451,1745157276514755360
391264,352,248,1605,7172,4101,151,1745157276514755360
391456,358,212,1668,7296,3986,-154,1745157276514755360
391648,356,173,1736,7410,3897,-443,1745157276514755360
391840,354,137,1805,7516,3931,-617,1745157276514755360
392032,349,97,1872,7586,3998,-738,1745157276514755360
392224,334,55,1939,7653,4063,-828,1745157276514755360
392416,316,18,2003,7704,4038,-993,1745157276570138864
392608,300,-25,2070,7815,3942,-1158,1745157276570138864
392800,286,-76,2139,7879,3848,-1329,1745157276570138864
392992,268,-123,2214,7934,3754,-1539,1745157276570138864
393184,246,-166,2292,7903,3702,-1796,1745157276570138864
393376,231,-189,2371,7815,3771,-2095,1745157276570138864
393568,236,-200,2449,7786,3904,-2381,1745157276570138864
393760,284,-220,2531,7588,4291,-2581,1745157276570138864
393952,348,-228,2637,8120,4100,-3081,1745157276570138864
394144,388,-267,2655,8638,3971,-3437,1745157276570138864
394336,437,-343,2683,8689,4251,-3556,1745157276570138864
394528,490,-405,2754,8891,4413,-3750,1745157276570138864
394720,523,-483,2804,9027,4546,-3948,1745157276630725342
394912,537,-570,2850,8994,4744,-4096,1745157276630725342
395104,552,-661,2897,9102,4734,-4035,1745157276630725342
395296,557,-777,2934,9019,4948,-3728,1745157276630725342
395488,553,-862,2992,8900,5202,-3580,1745157276630725342
395680,505,-929,3044,8943,5247,-3417,1745157276630725342
395872,451,-1025,3101,8976,5395,-3347,1745157276630725342
396064,401,-1106,3156,9026,5384,-3384,1745157276630725342
396256,350,-1208,3198,9032,5276,-3581,1745157276630725342
396448,294,-1302,3238,8976,5127,-3997,1745157276630725342
396640,251,-1353,3270,8744,5171,-4504,1745157276630725342
396832,246,-1368,3297,8665,5386,-4880,1745157276630725342
397024,281,-1402,3312,8786,5604,-5299,1745157276705441639
397216,359,-1452,3314,8988,5823,-5666,1745157276705441639
397408,466,-1537,3296,9262,6028,-5956,1745157276705441639
397600,572,-1637,3264,9407,6156,-6144,1745157276705441639
397792,668,-1742,3228,9521,6265,-6227,1745157276705441639
397984,740,-1857,3182,9594,6271,-6104,1745157276705441639
398176,781,-1977,3128,9482,6490,-5764,1745157276705441639
398368,790,-2087,3090,9345,6708,-5388,1745157276705441639
398560,776,-2183,3064,9307,6945,-4973,1745157276705441639
398752,739,-2287,3039,9320,7206,-4402,1745157276705441639
398944,693,-2397,3013,9395,7484,-3824,1745157276705441639
399136,646,-2496,2974,9328,7933,-3491,1745157276705441639
399328,618,-2559,2925,9186,8583,-3300,1745157276753912394
399520,604,-2620,2867,9124,9253,-3287,1745157276753912394
399712,620,-2687,2794,9157,9766,-3491,1745157276753912394
399904,682,-2769,2701,9297,10016,-3828,1745157276753912394
400096,781,-2859,2581,9531,10020,-4212,1745157276753912394
400288,895,-2954,2431,9745,9733,-4631,1745157276753912394
400480,1002,-3060,2267,9859,9175,-5020,1745157276753912394
400672,1098,-3159,2104,9807,8588,-5329,1745157276753912394
400864,1170,-3242,1943,9666,8026,-5577,1745157276753912394
401056,1199,-3318,1787,9489,7507,-5670,1745157276753912394
401248,1187,-3383,1643,9274,7124,-5674,1745157276753912394
401440,1132,-3444,1519,9080,6896,-5411,1745157276753912394
401632,1050,-3512,1421,8963,6906,-4728,1745157276804695576
401824,942,-3555,1344,8783,7324,-3965,1745157276804695576
402016,794,-3561,1284,8696,7973,-3482,1745157276804695576
402208,615,-3554,1229,8729,8602,-3247,1745157276804695576
402400,462,-3559,1167,8763,9139,-3162,1745157276804695576
402592,402,-3576,1089,8824,9621,-3043,1745157276804695576
402784,439,-3612,999,8861,9955,-2854,1745157276804695576
402976,521,-3646,899,9019,10173,-2862,1745157276804695576
403168,612,-3682,785,9234,10163,-3062,1745157276804695576
403360,687,-3728,651,9398,9944,-3291,1745157276804695576
403552,752,-3771,501,9471,9473,-3616,1745157276804695576
403744,813,-3826,332,9474,8971,-3823,1745157276804695576
403936,870,-3870,154,9279,8356,-4087,1745157276864425707
404128,915,-3909,-14,8969,7739,-4238,1745157276864425707
404320,946,-3923,-164,8569,7172,-4375,1745157276864425707
404512,969,-3911,-291,8138,6708,-4519,1745157276864425707
404704,992,-3896,-386,7927,6136,-4677,1745157276864425707
404896,996,-3873,-492,7687,5739,-4646,1745157276864425707
405088,996,-3861,-550,7596,5632,-4621,1745157276864425707
405280,970,-3846,-530,7575,5526,-4439,1745157276864425707
405472,922,-3830,-529,7607,5325,-4376,1745157276864425707
405664,854,-3829,-554,7642,4964,-4210,1745157276864425707
405856,777,-3828,-577,7682,4622,-4174,1745157276864425707
406048,689,-3828,-606,7682,4378,-4136,1745157276864425707
406240,591,-3827,-640,7550,4264,-4070,1745157276923008089
406432,484,-3819,-663,7356,4220,-3969,1745157276923008089
406624,390,-3805,-670,7170,4257,-3866,1745157276923008089
406816,318,-3797,-683,7038,4193,-3890,1745157276923008089
407008,266,-3793,-735,6937,4120,-3912,1745157276923008089
407200,238,-3792,-815,6787,4021,-4081,1745157276923008089
407392,229,-3795,-913,6662,3927,-4215,1745157276923008089
407584,225,-3807,-1012,6441,3815,-4131,1745157276923008089
407776,216,-3822,-1103,6068,3709,-4060,1745157276923008089
407968,208,-3802,-1185,5595,3655,-4104,1745157276923008089
408160,212,-3746,-1255,5061,3623,-4246,1745157276923008089
408352,225,-3666,-1321,4607,3624,-4423,1745157276923008089
408544,235,-3582,-1393,4272,3632,-4647,1745157276988067495
408736,226,-3501,-1466,4147,3585,-4812,1745157276988067495
408928,214,-3430,-1527,4131,3528,-4907,1745157276988067495
409120,222,-3368,-1562,4133,3440,-5000,1745157276988067495
409312,249,-3305,-1576,4147,3317,-5124,1745157276988067495
409504,273,-3238,-1581,4203,3145,-5221,1745157276988067495
409696,295,-3168,-1586,4151,3030,-5234,1745157276988067495
409888,315,-3104,-1585,4232,2809,-5170,1745157276988067495
410080,321,-3034,-1627,4101,2584,-5179,1745157276988067495
410272,339,-2945,-1670,3810,2665,-5290,1745157276988067495
410464,365,-2873,-1667,3532,2676,-5257,1745157276988067495
410656,382,-2783,-1661,3216,2742,-5211,1745157276988067495
410848,392,-2689,-1674,3078,2644,-5401,1745157277037826050
411040,401,-2606,-1694,2907,2542,-5408,1745157277037826050
411232,410,-2536,-1709,2787,2383,-5531,1745157277037826050
411424,415,-2455,-1723,2551,2235,-5592,1745157277037826050
411616,423,-2369,-1728,2339,2064,-5597,1745157277037826050
411808,429,-2280,-1723,2150,1911,-5541,1745157277037826050
412000,430,-2188,-1717,1970,1715,-5532,1745157277037826050
412192,430,-2086,-1705,1766,1525,-5491,1745157277037826050
412384,430,-1988,-1688,1630,1350,-5424,1745157277037826050
412576,429,-1891,-1669,1511,1166,-5441,1745157277037826050
412768,413,-1793,-1644,1406,989,-5320,1745157277037826050
412960,393,-1711,-1620,1449,803,-5574,1745157277037826050
413152,344,-1592,-1588,1443,631,-5585,1745157277116586893
413344,293,-1480,-1542,1358,521,-5425,1745157277116586893
413536,261,-1371,-1489,1205,561,-5501,1745157277116586893
413728,240,-1246,-1445,1166,521,-5782,1745157277116586893
413920,227,-1117,-1416,1118,605,-5852,1745157277116586893
414112,236,-1005,-1362,1079,765,-5775,1745157277116586893
414304,272,-897,-1290,1011,944,-5741,1745157277116586893
414496,330,-797,-1222,998,992,-5797,1745157277116586893
414688,394,-703,-1171,1019,881,-5986,1745157277116586893
414880,460,-615,-1119,1039,718,-6036,1745157277116586893
415072,527,-545,-1060,1113,545,-6104,1745157277116586893
415264,589,-472,-998,1141,347,-6056,1745157277116586893
415456,643,-410,-933,1211,101,-6063,1745157277167103932
415648,684,-345,-874,1217,-179,-6044,1745157277167103932
415840,706,-291,-824,1172,-613,-6003,1745157277167103932
416032,711,-252,-778,1139,-1055,-6068,1745157277167103932
416224,696,-205,-729,1049,-1364,-6125,1745157277167103932
416416,663,-139,-692,826,-1584,-6318,1745157277167103932
416608,611,-52,-649,641,-1664,-6538,1745157277167103932
416800,561,54,-611,636,-1524,-6855,1745157277167103932
416992,500,159,-574,625,-1428,-6993,1745157277167103932
417184,433,259,-508,732,-1313,-7090,1745157277167103932
417376,367,344,-422,994,-1106,-7226,1745157277167103932
417568,306,434,-345,1266,-824,-7167,1745157277167103932
417760,261,509,-277,1471,-555,-6939,1745157277213539549
417952,235,564,-223,1719,-305,-6908,1745157277213539549
418144,212,615,-181,1903,-185,-6726,1745157277213539549
418336,205,644,-141,2030,-173,-6565,1745157277213539549
418528,207,656,-98,2111,-331,-6424,1745157277213539549
418720,207,655,-53,2205,-624,-6356,1745157277213539549
418912,198,644,-13,2240,-937,-6314,1745157277213539549
419104,185,636,21,2219,-1180,-6333,1745157277213539549
419296,164,632,41,2196,-1299,-6429,1745157277213539549
419488,128,635,40,2202,-1347,-6576,1745157277213539549
419680,78,644,19,2226,-1289,-6748,1745157277213539549
419872,31,651,-8,2221,-1152,-6918,1745157277213539549
420064,1,658,-31,2235,-882,-7177,1745157277282584908
420256,-19,668,-45,2256,-521,-7479,1745157277282584908
420448,-35,679,-51,2314,-172,-7700,1745157277282584908
420640,-42,692,-48,2391,124,-7897,1745157277282584908
420832,-35,706,-43,2487,356,-8069,1745157277282584908
421024,-13,720,-32,2575,548,-8115,1745157277282584908
421216,22,728,-12,2675,669,-8139,1745157277282584908
421408,64,726,22,2747,701,-8204,1745157277282584908
421600,101,729,64,2736,704,-8285,1745157277282584908
421792,127,736,111,2724,613,-8253,1745157277282584908
421984,141,742,157,2719,425,-8063,1745157277282584908
422176,142,749,195,2716,161,-7856,1745157277282584908
422368,128,747,228,2700,-168,-7658,1745157277330084006
422560,97,745,258,2648,-535,-7432,1745157277330084006
422752,48,727,285,2635,-919,-7159,1745157277330084006
422944,-14,701,303,2583,-1246,-6934,1745157277330084006
423136,-82,666,311,2515,-1477,-6887,1745157277330084006
423328,-166,621,313,2465,-1572,-6882,1745157277330084006
423520,-249,587,298,2329,-1438,-6942,1745157277330084006
423712,-328,578,269,2218,-1188,-7065,1745157277330084006
423904,-387,579,244,2131,-775,-7078,1745157277330084006
424096,-420,590,229,2110,-305,-7137,1745157277330084006
424288,-427,604,223,2145,174,-7129,1745157277330084006
424480,-398,610,222,2254,596,-7304,1745157277330084006
424672,-343,618,220,2414,919,-7447,1745157277387336972
424864,-274,612,215,2621,1125,-7583,1745157277387336972
425056,-205,589,210,2800,1201,-7705,1745157277387336972
425248,-137,565,206,2970,1174,-7749,1745157277387336972
425440,-61,536,215,3061,1099,-7803,1745157277387336972
425632,20,474,237,3081,953,-7857,1745157277387336972
425824,102,410,261,3038,813,-7956,1745157277387336972
426016,177,349,289,2950,704,-8130,1745157277387336972
426208,237,286,321,2826,598,-8351,1745157277387336972
426400,279,221,351,2727,427,-8567,1745157277387336972
426592,302,142,370,2677,192,-8781,1745157277387336972
426784,308,54,375,2693,-7,-9293,1745157277387336972
426976,282,-28,378,2877,-258,-9848,1745157277507215461
427168,226,-115,368,3115,-423,-10299,1745157277507215461
427360,149,-212,339,3287,-476,-10517,1745157277507215461
427552,60,-307,292,3411,-369,-10525,1745157277507215461
427744,-39,-385,233,3409,-165,-10403,1745157277507215461
427936,-143,-429,171,3190,37,-10140,1745157277507215461
428128,-225,-446,120,2896,270,-9802,1745157277507215461
428320,-281,-449,85,2482,471,-9447,1745157277507215461
428512,-311,-426,62,2019,624,-9180,1745157277507215461
428704,-323,-368,47,1525,730,-8846,1745157277507215461
428896,-311,-303,44,1051,792,-8586,1745157277507215461
429088,-287,-225,58,729,720,-8399,1745157277507215461
429280,-263,-140,93,542,573,-8256,1745157277516440428
429472,-241,-64,145,502,413,-8260,1745157277516440428
429664,-222,3,189,614,319,-8306,1745157277516440428
429856,-215,57,206,809,343,-8303,1745157277516440428
430048,-209,93,193,1026,408,-8209,1745157277516440428
430240,-188,103,155,1288,576,-8184,1745157277516440428
430432,-143,85,101,1469,712,-8111,1745157277516440428
430624,-79,54,51,1583,735,-8006,1745157277516440428
430816,-6,22,20,1578,657,-7957,1745157277516440428
431008,62,-7,6,1505,490,-7925,1745157277516440428
431200,113,-34,5,1398,274,-7871,1745157277516440428
431392,145,-59,9,1265,6,-7853,1745157277516440428
431776,153,-85,20,973,-423,-7966,1745157277576057488
431968,134,-81,14,904,-541,-8016,1745157277576057488
432160,103,-70,3,826,-528,-8034,1745157277576057488
432352,66,-52,-9,714,-388,-8100,1745157277576057488
432544,33,-27,-12,638,-161,-8272,1745157277576057488
432736,-6,5,-7,599,49,-8436,1745157277576057488
432928,-40,40,3,614,333,-8554,1745157277576057488
433120,-54,66,9,653,608,-8571,1745157277576057488
433312,-50,88,11,808,840,-8567,1745157277576057488
433504,-30,105,8,1048,993,-8626,1745157277576057488
433696,-6,112,-1,1250,1069,-8528,1745157277576057488
433888,14,108,-8,1377,1035,-8419,1745157277576057488
434080,20,92,-4,1426,987,-8368,1745157277627020981
434272,23,68,3,1387,903,-8243,1745157277627020981
434464,26,45,7,1266,803,-8151,1745157277627020981
434656,25,34,9,1099,684,-8132,1745157277627020981
434848,17,37,7,949,601,-8142,1745157277627020981
435040,9,49,5,813,517,-8097,1745157277627020981
435232,2,65,6,775,461,-8007,1745157277627020981
435424,-5,77,9,776,431,-7937,1745157277627020981
435616,-5,90,11,835,368,-7902,1745157277627020981
435808,-4,98,11,898,321,-7863,1745157277627020981
436000,-4,100,12,987,281,-7841,1745157277627020981
436192,-4,95,11,1064,257,-7839,1745157277627020981
436384,-1,82,8,1131,209,-7856,1745157277703880226
436576,7,65,2,1160,163,-7899,1745157277703880226
436768,14,50,-6,1158,138,-7945,1745157277703880226
436960,17,36,-12,1138,115,-8011,1745157277703880226
437152,20,23,-16,1103,64,-8048,1745157277703880226
437344,15,13,-18,1070,18,-8073,1745157277703880226
437536,5,7,-15,1040,1,-8072,1745157277703880226
437728,-9,2,-10,1020,65,-8021,1745157277703880226
437920,-22,-1,-6,1016,137,-8025,1745157277703880226
438112,-34,2,-6,1009,271,-8030,1745157277703880226
438304,-42,7,-7,1029,400,-7997,1745157277703880226
438496,-44,13,-9,1056,512,-7981,1745157277703880226
438688,-39,15,-12,1083,611,-8003,1745157277814324686
438880,-29,12,-15,1111,637,-8042,1745157277814324686
439072,-18,8,-17,1132,627,-8068,1745157277814324686
439264,-9,1,-15,1157,568,-8075,1745157277814324686
439456,1,-8,-10,1155,484,-8116,1745157277814324686
439648,3,-17,-5,1092,424,-8148,1745157277814324686
439840,-4,-22,0,1044,365,-8184,1745157277814324686
440032,-15,-39,3,701,180,-7260,1745157277814324686
440224,-143,-114,20,405,-2447,-7041,1745157277814324686
440416,-737,101,-146,-1278,-6572,-9395,1745157277814324686
440608,-1040,307,-346,252,-4044,-8305,1745157277814324686
440800,-835,172,-253,944,996,-6911,1745157277814324686
440992,-662,271,-63,9,2666,-6862,1745157277821793108
441184,-520,377,3,57,2831,-7376,1745157277821793108
441376,-411,393,-21,1341,2938,-7647,1745157277821793108
441568,-308,332,-49,2326,2903,-7685,1745157277821793108
441760,-184,200,-84,2672,2641,-7712,1745157277821793108
441952,-26,83,-91,2898,2260,-7751,1745157277821793108
442144,157,-20,-45,2988,1852,-7468,1745157277821793108
442336,581,-105,-18,2523,1122,-6962,1745157277821793108
442528,662,-186,12,1943,1992,-9060,1745157277821793108
442720,578,-270,68,1444,1746,-7848,1745157277821793108
442912,542,-283,47,1177,1531,-8668,1745157277821793108
443104,395,-253,16,986,723,-8087,1745157277821793108
443680,275,-199,-4,996,-314,-8450,1745157279392704591
503584,-24,47,2,892,394,-7553,1745157279392704591
503776,-74,-40,-13,899,503,-8218,1745157279392704591
503968,-55,-41,-8,797,558,-8020,1745157279392704591
504160,-52,-17,-1,839,465,-8207,1745157279392704591
504352,-78,-28,-4,892,450,-8179,1745157279392704591
504544,-74,-18,-10,876,444,-8156,1745157279392704591
504736,-81,-14,-14,836,461,-8156,1745157279392704591
504928,-83,-13,-18,864,518,-8119,1745157279392704591
505120,-72,-6,-16,883,608,-8082,1745157279392704591
505312,-74,-15,-11,981,620,-8040,1745157279392704591
505504,-70,-29,-8,1060,601,-8036,1745157279392704591
505696,-69,-39,-7,1046,580,-8025,1745157279448664600
505888,-73,-45,-6,949,566,-8045,1745157279448664600
506080,-73,-44,-7,842,590,-8038,1745157279448664600
506272,-75,-38,-6,766,599,-8066,1745157279448664600
506464,-78,-34,-4,732,617,-8085,1745157279448664600
506656,-80,-25,-3,758,601,-8123,1745157279448664600
506848,-87,-16,-3,768,572,-8160,1745157279448664600
507040,-93,-9,-3,791,600,-8187,1745157279448664600
507232,-99,1,-1,805,612,-8229,1745157279448664600
507424,-103,9,1,763,665,-8276,1745157279448664600
507616,-100,23,3,701,740,-8324,1745157279448664600
507808,-98,42,4,638,760,-8398,1745157279448664600
508000,-94,61,7,665,783,-8443,1745157279521656746
508192,-83,75,16,761,931,-8471,1745157279521656746
508384,-68,88,24,770,1027,-8519,1745157279521656746
508576,-52,103,30,753,1038,-8564,1745157279521656746
508768,-33,122,34,739,1089,-8587,1745157279521656746
508960,-8,135,46,816,1143,-8593,1745157279521656746
509152,19,140,63,936,1120,-8628,1745157279521656746
509344,41,125,82,1165,1050,-8635,1745157279521656746
509536,57,93,92,1393,989,-8457,1745157279521656746
509728,-53,11,70,1552,-612,-9174,1745157279521656746
509920,18,48,33,1850,1868,-8061,1745157279521656746
510112,161,-25,32,1739,1478,-8008,1745157279521656746
510304,301,29,-36,1746,939,-8413,1745157279632821251
510496,332,-10,-113,1802,712,-8100,1745157279632821251
510688,267,-38,-126,1691,1152,-8476,1745157279632821251
510880,-573,-143,29,4389,-4366,-10161,1745157279632821251
511072,-1079,-489,-202,5095,-7892,-5923,1745157279632821251
511264,-587,-774,-540,3981,-4857,-8884,1745157279632821251
511456,-915,-782,-627,2215,-3318,-8598,1745157279632821251
511648,-1000,-666,-761,910,-1218,-8796,1745157279632821251
511840,-1052,-542,-863,-185,346,-8902,1745157279632821251
512032,-1100,-418,-842,-759,1196,-8886,1745157279632821251
512224,-1080,-275,-716,-786,1798,-8570,1745157279632821251
512416,-1026,-183,-547,-170,1972,-8254,1745157279632821251
512608,-1014,-107,-396,551,2034,-8099,1745157279651520195
512800,-1017,-39,-284,1417,2038,-8196,1745157279651520195
512992,-999,7,-233,1965,2007,-8663,1745157279651520195
513184,-961,84,-248,2302,1693,-9186,1745157279651520195
513376,-976,133,-289,2474,929,-8686,1745157279651520195
513568,-991,174,-368,2402,391,-9149,1745157279651520195
513760,-1028,218,-482,1950,356,-9216,1745157279651520195
513952,-1046,300,-600,1448,784,-9259,1745157279651520195
514144,-1030,411,-697,1259,1318,-9220,1745157279651520195
514336,-999,465,-771,1694,1618,-9108,1745157279651520195
514528,-1004,383,-822,2669,1542,-8684,1745157279651520195
514720,-1021,193,-848,4021,1391,-8940,1745157279651520195
514912,-1141,-7,-862,5258,1455,-9509,1745157279686385241
515104,-1296,-276,-896,6013,1618,-10038,1745157279686385241
515296,-1358,-553,-1016,6103,2095,-10496,1745157279686385241
515488,-1361,-704,-1157,5646,2740,-11083,1745157279686385241
515680,-1328,-786,-1260,5171,2920,-10626,1745157279686385241
515872,-1232,-953,-1322,4495,2199,-8830,1745157279686385241
516064,-1045,-1143,-1314,3653,1778,-8141,1745157279686385241
516256,-943,-1307,-1230,3156,1630,-8069,1745157279686385241
516448,-938,-1335,-1141,2637,2221,-8115,1745157279686385241
516640,-1024,-1286,-1069,2270,3249,-8046,1745157279686385241
516832,-1136,-1257,-1013,2256,4187,-7460,1745157279686385241
517024,-1235,-1186,-878,2766,4764,-7072,1745157279686385241
517216,-1208,-1175,-745,3336,5320,-6876,1745157279740673808
517408,-943,-1326,-638,3453,5786,-6273,1745157279740673808
517600,-535,-1567,-560,3813,5652,-6695,1745157279740673808
517792,-221,-1712,-549,3956,4922,-6957,1745157279740673808
517984,12,-1839,-519,3959,3599,-7098,1745157279740673808
518176,258,-1972,-435,3680,2442,-7384,1745157279740673808
518368,411,-2059,-308,3028,1448,-7567,1745157279740673808
518560,437,-2042,-185,2256,759,-7541,1745157279740673808
518752,400,-1976,-87,1571,307,-7353,1745157279740673808
518944,339,-1873,8,897,-91,-7023,1745157279740673808
519136,263,-1724,107,435,-355,-6679,1745157279740673808
519328,180,-1549,204,291,-511,-6487,1745157279740673808
519520,83,-1369,298,470,-621,-6322,1745157279808346315
519712,-21,-1190,392,730,-717,-6063,1745157279808346315
519904,-121,-1024,487,1051,-741,-5988,1745157279808346315
520096,-218,-859,577,1256,-734,-5867,1745157279808346315
520288,-315,-699,665,1318,-742,-5569,1745157279808346315
520480,-404,-559,748,1368,-692,-5302,1745157279808346315
520672,-471,-432,818,1445,-579,-5100,1745157279808346315
520864,-529,-341,897,1280,-655,-4807,1745157279808346315
521056,-584,-221,992,1083,-701,-4622,1745157279808346315
521248,-625,-88,1089,1061,-668,-4696,1745157279808346315
521440,-669,64,1181,1040,-697,-4472,1745157279808346315
521632,-709,205,1266,1077,-673,-4286,1745157279808346315
521824,-737,328,1360,1223,-593,-4159,1745157279858363514
522016,-758,449,1462,1353,-478,-3904,1745157279858363514
522208,-775,577,1564,1347,-336,-3473,1745157279858363514
522400,-771,676,1673,1430,-104,-3427,1745157279858363514
522592,-778,805,1784,1405,41,-3247,1745157279858363514
522784,-781,943,1901,1402,279,-3061,1745157279858363514
522976,-780,1088,2019,1493,486,-2891,1745157279858363514
523168,-777,1228,2122,1585,699,-2769,1745157279858363514
523360,-775,1354,2227,1739,843,-2657,1745157279858363514
523552,-771,1473,2335,1890,968,-2628,1745157279858363514
523744,-766,1597,2439,1997,1174,-2662,1745157279858363514
523936,-761,1721,2542,2031,1328,-2693,1745157279858363514
524128,-756,1851,2644,2054,1517,-2713,1745157279937635394
524320,-750,1983,2742,2110,1691,-2780,1745157279937635394
524512,-747,2115,2840,2158,1859,-2856,1745157279937635394
524704,-748,2247,2942,2222,2033,-2966,1745157279937635394
524896,-753,2384,3050,2306,2241,-3155,1745157279937635394
525088,-759,2534,3162,2374,2529,-3455,1745157279937635394
525280,-765,2699,3276,2445,3010,-3713,1745157279937635394
525472,-768,2880,3387,2638,3697,-3902,1745157279937635394
525664,-772,3067,3484,2763,4391,-3932,1745157279937635394
525856,-769,3249,3589,2896,4986,-3852,1745157279937635394
526048,-745,3423,3702,3085,5597,-3802,1745157279937635394
526240,-697,3587,3802,3263,6112,-3634,1745157279937635394
526432,-629,3732,3888,3529,6388,-3491,1745157279988231546
526624,-566,3848,3962,3828,6420,-3265,1745157279988231546
526816,-505,3933,4020,4157,6068,-3022,1745157279988231546
527008,-446,3983,4066,4528,5555,-2757,1745157279988231546
527200,-401,4031,4053,4900,5151,-2468,1745157279988231546
527392,-357,4055,3963,5295,4683,-2305,1745157279988231546
527584,-331,4055,3827,5673,4310,-2235,1745157279988231546
527776,-350,4048,3660,6150,4059,-2313,1745157279988231546
527968,-407,4055,3481,6623,4209,-2298,1745157279988231546
528160,-482,4057,3307,7164,4553,-2267,1745157279988231546
528352,-567,4041,3115,7665,5007,-2300,1745157279988231546
528544,-652,4045,2894,7891,5817,-2319,1745157279988231546
528736,-718,4075,2698,8093,6877,-2278,1745157280037135006
528928,-735,4093,2532,8198,7945,-2145,1745157280037135006
529120,-663,4123,2400,8174,9273,-2214,1745157280037135006
529312,-560,4175,2308,8160,10519,-2169,1745157280037135006
529504,-414,4226,2249,8221,11534,-2147,1745157280037135006
529696,-243,4264,2200,8360,12125,-2133,1745157280037135006
529888,-50,4289,2135,8458,12291,-2147,1745157280037135006
530080,152,4299,2044,8533,12009,-2146,1745157280037135006
530272,339,4297,1926,8532,11287,-2176,1745157280037135006
530464,497,4300,1802,8444,10414,-2153,1745157280037135006
530656,625,4301,1696,8311,9383,-2251,1745157280037135006
530848,716,4313,1613,8311,8342,-2303,1745157280037135006
531040,755,4327,1519,8418,7551,-2456,1745157280091229928
531232,741,4341,1405,8604,7107,-2580,1745157280091229928
531424,678,4349,1270,9020,6815,-2634,1745157280091229928
531616,576,4347,1087,9607,6690,-2632,1745157280091229928
531808,458,4326,841,10102,6772,-2592,1745157280091229928
532000,348,4287,569,10455,7084,-2521,1745157280091229928
532192,264,4235,304,10684,7605,-2493,1745157280091229928
532384,198,4171,57,10802,8253,-2453,1745157280091229928
532576,151,4105,-164,10764,8887,-2461,1745157280091229928
532768,121,4055,-357,10612,9381,-2450,1745157280091229928
532960,109,4016,-524,10496,9621,-2591,1745157280091229928
533152,121,3976,-674,10532,9556,-2761,1745157280091229928
533344,142,3923,-827,10456,9308,-2784,1745157280151559117
533536,165,3901,-975,10318,8953,-2746,1745157280151559117
533728,173,3883,-1096,10188,8514,-2929,1745157280151559117
533920,159,3863,-1195,9974,8085,-3155,1745157280151559117
534112,128,3857,-1274,9867,7596,-3368,1745157280151559117
534304,87,3842,-1340,9904,7116,-3484,1745157280151559117
534496,42,3821,-1405,10002,6696,-3434,1745157280151559117
534688,2,3794,-1476,10154,6389,-3454,1745157280151559117
534880,-40,3769,-1558,10237,6245,-3501,1745157280151559117
535072,-86,3734,-1646,10225,6111,-3486,1745157280151559117
535264,-125,3690,-1729,10182,6055,-3385,1745157280151559117
535456,-155,3630,-1810,10130,6058,-3133,1745157280151559117
535648,-176,3570,-1887,10004,6151,-2986,1745157280209946292
535840,-193,3513,-1949,9913,6226,-2760,1745157280209946292
536032,-205,3436,-2007,9922,6236,-2505,1745157280209946292
536224,-202,3360,-2065,9945,6278,-2545,1745157280209946292
536416,-187,3292,-2108,9928,6335,-2663,1745157280209946292
536608,-166,3209,-2129,9921,6345,-2482,1745157280209946292
536800,-135,3119,-2145,9920,6281,-2195,1745157280209946292
536992,-101,3021,-2163,9914,6193,-2054,1745157280209946292
537184,-86,2921,-2186,9911,6134,-2074,1745157280209946292
537376,-89,2835,-2206,9845,6108,-2019,1745157280209946292
537568,-94,2751,-2211,9811,5959,-1932,1745157280209946292
537760,-105,2652,-2209,9858,5694,-1845,1745157280209946292
537952,-115,2540,-2202,9912,5367,-1721,1745157280268252322
538144,-127,2436,-2192,9936,5045,-1610,1745157280268252322
538336,-161,2332,-2174,9913,4749,-1513,1745157280268252322
538528,-219,2218,-2152,9832,4480,-1387,1745157280268252322
538720,-290,2102,-2130,9697,4243,-1230,1745157280268252322
538912,-360,1987,-2109,9527,4076,-1118,1745157280268252322
539104,-418,1869,-2088,9330,4000,-1058,1745157280268252322
539296,-455,1767,-2077,9145,4054,-1034,1745157280268252322
539488,-478,1668,-2076,8966,4192,-1049,1745157280268252322
539680,-492,1575,-2072,8825,4362,-955,1745157280268252322
539872,-479,1479,-2055,8729,4556,-740,1745157280268252322
540064,-431,1371,-2021,8665,4756,-520,1745157280268252322
540256,-366,1274,-1989,8629,4942,-456,1745157280340446298
540448,-312,1185,-1975,8626,5028,-447,1745157280340446298
540640,-277,1100,-1975,8674,5036,-497,1745157280340446298
540832,-255,999,-1971,8696,4936,-451,1745157280340446298
541024,-222,895,-1954,8641,4870,-457,1745157280340446298
541216,-182,796,-1930,8533,4867,-501,1745157280340446298
541408,-146,710,-1923,8422,4920,-543,1745157280340446298
541600,-122,629,-1931,8249,4965,-596,1745157280340446298
541792,-103,558,-1934,8014,4984,-706,1745157280340446298
541984,-82,482,-1917,7811,4985,-755,1745157280340446298
542176,-54,408,-1880,7580,4964,-768,1745157280340446298
542368,-25,346,-1836,7373,4918,-826,1745157280340446298
542560,-3,281,-1788,7200,4879,-763,1745157280388667836
542752,10,224,-1739,7132,4846,-523,1745157280388667836
542944,8,166,-1702,7093,4872,-276,1745157280388667836
543136,-8,123,-1671,7020,4931,-203,1745157280388667836
543328,-30,82,-1646,6950,5012,-176,1745157280388667836
543520,-41,41,-1623,6926,5093,-140,1745157280388667836
543712,-38,-5,-1602,6955,5102,-55,1745157280388667836
543904,-30,-56,-1578,7043,5064,-36,1745157280388667836
544096,-30,-106,-1548,7175,4999,-19,1745157280388667836
544288,-61,-165,-1518,7272,4924,128,1745157280388667836
544480,-107,-224,-1493,7281,4926,304,1745157280388667836
544672,-152,-279,-1480,7224,4990,435,1745157280388667836
544864,-187,-331,-1482,7115,5073,518,1745157280448866714
545056,-213,-383,-1495,7008,5159,614,1745157280448866714
545248,-226,-431,-1499,6890,5223,748,1745157280448866714
545440,-224,-461,-1487,6737,5298,742,1745157280448866714
545632,-232,-477,-1465,6706,5302,687,1745157280448866714
545824,-250,-488,-1439,6702,5265,654,1745157280448866714
546016,-269,-503,-1413,6746,5212,713,1745157280448866714
546208,-278,-526,-1387,6771,5211,876,1745157280448866714
546400,-279,-558,-1361,6793,5235,1137,1745157280448866714
546592,-271,-597,-1335,6726,5357,1477,1745157280448866714
546784,-260,-624,-1316,6561,5555,1713,1745157280448866714
546976,-248,-643,-1300,6384,5758,1866,1745157280448866714
547168,-227,-650,-1286,6211,5880,2031,1745157280503118770
547360,-188,-659,-1268,6119,5915,2214,1745157280503118770
547552,-139,-672,-1250,6068,5852,2327,1745157280503118770
547744,-97,-687,-1233,6074,5722,2438,1745157280503118770
547936,-79,-695,-1220,6077,5538,2533,1745157280503118770
548128,-93,-695,-1208,6059,5328,2683,1745157280503118770
548320,-121,-694,-1195,5941,5261,2812,1745157280503118770
548512,-145,-692,-1180,5791,5316,2953,1745157280503118770
548704,-162,-683,-1169,5536,5495,3027,1745157280503118770
548896,-177,-662,-1158,5291,5592,3064,1745157280503118770
549088,-185,-634,-1145,5157,5642,3089,1745157280503118770
549280,-191,-602,-1134,4996,5649,3147,1745157280503118770
549472,-197,-561,-1118,4904,5674,3213,1745157280566097049
549664,-207,-521,-1088,4784,5849,3275,1745157280566097049
549856,-206,-476,-1053,4592,6117,3383,1745157280566097049
550048,-179,-430,-1029,4428,6375,3532,1745157280566097049
550240,-133,-384,-1018,4261,6577,3623,1745157280566097049
550432,-74,-334,-1005,4066,6753,3738,1745157280566097049
550624,-9,-285,-985,3898,6811,3850,1745157280566097049
550816,57,-231,-959,3795,6786,3892,1745157280566097049
551008,113,-177,-941,3789,6670,3910,1745157280566097049
551200,154,-119,-920,3855,6394,3833,1745157280566097049
551392,174,-80,-890,4059,6156,3792,1745157280566097049
551584,171,-56,-853,4201,6022,3844,1745157280566097049
551776,178,28,-832,3995,6014,3770,1745157280618599434
551968,162,59,-815,4124,5916,3552,1745157280618599434
552160,134,92,-793,4313,5858,3349,1745157280618599434
552352,102,110,-775,4240,6074,3362,1745157280618599434
552544,75,149,-761,4339,6114,3152,1745157280618599434
552736,42,161,-739,4466,6189,3120,1745157280618599434
552928,5,157,-719,4721,6188,2946,1745157280618599434
553120,-33,137,-707,4712,6327,3209,1745157280618599434
553312,-55,169,-711,4488,6477,2884,1745157280618599434
553504,-88,120,-698,4837,6222,2685,1745157280618599434
553696,-132,67,-676,5160,6039,2701,1745157280618599434
553888,-140,30,-662,5026,6185,2799,1745157280618599434
554080,-85,77,-668,3455,7202,3372,1745157280678286805
554272,-21,150,-682,3744,7002,2608,1745157280678286805
554464,-57,82,-644,4540,6307,2582,1745157280678286805
554656,-38,92,-587,4339,6524,2811,1745157280678286805
554848,-16,99,-560,4583,6534,2336,1745157280678286805
555040,-34,58,-552,4966,6392,2272,1745157280678286805
555232,-64,-8,-531,5224,6300,2276,1745157280678286805
555424,-99,-91,-502,5234,6283,2430,1745157280678286805
555616,-140,-139,-481,4962,6480,2479,1745157280678286805
555808,-130,-120,-475,3855,7164,2892,1745157280678286805
556000,-124,-111,-468,3761,7094,2518,1745157280678286805
556192,-129,-151,-437,4104,6666,2555,1745157280678286805
556384,-126,-151,-397,4290,6431,2462,1745157280751282909
556576,-107,-144,-377,4354,6413,2370,1745157280751282909
556768,-100,-128,-374,4336,6480,2257,1745157280751282909
556960,-98,-130,-362,4267,6521,2295,1745157280751282909
557152,-85,-132,-339,4223,6517,2354,1745157280751282909
557344,-66,-129,-321,4153,6561,2558,1745157280751282909
557536,0,-77,-336,3519,7254,2665,1745157280751282909
557728,27,-84,-352,4008,6738,2553,1745157280751282909
557920,5,-116,-331,4303,6313,2762,1745157280751282909
558112,-25,-136,-294,4417,6021,2759,1745157280751282909
558304,-61,-154,-258,4220,6134,2901,1745157280751282909
558496,-84,-153,-241,3862,6378,2961,1745157280751282909
558688,-89,-147,-244,3561,6484,3014,1745157280799538771
558880,-79,-132,-247,3399,6417,2984,1745157280799538771
559072,-60,-118,-239,3372,6319,2952,1745157280799538771
559264,-42,-97,-223,3429,6318,2914,1745157280799538771
559456,-30,-86,-199,3504,6305,2911,1745157280799538771
559648,-18,-80,-174,3525,6323,2853,1745157280799538771
559840,-15,-78,-157,3451,6286,2833,1745157280799538771
560032,-21,-76,-136,3340,6313,2869,1745157280799538771
560224,-26,-66,-107,3182,6384,2941,1745157280799538771
560416,-24,-57,-74,3112,6475,2959,1745157280799538771
560608,-23,-50,-47,3102,6530,2956,1745157280799538771
560800,-24,-47,-25,3100,6576,2950,1745157280799538771
560992,-26,-45,-2,3062,6592,2918,1745157280852944168
561184,-25,-42,20,3043,6611,2907,1745157280852944168
561376,-16,-39,36,2965,6655,2943,1745157280852944168
561568,5,-32,50,2871,6719,2982,1745157280852944168
561760,35,-29,65,2828,6760,3082,1745157280852944168
561952,68,-30,74,2789,6797,3151,1745157280852944168
562144,92,-24,83,2752,6821,3155,1745157280852944168
562336,107,-16,97,2767,6818,3110,1745157280852944168
562528,116,-15,109,2841,6788,3073,1745157280852944168
562720,114,-24,120,2894,6747,3125,1745157280852944168
562912,95,-30,125,2889,6754,3160,1745157280852944168
563104,64,-31,127,2812,6826,3176,1745157280852944168
563296,32,-28,129,2731,6933,3205,1745157280911556758
563488,10,-18,130,2663,7103,3200,1745157280911556758
563680,0,-4,126,2655,7226,3172,1745157280911556758
563872,-5,9,118,2669,7341,3117,1745157280911556758
564064,-4,27,107,2676,7409,3030,1745157280911556758
564256,0,50,97,2722,7484,2905,1745157280911556758
564448,9,68,91,2772,7546,2849,1745157280911556758
564640,28,77,88,2831,7585,2810,1745157280911556758
564832,51,79,86,2879,7602,2761,1745157280911556758
565024,72,76,87,2927,7659,2742,1745157280911556758
565216,87,68,92,2945,7679,2779,1745157280911556758
565408,95,57,98,2934,7713,2820,1745157280911556758
565600,97,48,101,2855,7754,2828,1745157280975468257
565792,96,41,102,2756,7741,2851,1745157280975468257
565984,98,37,98,2734,7667,2882,1745157280975468257
566176,101,28,96,2747,7590,2879,1745157280975468257
566368,100,22,90,2761,7483,2864,1745157280975468257
566560,94,20,80,2731,7400,2853,1745157280975468257
566752,85,20,67,2713,7339,2779,1745157280975468257
566944,76,21,56,2741,7253,2763,1745157280975468257
567136,67,20,46,2761,7142,2742,1745157280975468257
567328,49,17,38,2822,7043,2642,1745157280975468257
567520,18,14,33,2853,6999,2530,1745157280975468257
567712,-17,9,33,2909,7013,2517,1745157280975468257
567904,-49,1,39,2926,7108,2531,1745157281033639601
568288,-89,-10,42,2895,7447,2610,1745157281033639601
568480,-83,-17,38,2896,7584,2696,1745157281033639601
568672,-64,-27,31,2862,7647,2732,1745157281033639601
568864,-45,-32,23,2869,7658,2737,1745157281033639601
569056,-21,-39,15,2859,7597,2787,1745157281033639601
569248,9,-44,8,2843,7537,2804,1745157281033639601
569440,32,-48,-3,2833,7454,2820,1745157281033639601
569632,49,-48,-14,2803,7390,2808,1745157281033639601
569824,61,-46,-20,2795,7292,2788,1745157281033639601
570016,66,-43,-20,2782,7182,2771,1745157281033639601
570208,60,-40,-16,2816,7074,2773,1745157281033639601
570400,44,-36,-11,2826,7004,2760,1745157281100210399
570592,25,-31,-9,2826,6990,2718,1745157281100210399
570784,3,-33,-8,2903,6944,2718,1745157281100210399
570976,-20,-41,-8,2950,6916,2743,1745157281100210399
571168,-46,-48,-10,2945,6925,2772,1745157281100210399
571360,-73,-54,-10,2921,6950,2774,1745157281100210399
571552,-91,-53,-6,2850,7019,2797,1745157281100210399
571744,-87,-45,2,2764,7153,2792,1745157281100210399
571936,-63,-33,11,2744,7314,2741,1745157281100210399
572128,-27,-20,14,2800,7439,2709,1745157281100210399
572320,15,-10,15,2913,7496,2706,1745157281100210399
572512,61,-5,14,3014,7465,2681,1745157281100210399
572704,103,-8,19,3082,7368,2626,1745157281160110685
572896,134,-14,27,3106,7229,2608,1745157281160110685
573088,151,-22,36,3094,7099,2607,1745157281160110685
573280,157,-25,46,3065,6968,2614,1745157281160110685
573472,157,-23,59,3021,6908,2587,1745157281160110685
573664,150,-21,70,3038,6853,2595,1745157281160110685
573856,139,-21,73,3072,6815,2626,1745157281160110685
574048,119,-23,72,3140,6788,2635,1745157281160110685
574240,91,-28,68,3194,6711,2624,1745157281160110685
574432,57,-34,64,3189,6638,2586,1745157281160110685
574624,25,-34,59,3120,6636,2601,1745157281160110685
574816,0,-29,59,3051,6707,2632,1745157281160110685
575008,-20,-18,63,3008,6853,2620,1745157281213922485
575200,-29,-8,68,3029,7014,2621,1745157281213922485
575392,-23,6,74,3090,7192,2614,1745157281213922485
575584,-2,14,83,3148,7357,2588,1745157281213922485
575776,22,18,93,3198,7486,2567,1745157281213922485
575968,52,23,102,3243,7630,2586,1745157281213922485
576160,88,23,111,3270,7678,2635,1745157281213922485
576352,124,17,120,3337,7692,2677,1745157281213922485
576544,153,7,126,3377,7676,2700,1745157281213922485
576736,173,-6,128,3398,7588,2748,1745157281213922485
576928,184,-21,131,3365,7493,2752,1745157281213922485
577120,187,-33,128,3289,7391,2765,1745157281213922485
577312,178,-38,116,3219,7279,2766,1745157281272072839
577504,159,-47,107,3213,7163,2815,1745157281272072839
577696,136,-48,100,3152,7047,2845,1745157281272072839
577888,105,-50,98,3157,6975,2857,1745157281272072839
578080,67,-48,92,3142,6893,2794,1745157281272072839
578272,25,-49,85,3176,6844,2753,1745157281272072839
578464,-17,-51,80,3162,6832,2783,1745157281272072839
578656,-51,-49,78,3097,6946,2819,1745157281272072839
578848,-75,-43,81,3047,7099,2829,1745157281272072839
579040,-89,-35,83,3042,7296,2887,1745157281272072839
579232,-84,-32,84,3009,7530,2976,1745157281272072839
579424,-60,-24,88,3001,7748,2989,1745157281272072839
579616,-27,-19,90,3022,7841,3013,1745157281329406847
579808,6,-18,83,3040,7804,3002,1745157281329406847
580000,36,-15,73,3084,7671,2990,1745157281329406847
580192,59,-23,73,3115,7541,3007,1745157281329406847
580384,72,-21,77,3058,7510,2991,1745157281329406847
580576,75,-17,80,3041,7452,2976,1745157281329406847
580768,72,-12,77,2996,7414,3014,1745157281329406847
580960,68,-6,71,2955,7349,3032,1745157281329406847
581152,62,2,67,2944,7274,3024,1745157281329406847
581344,53,8,64,2964,7231,2991,1745157281329406847
581536,42,15,55,2995,7182,2967,1745157281329406847
581728,19,18,44,3005,7132,2947,1745157281329406847
581920,-9,22,36,3007,7138,2923,1745157281392854288
582112,-33,24,32,3009,7187,2897,1745157281392854288
582304,-48,26,27,2976,7285,2919,1745157281392854288
582496,-55,38,22,2915,7412,2879,1745157281392854288
582688,-54,44,21,2949,7454,2861,1745157281392854288
582880,-43,47,22,2983,7492,2851,1745157281392854288
583072,-23,54,23,2989,7542,2783,1745157281392854288
583264,1,59,26,3039,7551,2729,1745157281392854288
583456,27,58,27,3096,7527,2708,1745157281392854288
583648,49,56,24,3106,7471,2668,1745157281392854288
583840,59,57,21,3118,7406,2593,1745157281392854288
584032,60,56,21,3171,7355,2554,1745157281392854288
584224,59,52,26,3203,7292,2534,1745157281446313123
584416,58,48,31,3230,7254,2501,1745157281446313123
584608,54,44,32,3259,7213,2470,1745157281446313123
584800,47,35,32,3368,7135,2437,1745157281446313123
584992,34,12,32,3440,7042,2491,1745157281446313123
585184,15,-4,32,3437,6993,2505,1745157281446313123
585376,-14,-21,32,3415,6955,2532,1745157281446313123
585568,-42,-35,35,3392,6920,2538,1745157281446313123
585760,-63,-48,37,3343,6934,2549,1745157281446313123
585952,-78,-59,40,3330,6935,2571,1745157281446313123
586144,-86,-69,46,3316,6978,2619,1745157281446313123
586336,-87,-77,56,3295,7041,2655,1745157281446313123
586528,-80,-81,64,3246,7099,2623,1745157281505900651
586720,-70,-82,65,3220,7184,2611,1745157281505900651
586912,-55,-85,63,3251,7192,2638,1745157281505900651
587104,-38,-87,61,3273,7181,2654,1745157281505900651
587296,-18,-84,62,3264,7161,2618,1745157281505900651
587488,-1,-86,61,3288,7101,2564,1745157281505900651
587680,8,-88,59,3293,7031,2515,1745157281505900651
587872,5,-94,61,3323,6935,2517,1745157281505900651
588064,-5,-102,65,3326,6866,2582,1745157281505900651
588256,-25,-109,69,3297,6832,2666,1745157281505900651
588448,-50,-116,79,3289,6843,2739,1745157281505900651
588640,-77,-114,84,3266,6848,2780,1745157281505900651
588832,-102,-115,86,3230,6869,2824,1745157281562441229
589024,-120,-112,88,3161,6888,2879,1745157281562441229
589216,-133,-107,93,3119,6940,2938,1745157281562441229
589408,-140,-97,98,3134,7054,2963,1745157281562441229
589600,-136,-87,97,3132,7161,2993,1745157281562441229
589792,-116,-75,91,3144,7280,3000,1745157281562441229
589984,-80,-69,84,3128,7347,3001,1745157281562441229
590176,-48,-65,78,3234,7281,2965,1745157281562441229
590368,-31,-63,72,3332,7148,2925,1745157281562441229
590560,-22,-62,72,3373,7046,2924,1745157281562441229
590752,-20,-56,77,3372,6967,2891,1745157281562441229
590944,-22,-55,86,3365,6933,2918,1745157281562441229
591136,-26,-47,91,3355,6905,2928,1745157281629027860
591328,-35,-34,92,3326,6885,2928,1745157281629027860
591520,-46,-16,96,3409,6827,2873,1745157281629027860
591712,-57,-5,98,3512,6756,2846,1745157281629027860
591904,-69,4,98,3606,6678,2881,1745157281629027860
592096,-85,12,97,3670,6616,2911,1745157281629027860
592288,-102,31,100,3720,6561,2926,1745157281629027860
592480,-114,48,107,3887,6499,2918,1745157281629027860
592672,-120,60,112,4042,6443,2933,1745157281629027860
592864,-120,66,119,4211,6374,2951,1745157281629027860
593056,-119,69,127,4354,6326,2959,1745157281629027860
593248,-118,69,146,4422,6287,3000,1745157281629027860
593440,-115,69,169,4484,6154,3034,1745157281685416303
593632,-106,64,186,4554,6010,3043,1745157281685416303
593824,-100,55,197,4655,5836,3012,1745157281685416303
594016,-111,48,207,4734,5663,2967,1745157281685416303
594208,-135,42,230,4829,5494,2890,1745157281685416303
594400,-166,36,266,4920,5341,2793,1745157281685416303
594592,-199,32,303,5107,5211,2641,1745157281685416303
594784,-234,28,334,5249,5100,2504,1745157281685416303
594976,-262,32,366,5270,5004,2481,1745157281685416303
595168,-274,44,405,5256,5020,2464,1745157281685416303
595360,-272,64,451,5258,5088,2358,1745157281685416303
595552,-265,87,501,5256,5158,2351,1745157281685416303
595744,-248,114,553,5302,5246,2416,1745157281737987385
595936,-208,139,608,5338,5372,2535,1745157281737987385
596128,-145,163,671,5382,5557,2660,1745157281737987385
596320,-66,189,738,5387,5704,2762,1745157281737987385
596512,21,220,807,5374,5754,2810,1745157281737987385
596704,113,247,872,5484,5680,2752,1745157281737987385
596896,203,262,921,5742,5440,2687,1745157281737987385
597088,283,265,956,6022,5189,2593,1745157281737987385
597280,330,265,995,6214,4923,2563,1745157281737987385
597472,354,261,1059,6413,4592,2506,1745157281737987385
597664,380,242,1123,6493,4463,2498,1745157281737987385
597856,396,220,1180,6507,4427,2380,1745157281737987385
598048,389,212,1227,6384,4245,2247,1745157281798354490
598240,383,220,1273,6183,4231,2144,1745157281798354490
598432,369,242,1347,6056,4270,2111,1745157281798354490
598624,364,295,1445,6115,4551,1915,1745157281798354490
598816,134,301,1296,8759,1442,1260,1745157281798354490
599008,104,202,1100,7190,3608,1915,1745157281798354490
599200,163,262,1386,5943,5245,1817,1745157281798354490
599392,288,330,1723,5856,6417,1084,1745157281798354490
599584,163,304,1626,9063,3193,1032,1745157281798354490
599776,216,202,1340,8492,4099,1194,1745157281798354490
599968,303,179,1453,7995,4701,910,1745157281798354490
600160,372,154,1644,7556,5227,778,1745157281798354490
600352,413,165,1793,7506,5394,635,1745157281856743488
600544,496,166,1845,7646,5310,547,1745157281856743488
600736,603,173,1871,7873,5087,286,1745157281856743488
600928,687,160,1919,8202,4920,37,1745157281856743488
601120,750,139,1985,8541,4776,-187,1745157281856743488
601312,790,111,2054,8808,4728,-332,1745157281856743488
601504,816,71,2114,8983,4729,-494,1745157281856743488
601696,837,27,2162,9087,4734,-700,1745157281856743488
601888,854,-23,2208,9109,4678,-914,1745157281856743488
602080,864,-75,2256,9133,4630,-1024,1745157281856743488
602272,864,-123,2303,9169,4595,-1118,1745157281856743488
602464,845,-167,2352,9132,4585,-1186,1745157281856743488
602656,812,-208,2399,9182,4576,-1215,1745157281913241409
602848,783,-249,2436,9253,4580,-1210,1745157281913241409
603040,745,-297,2467,9234,4672,-1108,1745157281913241409
603232,712,-338,2498,9104,4869,-1039,1745157281913241409
603424,703,-371,2525,8979,5139,-1027,1745157281913241409
603616,722,-404,2541,8844,5378,-1135,1745157281913241409
603808,751,-432,2551,8750,5557,-1324,1745157281913241409
604000,784,-455,2569,8725,5651,-1510,1745157281913241409
604192,823,-480,2596,8787,5713,-1651,1745157281913241409
604384,860,-509,2617,8879,5739,-1816,1745157281913241409
604576,884,-539,2632,8933,5738,-1937,1745157281913241409
604768,896,-570,2650,8900,5761,-2095,1745157281913241409
604960,910,-602,2674,8851,5771,-2316,1745157281978407533
605152,931,-638,2698,8791,5804,-2629,1745157281978407533
605344,955,-679,2715,8753,5881,-2955,1745157281978407533
605536,985,-728,2720,8757,5870,-3109,1745157281978407533
605728,1008,-776,2737,8819,5874,-3256,1745157281978407533
605920,1014,-842,2755,8877,5883,-3185,1745157281978407533
606112,1013,-906,2763,8826,5939,-3197,1745157281978407533
606304,1012,-966,2777,8752,5966,-3233,1745157281978407533
606496,1033,-1040,2781,8720,6113,-3256,1745157281978407533
606688,1073,-1125,2762,8678,6281,-3155,1745157281978407533
606880,1097,-1211,2731,8714,6468,-3092,1745157281978407533
607072,1099,-1285,2693,8681,6637,-3112,1745157281978407533
607264,1113,-1357,2660,8653,6849,-3145,1745157282029964458
607456,1151,-1435,2626,8695,7058,-3257,1745157282029964458
