timestamp,gyr_x,gyr_y,gyr_z,acc_x,acc_y,acc_z,pkt_time_ns
428129,109,-16,70,593,1109,-7996,1745156543264054700
428321,41,29,79,163,-296,-8275,1745156543264054700
428513,-30,72,45,332,11,-8131,1745156543264054700
428705,-40,61,51,435,577,-7804,1745156543264054700
428897,-17,69,61,360,650,-7910,1745156543264054700
429089,-24,61,48,322,595,-7915,1745156543264054700
429281,-26,80,32,343,534,-7925,1745156543264054700
429473,-17,75,30,370,542,-7972,1745156543264054700
429665,-14,75,38,462,602,-8033,1745156543264054700
429857,-3,73,45,526,652,-8131,1745156543264054700
430049,4,63,46,570,685,-8214,1745156543264054700
430241,5,63,41,568,700,-8308,1745156543264054700
430433,7,63,35,512,674,-8355,1745156543308956113
430433,7,63,35,512,674,-8355,1745156543308956113
430817,-2,62,35,494,643,-8417,1745156543308956113
431009,-6,60,36,503,625,-8419,1745156543308956113
431201,-11,62,35,499,666,-8372,1745156543308956113
431393,-10,67,32,487,706,-8308,1745156543308956113
431585,-6,70,27,491,698,-8249,1745156543308956113
431777,-3,77,21,478,667,-8165,1745156543308956113
431969,-2,84,18,476,628,-8105,1745156543308956113
432161,-3,90,19,488,593,-8071,1745156543308956113
432353,-7,96,20,541,540,-8086,1745156543308956113
432545,-10,98,19,600,514,-8137,1745156543308956113
432737,-10,96,21,685,598,-8195,1745156543378140741
432929,-4,91,22,751,711,-8254,1745156543378140741
433121,5,80,21,785,806,-8320,1745156543378140741
433313,17,71,17,761,835,-8370,1745156543378140741
433505,29,65,15,700,857,-8405,1745156543378140741
433697,46,58,16,658,892,-8444,1745156543378140741
433889,53,60,18,562,672,-8488,1745156543378140741
434081,2,68,12,300,-99,-8627,1745156543378140741
434273,53,94,18,920,2226,-8159,1745156543378140741
434465,213,-3,74,1032,2405,-8128,1745156543378140741
434657,280,43,67,675,1479,-8326,1745156543378140741
434849,287,35,17,335,657,-8191,1745156543378140741
435041,302,62,-14,29,-64,-8021,1745156543423666888
435233,184,146,-21,-221,-2697,-9310,1745156543423666888
435425,-583,316,-67,-703,-6131,-7326,1745156543423666888
435617,-757,341,-75,-554,-4396,-8128,1745156543423666888
435809,-979,368,24,-60,-2001,-7557,1745156543423666888
436001,-992,361,92,591,473,-7697,1745156543423666888
436193,-931,344,61,1154,2500,-7647,1745156543423666888
436385,-807,299,-18,1622,3393,-7270,1745156543423666888
436577,-550,224,-92,1986,3569,-7353,1745156543423666888
436769,-286,132,-122,2209,3103,-7676,1745156543423666888
436961,-89,27,-113,2218,2311,-7945,1745156543423666888
437153,18,-67,-87,2040,1498,-8076,1745156543423666888
437345,44,-137,-65,1699,856,-8045,1745156543485580124
437537,14,-169,-63,1305,420,-8018,1745156543485580124
437729,-48,-166,-93,921,157,-8084,1745156543485580124
437921,-107,-150,-148,636,-7,-8175,1745156543485580124
438113,-137,-130,-195,588,-79,-8331,1745156543485580124
438305,-168,-109,-222,676,-102,-8315,1745156543485580124
438497,-224,-88,-235,869,-63,-8450,1745156543485580124
438689,-304,-79,-238,1068,-11,-8481,1745156543485580124
438881,-353,-92,-243,1215,107,-8556,1745156543485580124
439073,-357,-129,-256,1368,286,-8820,1745156543485580124
439265,-355,-180,-273,1554,438,-8809,1745156543485580124
439457,-379,-215,-280,1703,463,-8556,1745156543485580124
439649,-429,-221,-283,1655,354,-8405,1745156543540574987
439841,-468,-203,-286,1455,229,-8454,1745156543540574987
440033,-489,-180,-287,1297,59,-8302,1745156543540574987
440225,-514,-174,-286,1231,-143,-8336,1745156543540574987
440417,-523,-182,-299,1115,-256,-8499,1745156543540574987
440609,-538,-190,-325,1068,-92,-8638,1745156543540574987
440801,-557,-178,-358,1121,260,-8520,1745156543540574987
440993,-588,-152,-390,1252,626,-8063,1745156543540574987
441185,-611,-133,-406,1430,845,-7707,1745156543540574987
441377,-618,-128,-417,1520,942,-7668,1745156543540574987
441569,-606,-119,-439,1496,1064,-7987,1745156543540574987
441761,-564,-102,-477,1357,1329,-8318,1745156543540574987
441953,-483,-86,-521,1196,1729,-8677,1745156543605860692
442145,-401,-54,-563,1031,2216,-8945,1745156543605860692
442337,-352,-7,-593,980,2551,-9042,1745156543605860692
442529,-329,32,-598,1146,2534,-9048,1745156543605860692
442721,-313,33,-582,1631,2097,-9140,1745156543605860692
442913,-307,-28,-557,2401,1389,-9300,1745156543605860692
443105,-321,-131,-540,3258,724,-9671,1745156543605860692
443297,-401,-252,-545,3994,358,-10280,1745156543605860692
443489,-494,-407,-584,4546,566,-11019,1745156543605860692
443681,-607,-575,-653,4713,1124,-10881,1745156543605860692
443873,-658,-740,-745,4493,1673,-10060,1745156543605860692
444065,-612,-881,-841,3991,2087,-9366,1745156543605860692
444257,-511,-1001,-899,3285,2546,-9257,1745156543678491748
444449,-397,-1041,-920,2541,3130,-8965,1745156543678491748
444641,-278,-1038,-895,2023,3680,-8321,1745156543678491748
444833,-92,-1050,-830,1917,4057,-7829,1745156543678491748
445025,112,-1079,-762,2293,4157,-7561,1745156543678491748
445217,239,-1104,-691,3022,3918,-7486,1745156543678491748
445409,237,-1127,-579,3719,3584,-7452,1745156543678491748
445601,229,-1206,-537,4203,3316,-7421,1745156543678491748
445793,354,-1343,-600,4021,3444,-7292,1745156543678491748
445985,498,-1501,-660,3701,2964,-7482,1745156543678491748
446177,556,-1636,-699,3409,1928,-8086,1745156543678491748
446369,475,-1701,-717,2966,578,-8398,1745156543678491748
446561,354,-1733,-703,2535,-665,-8761,1745156543718620287
446753,191,-1729,-686,2013,-1627,-9048,1745156543718620287
446945,-14,-1679,-668,1406,-2297,-8939,1745156543718620287
447137,-198,-1574,-630,792,-2498,-8569,1745156543718620287
447329,-327,-1420,-557,376,-2249,-8187,1745156543718620287
447521,-421,-1221,-475,-28,-1602,-7568,1745156543718620287
447713,-471,-1052,-390,9,-1141,-6981,1745156543718620287
447905,-464,-905,-320,303,-722,-6813,1745156543718620287
448097,-450,-736,-258,520,-666,-6344,1745156543718620287
448289,-399,-620,-196,638,-734,-6009,1745156543718620287
448481,-312,-561,-123,663,-858,-5787,1745156543718620287
448673,-229,-496,-37,691,-994,-5873,1745156543718620287
448865,-184,-389,54,547,-1110,-5737,1745156543780383317
449057,-156,-268,153,422,-1237,-5599,1745156543780383317
449249,-134,-130,265,279,-1344,-5336,1745156543780383317
449441,-112,13,383,243,-1413,-5113,1745156543780383317
449633,-96,163,499,248,-1468,-4931,1745156543780383317
449825,-83,319,625,242,-1444,-4787,1745156543780383317
450017,-80,478,763,290,-1396,-4549,1745156543780383317
450209,-94,633,912,417,-1335,-4280,1745156543780383317
450401,-130,782,1072,544,-1283,-3974,1745156543780383317
450593,-180,934,1240,580,-1157,-3681,1745156543780383317
450785,-242,1096,1414,551,-981,-3404,1745156543780383317
450977,-315,1267,1585,554,-803,-3184,1745156543780383317
451169,-402,1447,1744,594,-685,-3007,1745156543832058782
451361,-500,1628,1899,730,-615,-2882,1745156543832058782
451553,-601,1803,2050,900,-566,-2815,1745156543832058782
451745,-707,1965,2198,1130,-493,-2692,1745156543832058782
451937,-807,2121,2341,1346,-414,-2549,1745156543832058782
452129,-898,2275,2477,1601,-268,-2430,1745156543832058782
452321,-984,2422,2608,1809,-45,-2371,1745156543832058782
452513,-1049,2568,2728,1969,259,-2446,1745156543832058782
452705,-1099,2718,2830,2105,614,-2498,1745156543832058782
452897,-1125,2874,2919,2279,1043,-2617,1745156543832058782
453089,-1135,3025,2998,2473,1501,-2794,1745156543832058782
453281,-1122,3178,3072,2693,2047,-3062,1745156543832058782
453473,-1090,3334,3142,2963,2715,-3332,1745156543892773123
453665,-1025,3496,3200,3257,3565,-3687,1745156543892773123
453857,-926,3664,3241,3540,4546,-4078,1745156543892773123
454049,-786,3836,3263,3711,5581,-4502,1745156543892773123
454241,-603,4004,3278,3658,6585,-4770,1745156543892773123
454433,-391,4103,3294,3721,7292,-4650,1745156543892773123
454625,-39,4221,3308,3995,8183,-5774,1745156543892773123
454817,225,4470,3329,3775,8415,-5278,1745156543892773123
455009,528,4615,3341,3859,8623,-5367,1745156543892773123
455201,815,4761,3320,4039,8543,-5243,1745156543892773123
455393,1058,4903,3250,4355,8205,-4950,1745156543892773123
455585,1235,5040,3124,4778,7523,-4588,1745156543892773123
455777,1346,5140,2950,5278,6420,-4020,1745156543956048743
455969,1415,5195,2758,5703,5080,-3463,1745156543956048743
456161,1477,5252,2563,6047,3823,-3265,1745156543956048743
456353,1524,5302,2351,6360,2950,-3153,1745156543956048743
456545,1541,5366,2112,6658,2647,-2905,1745156543956048743
456737,1515,5449,1842,7043,2876,-2589,1745156543956048743
456929,1442,5523,1544,7579,3554,-2330,1745156543956048743
457121,1332,5583,1226,8264,4549,-2387,1745156543956048743
457313,1191,5641,907,8733,5420,-1914,1745156543956048743
457505,1146,5568,599,9632,6625,-1578,1745156543956048743
457697,1146,5452,324,10272,7717,-2005,1745156543956048743
457889,1123,5360,102,10809,8668,-2272,1745156543956048743
458081,1099,5256,-71,11256,9408,-2738,1745156544008259464
458273,1068,5139,-210,11590,9833,-3207,1745156544008259464
458465,1038,5003,-316,11869,9916,-3553,1745156544008259464
458657,1009,4864,-401,12053,9635,-3814,1745156544008259464
458849,988,4719,-479,12089,9061,-4098,1745156544008259464
459041,980,4590,-559,11975,8313,-4395,1745156544008259464
459233,977,4477,-652,11801,7595,-4748,1745156544008259464
459425,939,4370,-775,11431,6756,-4632,1745156544008259464
459617,935,4223,-920,11707,6399,-6226,1745156544008259464
459809,787,4253,-1047,11251,5608,-5686,1745156544008259464
460001,700,4197,-1152,11205,5221,-6028,1745156544008259464
460193,616,4115,-1224,11170,5067,-6298,1745156544008259464
460385,533,4041,-1271,11194,5158,-6529,1745156544081348224
460577,457,3965,-1341,11187,5488,-6597,1745156544081348224
460769,393,3906,-1463,11153,5955,-6500,1745156544081348224
460961,358,3860,-1638,11146,6369,-6440,1745156544081348224
461153,363,3794,-1830,11125,6566,-6222,1745156544081348224
461345,421,3686,-1977,11151,6549,-5894,1745156544081348224
461537,525,3557,-2074,11141,6427,-5686,1745156544081348224
461729,636,3429,-2155,11306,6158,-5863,1745156544081348224
461921,647,3336,-2332,11112,5253,-5796,1745156544081348224
462113,696,3230,-2434,10837,5334,-5612,1745156544081348224
462305,704,3057,-2422,10968,5103,-5917,1745156544081348224
462497,644,2948,-2453,11029,4290,-5607,1745156544081348224
462689,604,2796,-2579,10995,3737,-5749,1745156544132919367
462881,514,2698,-2693,10642,3259,-5705,1745156544132919367
463073,432,2615,-2746,10388,3089,-5918,1745156544132919367
463265,323,2548,-2753,10086,3080,-5830,1745156544132919367
463457,228,2456,-2733,9893,3080,-5869,1745156544132919367
463649,114,2345,-2753,10055,2917,-5871,1745156544132919367
463841,-47,2267,-2828,9519,2894,-5363,1745156544132919367
464033,-177,2183,-2824,9228,3086,-5281,1745156544132919367
464225,-312,2110,-2762,9040,3166,-5046,1745156544132919367
464417,-428,2041,-2715,8865,3207,-4865,1745156544132919367
464609,-524,1958,-2686,8744,3304,-4466,1745156544132919367
464801,-601,1881,-2644,8619,3539,-4039,1745156544132919367
464993,-657,1818,-2587,8599,3802,-3578,1745156544189664786
465185,-696,1759,-2559,8729,4025,-3304,1745156544189664786
465377,-725,1706,-2580,8869,4135,-3143,1745156544189664786
465569,-735,1636,-2619,8997,4164,-3114,1745156544189664786
465761,-725,1539,-2642,9100,4170,-3004,1745156544189664786
465953,-695,1423,-2657,9189,4222,-3082,1745156544189664786
466145,-687,1315,-2693,9234,4221,-2925,1745156544189664786
466337,-702,1203,-2733,9047,4198,-3268,1745156544189664786
466529,-733,1080,-2759,8998,4124,-3091,1745156544189664786
466721,-752,975,-2758,8790,4217,-3051,1745156544189664786
466913,-787,896,-2748,8500,4333,-3015,1745156544189664786
467105,-827,826,-2742,8250,4439,-2842,1745156544189664786
467297,-862,762,-2732,7979,4467,-2551,1745156544248354563
467489,-865,704,-2699,7718,4463,-2244,1745156544248354563
467681,-845,649,-2644,7510,4485,-2035,1745156544248354563
467873,-813,588,-2586,7383,4455,-1797,1745156544248354563
468065,-784,523,-2551,7219,4467,-1733,1745156544248354563
468257,-785,474,-2526,6996,4479,-1416,1745156544248354563
468449,-782,427,-2495,6787,4458,-1115,1745156544248354563
468641,-775,390,-2457,6498,4505,-853,1745156544248354563
468833,-768,365,-2406,6352,4630,-844,1745156544248354563
469025,-770,378,-2352,6042,4672,-256,1745156544248354563
469217,-745,324,-2332,5964,4827,-363,1745156544248354563
469409,-757,269,-2314,5883,4893,-260,1745156544248354563
469601,-745,241,-2286,5768,4987,-119,1745156544306708978
469793,-721,210,-2254,5753,5061,-12,1745156544306708978
469985,-698,182,-2230,5773,5106,2,1745156544306708978
470177,-697,153,-2209,5776,5118,-103,1745156544306708978
470369,-713,133,-2189,5774,5128,-183,1745156544306708978
470561,-744,108,-2158,5808,5200,-195,1745156544306708978
470753,-766,83,-2137,5749,5287,-148,1745156544306708978
470945,-768,69,-2126,5654,5461,-108,1745156544306708978
471137,-754,53,-2113,5513,5680,30,1745156544306708978
471329,-725,40,-2063,5351,6058,199,1745156544306708978
471521,-686,12,-2001,5360,6143,407,1745156544306708978
471713,-653,2,-1987,5255,6146,528,1745156544306708978
471905,-615,-14,-1959,5134,6098,673,1745156544367793420
472097,-569,-40,-1923,5068,5960,747,1745156544367793420
472289,-526,-67,-1864,5036,5932,796,1745156544367793420
472481,-488,-96,-1803,5031,5680,837,1745156544367793420
472673,-464,-116,-1792,5000,5260,884,1745156544367793420
472865,-461,-124,-1794,4885,4951,916,1745156544367793420
473057,-451,-113,-1744,4946,4874,999,1745156544367793420
473249,-447,-91,-1675,5199,5015,919,1745156544367793420
473441,-449,-77,-1635,5556,5062,738,1745156544367793420
473633,-446,-83,-1636,5853,5140,577,1745156544367793420
473825,-437,-103,-1625,6133,5255,448,1745156544367793420
474017,-419,-134,-1592,6473,5301,396,1745156544367793420
474209,-406,-182,-1556,6698,5317,445,1745156544423041300
474401,-390,-250,-1519,6781,5445,509,1745156544423041300
474593,-389,-311,-1489,6752,5593,552,1745156544423041300
474785,-391,-376,-1465,6639,5682,770,1745156544423041300
474977,-394,-440,-1439,6702,5669,850,1745156544423041300
475169,-402,-496,-1409,6212,6008,1100,1745156544423041300
475361,-378,-501,-1382,6064,6121,1057,1745156544423041300
475553,-387,-551,-1347,6091,6122,1169,1745156544423041300
475745,-385,-565,-1317,6021,6083,1026,1745156544423041300
475937,-400,-611,-1282,6297,5854,1090,1745156544423041300
476129,-424,-607,-1255,5482,6241,1053,1745156544423041300
476321,-427,-574,-1213,5407,6212,1019,1745156544423041300
476513,-444,-566,-1142,5836,6049,961,1745156544547272197
476705,-453,-586,-1082,6125,6183,1103,1745156544547272197
476897,-451,-609,-1054,6094,6534,1241,1745156544547272197
477089,-437,-634,-1039,5881,6797,1390,1745156544547272197
477281,-413,-659,-1016,5700,6879,1569,1745156544547272197
477473,-384,-686,-986,5531,6803,1756,1745156544547272197
477665,-338,-672,-941,5251,6768,1856,1745156544547272197
477857,-300,-681,-888,5299,6590,1910,1745156544547272197
478049,-273,-700,-846,5519,6423,1996,1745156544547272197
478241,-250,-712,-826,5433,6323,2095,1745156544547272197
478433,-226,-710,-809,5162,6276,2182,1745156544547272197
478625,-203,-710,-787,4955,6344,2201,1745156544547272197
478817,-183,-706,-770,4900,6434,2164,1745156544558920371
479009,-176,-699,-767,4898,6516,2087,1745156544558920371
479201,-183,-686,-771,4887,6608,1975,1745156544558920371
479393,-197,-672,-770,4831,6632,1872,1745156544558920371
479585,-197,-648,-765,4471,6972,2049,1745156544558920371
479777,-132,-552,-784,3886,7392,1798,1745156544558920371
479969,-142,-593,-748,4215,7077,1960,1745156544558920371
480161,-127,-571,-701,4679,6616,1660,1745156544558920371
480353,-131,-610,-661,4885,6459,1958,1745156544558920371
480545,-152,-606,-639,4522,6673,2011,1745156544558920371
480737,-101,-549,-639,3170,7719,2650,1745156544558920371
480929,-77,-493,-641,3067,7477,2163,1745156544558920371
481121,-82,-498,-591,3428,6899,2400,1745156544600295202
481313,-100,-475,-546,3854,6364,2436,1745156544600295202
481505,-97,-408,-536,3058,6930,2398,1745156544600295202
481697,-84,-348,-527,3014,7061,2421,1745156544600295202
481889,-102,-328,-508,3172,6944,2286,1745156544600295202
482081,-91,-320,-483,3653,6643,2229,1745156544600295202
482273,-108,-355,-459,4280,6307,2195,1745156544600295202
482465,-123,-383,-447,4182,6335,2182,1745156544600295202
482657,-110,-381,-444,2918,6922,2437,1745156544600295202
482849,-87,-363,-432,2966,6783,2037,1745156544600295202
483041,-95,-389,-389,3429,6487,2199,1745156544600295202
483233,-92,-373,-348,3769,6461,2032,1745156544600295202
483425,-108,-372,-322,3817,6656,1945,1745156544655414542
483617,-125,-391,-301,3693,6993,2069,1745156544655414542
483809,-123,-396,-290,3458,7188,2034,1745156544655414542
484001,-116,-392,-272,3315,7266,2013,1745156544655414542
484193,-104,-372,-259,3273,7244,1942,1745156544655414542
484385,-76,-346,-256,2687,7425,2386,1745156544655414542
484577,-8,-194,-265,1764,7538,1755,1745156544655414542
484769,-17,-192,-238,2838,6783,1766,1745156544655414542
484961,-24,-152,-217,3590,6230,1589,1745156544655414542
485153,-45,-163,-202,4302,6112,1420,1745156544655414542
485345,-92,-222,-187,4760,6366,1447,1745156544655414542
485537,-119,-283,-174,4124,6915,1678,1745156544655414542
485729,-95,-313,-156,3716,7232,1653,1745156544714949363
485921,-65,-344,-138,3409,7297,1932,1745156544714949363
486113,-27,-334,-120,3082,7166,1968,1745156544714949363
486305,-6,-310,-89,3000,7021,2012,1745156544714949363
486497,3,-276,-57,3138,6978,2047,1745156544714949363
486689,15,-258,-37,3378,7104,2105,1745156544714949363
486881,28,-246,-30,3520,7243,2046,1745156544714949363
487073,42,-242,-24,3587,7311,1975,1745156544714949363
487265,62,-244,-13,3553,7339,1933,1745156544714949363
487457,91,-246,-5,3473,7399,1877,1745156544714949363
487649,117,-246,-3,3353,7386,1845,1745156544714949363
487841,135,-239,-1,3253,7400,1813,1745156544714949363
488033,143,-227,4,3185,7361,1811,1745156544774896524
488225,142,-213,18,3075,7372,1847,1745156544774896524
488417,134,-195,36,3053,7428,1859,1745156544774896524
488609,120,-176,50,2846,7341,1904,1745156544774896524
488801,91,-156,72,2872,7311,1959,1745156544774896524
488993,62,-140,77,2943,7355,2030,1745156544774896524
489185,36,-127,79,3001,7384,2054,1745156544774896524
489377,15,-128,84,3059,7418,2168,1745156544774896524
489569,5,-133,86,3028,7449,2229,1745156544774896524
489761,0,-140,90,2923,7486,2269,1745156544774896524
489953,-1,-140,93,2779,7571,2308,1745156544774896524
490145,8,-131,96,2617,7694,2338,1745156544774896524
490337,24,-117,99,2497,7790,2365,1745156544829777845
490529,45,-101,104,2440,7841,2353,1745156544829777845
490721,65,-84,109,2472,7840,2337,1745156544829777845
490913,85,-77,112,2572,7810,2380,1745156544829777845
491105,98,-70,113,2654,7759,2369,1745156544829777845
491297,102,-68,116,2672,7710,2355,1745156544829777845
491489,99,-65,117,2624,7685,2311,1745156544829777845
491681,88,-57,115,2577,7695,2299,1745156544829777845
491873,78,-48,112,2545,7698,2285,1745156544829777845
492065,69,-36,106,2501,7731,2239,1745156544829777845
492257,57,-20,94,2520,7775,2209,1745156544829777845
492449,41,-8,78,2560,7791,2193,1745156544829777845
492641,26,-2,65,2602,7798,2185,1745156544900765947
492833,12,4,54,2591,7789,2125,1745156544900765947
493025,-2,8,44,2570,7806,2144,1745156544900765947
493217,-8,12,35,2526,7915,2213,1745156544900765947
493409,-10,16,29,2483,8033,2250,1745156544900765947
493601,-11,23,24,2453,8152,2243,1745156544900765947
493793,-10,29,17,2449,8199,2233,1745156544900765947
493985,-6,32,12,2478,8190,2211,1745156544900765947
494177,0,31,9,2470,8138,2159,1745156544900765947
494369,7,35,9,2469,8072,2096,1745156544900765947
494561,14,35,7,2470,7989,2030,1745156544900765947
494753,17,35,8,2521,7916,1987,1745156544900765947
494945,14,36,6,2550,7846,1913,1745156544946579434
495137,7,36,4,2594,7826,1805,1745156544946579434
495329,-2,40,-1,2600,7804,1718,1745156544946579434
495521,-5,44,-5,2655,7798,1655,1745156544946579434
495713,2,44,-7,2710,7789,1579,1745156544946579434
495905,9,44,-9,2767,7778,1521,1745156544946579434
496097,12,39,-14,2838,7690,1490,1745156544946579434
496289,15,24,-23,2924,7629,1560,1745156544946579434
496481,17,10,-32,2896,7604,1594,1745156544946579434
496673,13,-3,-35,2830,7521,1596,1745156544946579434
496865,11,-17,-33,2765,7473,1650,1745156544946579434
497057,12,-19,-27,2651,7500,1712,1745156544946579434
497249,12,-15,-16,2595,7539,1740,1745156545015902447
497441,14,-17,-5,2635,7524,1760,1745156545015902447
497633,17,-19,-1,2694,7538,1773,1745156545015902447
497825,17,-24,1,2754,7536,1730,1745156545015902447
498017,11,-30,5,2808,7528,1702,1745156545015902447
498209,6,-41,10,2849,7532,1671,1745156545015902447
498401,-1,-51,12,2856,7566,1664,1745156545015902447
498593,-9,-58,9,2865,7585,1664,1745156545015902447
498785,-10,-68,7,2873,7599,1730,1745156545015902447
498977,-8,-77,4,2855,7661,1729,1745156545015902447
499169,-9,-80,-4,2798,7706,1705,1745156545015902447
499361,-8,-78,-10,2747,7775,1721,1745156545015902447
499553,3,-73,-12,2716,7853,1742,1745156545063591595
499745,23,-66,-12,2690,7879,1807,1745156545063591595
499937,46,-59,-8,2666,7906,1864,1745156545063591595
500129,69,-53,-3,2669,7888,1914,1745156545063591595
500321,86,-48,0,2634,7844,1972,1745156545063591595
500513,99,-46,-1,2649,7807,2015,1745156545063591595
500705,105,-44,-2,2622,7724,2049,1745156545063591595
500897,109,-41,3,2590,7637,2105,1745156545063591595
501089,107,-37,9,2571,7569,2168,1745156545063591595
501281,102,-30,10,2546,7514,2252,1745156545063591595
501473,94,-19,7,2528,7535,2320,1745156545063591595
501665,85,-5,3,2515,7549,2380,1745156545063591595
501857,76,12,0,2479,7552,2368,1745156545123843544
502049,69,27,-1,2508,7523,2358,1745156545123843544
502241,65,39,0,2564,7410,2331,1745156545123843544
502433,70,48,0,2607,7335,2285,1745156545123843544
502625,75,56,2,2681,7348,2247,1745156545123843544
502817,78,65,6,2710,7396,2256,1745156545123843544
503009,80,75,9,2736,7492,2249,1745156545123843544
503201,86,87,14,2743,7558,2233,1745156545123843544
503393,99,97,19,2769,7580,2237,1745156545123843544
503585,113,106,26,2798,7556,2190,1745156545123843544
503777,122,117,35,2866,7467,2095,1745156545123843544
503969,131,127,49,2933,7388,1980,1745156545123843544
504161,144,137,62,2969,7383,1786,1745156545186715730
504353,161,151,78,3005,7455,1654,1745156545186715730
504545,194,161,100,3069,7490,1539,1745156545186715730
504737,235,166,124,3194,7471,1456,1745156545186715730
504929,275,164,150,3336,7385,1343,1745156545186715730
505121,307,156,181,3436,7277,1270,1745156545186715730
505313,333,147,220,3508,7186,1188,1745156545186715730
505505,357,138,261,3580,7112,1167,1745156545186715730
505697,377,122,300,3705,7008,1171,1745156545186715730
505889,386,109,338,3852,6883,1163,1745156545186715730
506081,375,102,379,4014,6687,1183,1745156545186715730
506273,352,100,421,4251,6530,1186,1745156545186715730
506465,325,95,451,4497,6440,1230,1745156545244528692
506657,301,86,476,4758,6369,1277,1745156545244528692
506849,280,64,510,4943,6345,1404,1745156545244528692
507041,263,52,544,5069,6313,1461,1745156545244528692
507233,251,41,578,5193,6273,1561,1745156545244528692
507425,245,38,606,5337,6212,1629,1745156545244528692
507617,244,40,629,5449,6115,1676,1745156545244528692
507809,247,42,658,5610,5941,1693,1745156545244528692
508001,254,47,696,5776,5773,1752,1745156545244528692
508193,258,57,743,5953,5612,1778,1745156545244528692
508385,260,76,797,6122,5480,1776,1745156545244528692
508577,263,93,853,6339,5338,1821,1745156545244528692
508769,271,107,915,6549,5216,1865,1745156545312438957
508961,276,123,981,6802,5080,1899,1745156545312438957
509153,278,133,1048,7025,4939,1988,1745156545312438957
509345,278,144,1119,7157,4871,2052,1745156545312438957
509537,279,154,1198,7230,4857,2115,1745156545312438957
509729,284,159,1282,7312,4815,2171,1745156545312438957
509921,293,165,1366,7344,4758,2169,1745156545312438957
510113,304,180,1452,7354,4661,2125,1745156545312438957
510305,319,197,1539,7413,4502,2153,1745156545312438957
510497,340,210,1622,7462,4315,2195,1745156545312438957
510689,367,222,1698,7522,4166,2197,1745156545312438957
510881,395,229,1766,7550,4046,2307,1745156545312438957
511073,412,231,1831,7639,3953,2342,1745156545363918278
511265,414,232,1885,7641,3874,2365,1745156545363918278
511457,409,235,1938,7556,3847,2339,1745156545363918278
511649,404,241,1993,7480,3867,2298,1745156545363918278
511841,400,258,2041,7369,3881,2194,1745156545363918278
512033,405,292,2083,7351,3906,2018,1745156545363918278
512225,417,322,2128,7473,3857,1883,1745156545363918278
512417,426,342,2178,7696,3806,1677,1745156545363918278
512609,419,347,2224,7916,3774,1409,1745156545363918278
512801,406,344,2271,8049,3796,1203,1745156545363918278
512993,393,330,2316,8191,3811,932,1745156545363918278
513185,376,304,2361,8336,3858,671,1745156545363918278
513377,364,278,2410,8449,4064,400,1745156545414225267
513569,336,259,2462,8479,4412,192,1745156545414225267
513761,338,244,2519,8382,4984,5,1745156545414225267
513953,352,198,2567,8868,4913,-324,1745156545414225267
514145,376,107,2536,8970,4945,-620,1745156545414225267
514337,414,12,2537,8927,4977,-835,1745156545414225267
514529,426,-75,2589,8651,5902,-1120,1745156545414225267
514721,368,-117,2609,8787,4765,-1169,1745156545414225267
514913,470,-225,2669,9138,4649,-1810,1745156545414225267
515105,533,-245,2707,8678,4866,-2338,1745156545414225267
515297,495,-250,2728,8556,5026,-2666,1745156545414225267
515489,479,-311,2748,8257,5131,-2839,1745156545414225267
515681,515,-289,2785,7862,5520,-3165,1745156545472859731
515873,540,-258,2846,7810,5779,-3511,1745156545472859731
516065,572,-256,2890,7947,5979,-3814,1745156545472859731
516257,623,-275,2909,8297,6088,-4187,1745156545472859731
516449,672,-330,2900,8673,5989,-4408,1745156545472859731
516641,719,-414,2877,8915,5883,-4639,1745156545472859731
516833,741,-505,2858,8922,5706,-4886,1745156545472859731
517025,729,-582,2837,8777,5550,-4984,1745156545472859731
517217,693,-671,2822,8559,5471,-4911,1745156545472859731
517409,648,-751,2806,8257,5569,-4757,1745156545472859731
517601,574,-806,2789,7929,5711,-4699,1745156545472859731
517793,482,-855,2768,7666,5830,-4736,1745156545472859731
517985,393,-910,2753,7603,5897,-4846,1745156545544245329
518177,346,-960,2746,7560,6089,-5038,1745156545544245329
518369,339,-999,2752,7636,6403,-5159,1745156545544245329
518561,358,-1064,2767,7819,6797,-5341,1745156545544245329
518753,380,-1140,2779,8102,7052,-5642,1745156545544245329
518945,462,-1239,2781,8369,7365,-5897,1745156545544245329
519137,543,-1369,2745,8552,7548,-6056,1745156545544245329
519329,629,-1505,2675,8577,7668,-6360,1745156545544245329
519521,732,-1652,2592,8506,7513,-6445,1745156545544245329
519713,820,-1777,2504,8425,7182,-6512,1745156545544245329
519905,879,-1915,2415,8291,6849,-6202,1745156545544245329
520097,908,-2076,2373,8098,6765,-5536,1745156545544245329
520289,899,-2184,2371,7841,7033,-4951,1745156545593230767
520481,830,-2258,2378,7668,7421,-4594,1745156545593230767
520673,732,-2339,2359,7598,7754,-4257,1745156545593230767
520865,654,-2419,2311,7516,8116,-4208,1745156545593230767
521057,636,-2482,2245,7401,8490,-4225,1745156545593230767
521249,672,-2558,2164,7393,8757,-4334,1745156545593230767
521441,728,-2626,2064,7432,8867,-4657,1745156545593230767
521633,789,-2698,1950,7568,8817,-4998,1745156545593230767
521825,847,-2778,1823,7688,8616,-5376,1745156545593230767
522017,893,-2856,1683,7727,8309,-5751,1745156545593230767
522209,921,-2935,1541,7662,7971,-6083,1745156545593230767
522401,929,-3008,1408,7539,7669,-6359,1745156545593230767
522593,923,-3080,1295,7416,7364,-6430,1745156545647992402
522785,909,-3158,1209,7380,7097,-6390,1745156545647992402
522977,891,-3240,1153,7401,6944,-6144,1745156545647992402
523169,873,-3327,1125,7482,6999,-5571,1745156545647992402
523361,847,-3413,1109,7624,7264,-4780,1745156545647992402
523553,792,-3484,1087,7741,7716,-4162,1745156545647992402
523745,708,-3539,1055,7775,8210,-3721,1745156545647992402
523937,638,-3580,1007,7733,8684,-3466,1745156545647992402
524129,612,-3619,938,7698,9072,-3245,1745156545647992402
524321,642,-3663,847,7732,9290,-3134,1745156545647992402
524513,704,-3700,725,7836,9286,-3301,1745156545647992402
524705,778,-3741,577,8006,9037,-3507,1745156545647992402
524897,850,-3792,415,8160,8540,-3912,1745156545719719820
525089,904,-3842,247,8195,7981,-4398,1745156545719719820
525281,938,-3885,80,8088,7428,-4848,1745156545719719820
525473,949,-3926,-82,7900,6926,-5140,1745156545719719820
525665,941,-3949,-235,7687,6519,-5211,1745156545719719820
525857,926,-3970,-370,7533,6137,-5199,1745156545719719820
526049,910,-3992,-475,7403,5803,-5042,1745156545719719820
526241,895,-4015,-542,7352,5560,-4917,1745156545719719820
526433,866,-4034,-572,7333,5365,-4759,1745156545719719820
526625,824,-4058,-578,7364,5160,-4488,1745156545719719820
526817,768,-4090,-570,7392,4969,-4062,1745156545719719820
527009,692,-4118,-554,7325,4907,-3629,1745156545719719820
527201,585,-4128,-538,7134,4940,-3280,1745156545765814607
527393,445,-4117,-525,6861,4986,-3038,1745156545765814607
527585,287,-4089,-523,6603,4961,-2911,1745156545765814607
527777,146,-4058,-530,6356,4858,-2844,1745156545765814607
527969,39,-4028,-547,6062,4735,-2955,1745156545765814607
528161,-30,-3985,-580,5802,4672,-3305,1745156545765814607
528353,-83,-3928,-636,5650,4635,-3781,1745156545765814607
528545,-131,-3887,-713,5632,4531,-3994,1745156545765814607
528737,-165,-3867,-804,5680,4299,-4155,1745156545765814607
528929,-169,-3848,-905,5601,4025,-4342,1745156545765814607
529121,-128,-3820,-1004,5492,3792,-4601,1745156545765814607
529313,-57,-3788,-1103,5487,3567,-4681,1745156545765814607
529505,24,-3744,-1199,5544,3439,-4731,1745156545839653880
529697,89,-3686,-1290,5598,3418,-4912,1745156545839653880
529889,121,-3633,-1367,5611,3431,-4875,1745156545839653880
530081,144,-3576,-1425,5508,3473,-4932,1745156545839653880
530273,176,-3518,-1464,5326,3493,-5017,1745156545839653880
530465,217,-3458,-1485,5081,3456,-4989,1745156545839653880
530657,249,-3386,-1485,4801,3296,-5064,1745156545839653880
530849,255,-3312,-1465,4592,2931,-5204,1745156545839653880
531041,236,-3243,-1424,4398,2454,-5414,1745156545839653880
531233,188,-3180,-1372,4144,1884,-5636,1745156545839653880
531425,116,-3120,-1319,3874,1378,-5732,1745156545839653880
531617,30,-3064,-1274,3537,978,-5849,1745156545839653880
531809,-66,-3004,-1244,3177,732,-5966,1745156545882121305
532001,-169,-2939,-1223,2843,617,-6027,1745156545882121305
532193,-264,-2862,-1215,2530,645,-6124,1745156545882121305
532385,-338,-2770,-1208,2337,808,-6149,1745156545882121305
532577,-388,-2660,-1195,2210,1026,-6111,1745156545882121305
532769,-411,-2510,-1180,2446,1057,-5968,1745156545882121305
532961,-396,-2481,-1229,2682,1226,-6165,1745156545882121305
533153,-414,-2326,-1310,2113,1074,-6009,1745156545882121305
533345,-342,-2179,-1340,1816,1279,-6256,1745156545882121305
533537,-280,-2041,-1304,1585,1265,-6526,1745156545882121305
533729,-223,-1897,-1258,1546,1282,-6661,1745156545882121305
533921,-138,-1800,-1184,1596,1300,-6593,1745156545882121305
534113,-81,-1712,-1127,1581,1220,-6555,1745156545941525606
534305,-30,-1603,-1102,1335,1161,-6385,1745156545941525606
534497,12,-1478,-1089,927,1157,-6381,1745156545941525606
534689,52,-1345,-1066,575,1191,-6388,1745156545941525606
534881,88,-1216,-1031,374,1136,-6462,1745156545941525606
535073,118,-1096,-986,187,1065,-6586,1745156545941525606
535265,142,-968,-929,58,1018,-6723,1745156545941525606
535457,174,-841,-863,13,1092,-6910,1745156545941525606
535649,205,-718,-795,72,1226,-7094,1745156545941525606
535841,229,-605,-734,210,1309,-7172,1745156545941525606
536033,252,-506,-681,399,1319,-7226,1745156545941525606
536225,262,-396,-635,484,1211,-7195,1745156545941525606
536417,269,-286,-592,554,1106,-7240,1745156546005839498
536609,274,-188,-553,609,939,-7388,1745156546005839498
536801,278,-101,-529,659,763,-7479,1745156546005839498
536993,282,-40,-530,499,521,-6968,1745156546005839498
537185,358,-43,-540,764,697,-8219,1745156546005839498
537377,311,115,-532,490,470,-7513,1745156546005839498
537569,325,196,-520,496,531,-7727,1745156546005839498
537761,339,237,-498,642,553,-7624,1745156546005839498
537953,348,269,-475,848,582,-7564,1745156546005839498
538145,343,293,-457,1049,561,-7423,1745156546005839498
538337,337,306,-440,1143,499,-7259,1745156546005839498
538529,351,309,-419,1159,472,-7113,1745156546005839498
538721,378,321,-402,1055,580,-7147,1745156546057688868
538913,405,339,-391,955,710,-7219,1745156546057688868
539105,418,358,-380,919,723,-7110,1745156546057688868
539297,424,373,-363,932,620,-7018,1745156546057688868
539489,432,385,-338,973,479,-7064,1745156546057688868
539681,443,397,-303,1020,353,-7228,1745156546057688868
539873,458,411,-274,1040,280,-7526,1745156546057688868
540065,470,423,-256,1111,223,-7620,1745156546057688868
540257,476,432,-248,1192,131,-7511,1745156546057688868
540449,480,430,-243,1326,-46,-7492,1745156546057688868
540641,474,415,-238,1435,-265,-7417,1745156546057688868
540833,461,393,-224,1567,-502,-7414,1745156546057688868
541025,433,356,-218,1648,-702,-7481,1745156546129880083
541217,392,325,-225,1654,-857,-7622,1745156546129880083
541409,349,297,-243,1610,-821,-7748,1745156546129880083
541601,291,281,-253,1512,-755,-7741,1745156546129880083
541793,239,270,-251,1416,-606,-7753,1745156546129880083
541985,187,261,-229,1304,-472,-7749,1745156546129880083
542177,157,247,-200,1274,-360,-7838,1745156546129880083
542369,142,236,-183,1275,-240,-8004,1745156546129880083
542561,130,238,-173,1269,-74,-8192,1745156546129880083
542753,118,262,-157,1241,157,-8428,1745156546129880083
542945,108,304,-126,1242,445,-8477,1745156546129880083
543137,104,352,-78,1289,724,-8439,1745156546129880083
543329,106,395,-26,1374,918,-8434,1745156546180439830
543521,112,435,20,1417,1060,-8416,1745156546180439830
543713,126,477,60,1516,1071,-8300,1745156546180439830
543905,154,520,98,1627,1121,-8104,1745156546180439830
544097,160,530,163,1796,860,-8071,1745156546180439830
544289,127,567,191,1797,530,-7719,1745156546180439830
544481,82,611,211,1686,103,-7483,1745156546180439830
544673,33,660,231,1544,-224,-7190,1745156546180439830
544865,-12,683,272,1549,-515,-6838,1745156546180439830
545057,-59,678,323,1569,-676,-6626,1745156546180439830
545249,-129,698,349,1591,-778,-6306,1745156546180439830
545441,-190,723,353,1581,-715,-6170,1745156546180439830
545633,-247,750,344,1567,-608,-6095,1745156546232710706
545825,-278,766,313,1670,-388,-6122,1745156546232710706
546017,-290,763,269,1891,-161,-6242,1745156546232710706
546209,-288,725,233,2270,64,-6469,1745156546232710706
546401,-283,656,214,2739,229,-6811,1745156546232710706
546593,-272,553,209,3271,381,-7309,1745156546232710706
546785,-268,412,211,3807,459,-7860,1745156546232710706
546977,-242,241,206,4295,529,-8467,1745156546232710706
547169,-173,46,176,4609,691,-8986,1745156546232710706
547361,-56,-162,120,4627,999,-9219,1745156546232710706
547553,99,-347,48,4321,1403,-9217,1745156546232710706
547745,258,-477,-9,3681,1724,-9076,1745156546232710706
547937,373,-541,-33,3148,1689,-8947,1745156546295620340
548129,410,-561,-31,2417,1443,-8898,1745156546295620340
548321,375,-514,14,1751,954,-8778,1745156546295620340
548513,288,-447,89,1117,460,-8641,1745156546295620340
548705,162,-356,172,692,32,-8537,1745156546295620340
548897,14,-248,239,423,-187,-8405,1745156546295620340
549089,-111,-153,287,394,-97,-8262,1745156546295620340
549281,-209,-78,309,563,284,-8135,1745156546295620340
549473,-270,-25,302,840,860,-8030,1745156546295620340
549665,-283,-9,262,1145,1505,-7970,1745156546295620340
549857,-242,-23,199,1384,2080,-7882,1745156546295620340
550049,-148,-64,130,1547,2465,-7832,1745156546295620340
550241,-22,-114,73,1555,2569,-7843,1745156546349475525
550433,107,-160,33,1459,2389,-7919,1745156546349475525
550625,222,-200,23,1291,1972,-7987,1745156546349475525
550817,310,-226,37,1027,1408,-8153,1745156546349475525
551009,353,-234,55,724,822,-8341,1745156546349475525
551201,356,-226,63,485,338,-8618,1745156546349475525
551393,323,-204,58,361,11,-8848,1745156546349475525
551585,266,-173,37,309,-108,-8992,1745156546349475525
551777,193,-130,8,354,-50,-9100,1745156546349475525
551969,115,-94,-17,457,167,-9210,1745156546349475525
552161,36,-61,-25,559,463,-9248,1745156546349475525
552353,-28,-35,-9,628,819,-9237,1745156546349475525
552545,-60,-15,27,684,1141,-9278,1745156546410185439
552737,-63,-3,54,750,1261,-9282,1745156546410185439
552929,-37,-20,48,789,1305,-9198,1745156546410185439
553121,-11,-38,16,727,1271,-9093,1745156546410185439
553313,3,-40,-16,555,1210,-8918,1745156546410185439
553505,12,-40,-26,440,1122,-8712,1745156546410185439
553697,15,-32,-14,342,1001,-8418,1745156546410185439
553889,15,-18,8,261,881,-8162,1745156546410185439
554081,9,0,25,197,801,-7961,1745156546410185439
554273,5,13,28,196,766,-7846,1745156546410185439
554465,7,23,18,254,771,-7769,1745156546410185439
554657,11,29,6,346,700,-7730,1745156546410185439
554849,20,27,-4,419,610,-7694,1745156546466590289
555041,33,21,-11,485,538,-7712,1745156546466590289
555233,41,19,-18,521,468,-7738,1745156546466590289
555425,42,18,-26,535,440,-7807,1745156546466590289
555617,33,14,-31,522,456,-7909,1745156546466590289
555809,21,12,-32,521,469,-7994,1745156546466590289
556001,16,8,-27,512,485,-8071,1745156546466590289
556193,19,7,-28,517,564,-8150,1745156546466590289
556385,25,8,-32,527,649,-8212,1745156546466590289
556577,26,10,-40,553,710,-8260,1745156546466590289
556769,25,10,-46,576,764,-8270,1745156546466590289
556961,21,10,-47,572,806,-8270,1745156546466590289
557153,17,8,-44,568,849,-8214,1745156546540292376
557345,13,4,-41,547,875,-8171,1745156546540292376
557537,6,2,-42,505,914,-8111,1745156546540292376
557729,2,1,-41,486,934,-8060,1745156546540292376
557921,-2,0,-41,469,921,-8033,1745156546540292376
558113,-8,-2,-41,454,887,-7983,1745156546540292376
558305,-13,-4,-41,436,833,-7954,1745156546540292376
558497,-18,-5,-39,411,783,-7935,1745156546540292376
558689,-22,-5,-37,396,745,-7908,1745156546540292376
558881,-23,-4,-35,387,713,-7880,1745156546540292376
559073,-20,-5,-38,405,673,-7890,1745156546540292376
559265,-15,-5,-44,405,645,-7897,1745156546540292376
559457,-7,-7,-49,401,631,-7951,1745156546584855042
559649,3,-10,-55,400,640,-7979,1745156546584855042
559841,13,-12,-56,388,649,-8008,1745156546584855042
560033,21,-13,-56,387,662,-8034,1745156546584855042
560225,24,-15,-55,400,682,-8048,1745156546584855042
560417,22,-17,-56,401,687,-8079,1745156546584855042
560609,17,-20,-58,374,683,-8131,1745156546584855042
560801,12,-23,-58,354,713,-8161,1745156546584855042
560993,5,-20,-56,325,729,-8185,1745156546584855042
561185,-4,-18,-53,300,748,-8276,1745156546584855042
561377,-20,-14,-48,238,780,-8339,1745156546584855042
561569,-33,-10,-40,200,794,-8351,1745156546584855042
561761,-36,-8,-32,208,825,-8372,1745156546655057161
561953,-17,-25,-26,659,700,-7461,1745156546655057161
562145,-22,-199,-8,1914,-62,-7956,1745156546655057161
562337,-384,-242,-22,1655,-2079,-8860,1745156546655057161
562529,-562,-234,-69,442,-1367,-8187,1745156546655057161
562721,-538,-262,-25,-274,232,-7678,1745156546655057161
562913,-485,-219,44,-1014,1348,-7242,1745156546655057161
563105,-353,-140,42,-1559,2027,-7606,1745156546655057161
563297,-284,-4,-17,-1428,2277,-7506,1745156546655057161
563489,-196,85,-82,-804,2217,-7547,1745156546655057161
563681,-105,152,-120,-163,1735,-7679,1745156546655057161
563873,-20,173,-118,289,1203,-7755,1745156546655057161
565217,60,-80,-82,461,780,-8171,1745156547541464897
597281,-31,-112,-18,68,1490,-8005,1745156547541464897
597473,-52,-96,-24,190,420,-8394,1745156547541464897
597665,-89,-50,-44,257,974,-8098,1745156547541464897
597857,-78,-66,-19,21,1119,-8022,1745156547541464897
598049,-64,-45,-8,115,1090,-8126,1745156547541464897
598241,-55,-59,-12,221,1082,-8093,1745156547541464897
598433,-51,-69,-11,207,1083,-8115,1745156547541464897
598625,-41,-75,-5,159,1083,-8086,1745156547541464897
598817,-33,-80,1,48,1072,-8057,1745156547541464897
599009,-24,-74,5,-34,1051,-8019,1745156547541464897
599201,-16,-64,7,-85,981,-8032,1745156547541464897
599201,-16,-64,7,-85,981,-8032,1745156547597940110
599585,-13,-40,7,0,969,-8042,1745156547597940110
599777,-14,-30,7,76,996,-8041,1745156547597940110
599969,-15,-22,8,120,980,-8040,1745156547597940110
600161,-15,-12,7,93,980,-8075,1745156547597940110
600353,-14,-5,7,47,995,-8076,1745156547597940110
600545,-9,7,4,19,995,-8129,1745156547597940110
600737,-5,18,-1,25,982,-8236,1745156547597940110
600929,-9,28,-7,24,967,-8386,1745156547597940110
601121,-17,43,-12,-5,963,-8531,1745156547597940110
601313,-27,61,-15,-20,989,-8648,1745156547597940110
601505,-36,75,-18,52,1045,-8753,1745156547597940110
601697,-43,84,-22,151,1107,-8875,1745156547663806748
601889,-50,89,-27,218,1171,-9018,1745156547663806748
602081,-56,96,-32,214,1174,-9168,1745156547663806748
602273,-64,107,-41,172,1102,-9252,1745156547663806748
602465,-72,121,-47,128,1068,-9242,1745156547663806748
602657,-80,132,-44,174,1066,-9214,1745156547663806748
602849,-89,140,-32,287,1080,-9155,1745156547663806748
603041,-96,134,-11,469,1086,-9087,1745156547663806748
603233,-124,120,5,737,585,-9026,1745156547663806748
603425,-154,90,-1,745,833,-8076,1745156547663806748
603617,-149,78,-9,654,767,-9714,1745156547663806748
603809,-60,99,-6,552,2608,-8074,1745156547663806748
604001,73,89,8,661,2383,-8522,1745156547723597973
604193,109,72,-29,1288,1697,-8603,1745156547723597973
604385,161,-25,-83,1769,1215,-8190,1745156547723597973
604577,254,-38,-123,1946,937,-7859,1745156547723597973
604769,380,-47,-149,1914,1213,-7978,1745156547723597973
604961,412,-54,-155,1895,1150,-7863,1745156547723597973
605153,300,-72,-180,2941,1173,-9638,1745156547723597973
605345,-954,-345,-255,6600,-6742,-7314,1745156547723597973
605537,-520,-394,-407,4112,-3242,-7773,1745156547723597973
605729,-753,-353,-376,1888,-2095,-7632,1745156547723597973
605921,-735,-285,-426,215,636,-8529,1745156547723597973
606113,-688,-113,-483,-805,2685,-8454,1745156547723597973
606305,-550,47,-558,-1305,3784,-7611,1745156547781719681
606497,-272,193,-554,-973,4072,-7209,1745156547781719681
606689,-10,292,-468,-40,3644,-7139,1745156547781719681
606881,213,327,-359,1121,2886,-7756,1745156547781719681
607073,339,310,-277,2111,1982,-8312,1745156547781719681
607265,369,275,-237,2798,1037,-8543,1745156547781719681
607457,308,277,-236,3285,106,-8610,1745156547781719681
607649,74,335,-249,3759,-591,-8671,1745156547781719681
607841,-110,277,-269,4226,-776,-9007,1745156547781719681
608033,-113,54,-334,4359,-427,-8979,1745156547781719681
608225,-17,-159,-430,4215,-2,-8737,1745156547781719681
608417,138,-308,-518,3961,242,-8550,1745156547781719681
608609,304,-424,-570,3755,346,-8547,1745156547836591367
608801,393,-524,-606,3545,406,-8536,1745156547836591367
608993,381,-595,-657,3325,444,-8670,1745156547836591367
609185,303,-667,-718,3149,457,-8660,1745156547836591367
609377,202,-717,-764,3171,742,-8675,1745156547836591367
609569,45,-745,-789,3172,1313,-8502,1745156547836591367
609761,-65,-817,-767,3200,1886,-8132,1745156547836591367
609953,-60,-918,-693,3349,2204,-7918,1745156547836591367
610145,-5,-999,-611,3446,2030,-7959,1745156547836591367
610337,53,-1081,-567,3515,1686,-8122,1745156547836591367
610529,94,-1147,-540,3509,1192,-8233,1745156547836591367
610721,144,-1205,-529,3447,820,-8267,1745156547836591367
610913,186,-1262,-508,3269,496,-8316,1745156547902332902
611105,212,-1305,-470,3036,135,-8255,1745156547902332902
611297,209,-1316,-422,2728,-219,-8081,1745156547902332902
611489,166,-1306,-362,2386,-626,-7832,1745156547902332902
611681,95,-1275,-306,1945,-995,-7520,1745156547902332902
611873,2,-1191,-251,1481,-1148,-7528,1745156547902332902
612065,-120,-1029,-199,959,-1349,-6911,1745156547902332902
612257,-202,-887,-158,556,-1285,-6497,1745156547902332902
612449,-247,-776,-109,482,-1137,-6231,1745156547902332902
612641,-288,-635,-41,541,-1093,-6062,1745156547902332902
612833,-316,-464,20,654,-1044,-5934,1745156547902332902
613025,-325,-297,80,819,-927,-5795,1745156547902332902
613217,-339,-133,145,1014,-923,-5696,1745156548020699581
613409,-365,31,203,1113,-953,-5510,1745156548020699581
613601,-408,193,276,1143,-1041,-5320,1745156548020699581
613793,-465,367,352,1105,-1154,-5133,1745156548020699581
613985,-536,542,432,1042,-1248,-5003,1745156548020699581
614177,-621,730,513,990,-1284,-4868,1745156548020699581
614369,-729,927,595,960,-1320,-4684,1745156548020699581
614561,-845,1118,685,1044,-1215,-4471,1745156548020699581
614753,-967,1301,798,1191,-1086,-4306,1745156548020699581
614945,-1078,1477,926,1441,-885,-4087,1745156548020699581
615137,-1176,1637,1049,1703,-635,-3918,1745156548020699581
615329,-1292,1801,1142,1888,-562,-3585,1745156548020699581
615521,-1369,1943,1234,2025,-163,-3365,1745156548029775801
615713,-1439,2078,1370,2067,218,-3268,1745156548029775801
615905,-1492,2226,1510,2142,492,-3321,1745156548029775801
616097,-1500,2351,1640,2347,746,-2738,1745156548029775801
616289,-1493,2465,1755,2432,1080,-2744,1745156548029775801
616481,-1495,2602,1857,2549,1319,-2653,1745156548029775801
616673,-1487,2700,1961,2764,1512,-2491,1745156548029775801
616865,-1460,2796,2075,3064,1545,-2426,1745156548029775801
617057,-1405,2888,2188,3260,1727,-2448,1745156548029775801
617249,-1329,2999,2289,3245,1904,-2537,1745156548029775801
617441,-1222,3124,2377,3185,2394,-2592,1745156548029775801
617633,-1095,3242,2487,3115,2600,-2868,1745156548029775801
617825,-963,3374,2537,3094,2875,-3413,1745156548074135031
618017,-838,3520,2544,3205,3213,-3922,1745156548074135031
618209,-733,3674,2546,3382,3657,-4411,1745156548074135031
618401,-654,3821,2565,3617,4170,-4870,1745156548074135031
618593,-584,3961,2594,3698,4735,-5200,1745156548074135031
618785,-489,4104,2631,3605,5388,-5365,1745156548074135031
618977,-345,4202,2660,3467,5835,-5078,1745156548074135031
619169,-135,4325,2681,3751,6625,-6597,1745156548074135031
619361,-42,4572,2690,3603,6655,-5646,1745156548074135031
619553,112,4705,2668,3670,6669,-5600,1745156548074135031
619745,217,4829,2636,3773,6397,-5160,1745156548074135031
619937,301,4927,2605,3981,5896,-4546,1745156548074135031
620129,359,5006,2571,4211,5296,-4087,1745156548130554828
620321,390,5074,2520,4527,4683,-3814,1745156548130554828
620513,393,5120,2439,4920,4219,-3674,1745156548130554828
620705,363,5163,2320,5394,3977,-3610,1745156548130554828
620897,304,5199,2165,5889,3958,-3542,1745156548130554828
621089,222,5212,1982,6436,4129,-3419,1745156548130554828
621281,119,5191,1779,6974,4464,-3280,1745156548130554828
621473,11,5148,1562,7521,5075,-3344,1745156548130554828
621665,-96,5101,1337,7955,5969,-3530,1745156548130554828
621857,-197,5049,1115,8262,7067,-3700,1745156548130554828
622049,-276,4999,915,8497,8294,-3938,1745156548130554828
622241,-325,4953,738,8664,9473,-4182,1745156548130554828
622433,-338,4906,595,8801,10452,-4427,1745156548187225873
622625,-303,4847,488,8961,10964,-4605,1745156548187225873
622817,-224,4769,393,9151,11030,-4743,1745156548187225873
623009,-115,4677,296,9360,10699,-4960,1745156548187225873
623201,-2,4586,189,9517,10073,-5195,1745156548187225873
623393,77,4501,55,9582,9298,-5463,1745156548187225873
623585,102,4422,-103,9572,8574,-5781,1745156548187225873
623777,74,4345,-264,9534,7946,-5972,1745156548187225873
623969,15,4266,-415,9450,7569,-6054,1745156548187225873
624161,-59,4200,-548,9339,7535,-5977,1745156548187225873
624353,-127,4139,-657,9282,7728,-5855,1745156548187225873
624545,-181,4075,-768,9306,8009,-5759,1745156548187225873
624737,-221,4010,-914,9328,8306,-5599,1745156548245089511
624929,-239,3941,-1085,9332,8578,-5413,1745156548245089511
625121,-233,3868,-1277,9362,8817,-5121,1745156548245089511
625313,-201,3790,-1470,9354,9042,-4864,1745156548245089511
625505,-157,3706,-1636,9404,9165,-4602,1745156548245089511
625697,-113,3608,-1772,9509,9157,-4451,1745156548245089511
625889,-71,3498,-1887,9670,8987,-4326,1745156548245089511
626081,-29,3374,-2000,9817,8638,-4179,1745156548245089511
626273,14,3263,-2119,9899,8204,-4048,1745156548245089511
626465,43,3157,-2232,9923,7697,-3913,1745156548245089511
626657,48,3048,-2328,9921,7156,-3860,1745156548245089511
626849,17,2944,-2402,9868,6613,-3843,1745156548245089511
627041,-38,2837,-2451,9752,6132,-3799,1745156548305569271
627233,-114,2736,-2474,9623,5744,-3781,1745156548305569271
627425,-198,2647,-2490,9506,5477,-3824,1745156548305569271
627617,-288,2566,-2512,9394,5291,-3743,1745156548305569271
627809,-362,2481,-2538,9347,5148,-3656,1745156548305569271
628001,-417,2393,-2558,9355,5077,-3547,1745156548305569271
628193,-457,2303,-2573,9415,5062,-3592,1745156548305569271
628385,-500,2214,-2591,9535,5087,-3660,1745156548305569271
628577,-548,2117,-2614,9623,5123,-3578,1745156548305569271
628769,-580,2013,-2637,9696,5194,-3452,1745156548305569271
628961,-587,1913,-2662,9754,5297,-3393,1745156548305569271
629153,-578,1796,-2687,9801,5353,-3288,1745156548305569271
629345,-558,1663,-2706,9789,5341,-3185,1745156548363591657
629537,-534,1535,-2720,9695,5283,-3130,1745156548363591657
629729,-516,1412,-2726,9633,5163,-3032,1745156548363591657
629921,-514,1301,-2721,9629,5013,-3078,1745156548363591657
630113,-537,1191,-2713,9640,4927,-3081,1745156548363591657
630305,-581,1092,-2710,9603,4906,-3017,1745156548363591657
630497,-619,984,-2702,9516,4921,-2861,1745156548363591657
630689,-634,873,-2686,9416,5007,-2832,1745156548363591657
630881,-645,764,-2670,9272,5014,-2761,1745156548363591657
631073,-649,662,-2651,9125,4985,-2688,1745156548363591657
631265,-652,567,-2626,8914,4923,-2606,1745156548363591657
631457,-659,479,-2593,8651,4903,-2553,1745156548363591657
631649,-671,400,-2552,8380,4939,-2447,1745156548435003193
631841,-689,326,-2510,8101,5032,-2341,1745156548435003193
632033,-691,269,-2471,7800,5166,-2269,1745156548435003193
632225,-686,217,-2431,7616,5279,-2197,1745156548435003193
632417,-671,162,-2386,7506,5338,-2131,1745156548435003193
632609,-655,106,-2343,7432,5362,-2089,1745156548435003193
632801,-646,51,-2299,7397,5318,-2040,1745156548435003193
632993,-643,-1,-2255,7351,5280,-2025,1745156548435003193
633185,-655,-42,-2217,7285,5290,-1943,1745156548435003193
633377,-649,-73,-2181,7260,5396,-1831,1745156548435003193
633569,-634,-101,-2148,7259,5529,-1751,1745156548435003193
633761,-604,-138,-2117,7282,5585,-1746,1745156548435003193
633953,-565,-187,-2096,7323,5610,-1732,1745156548487065894
634145,-537,-240,-2081,7310,5531,-1733,1745156548487065894
634337,-516,-304,-2063,7222,5412,-1676,1745156548487065894
634529,-512,-364,-2041,7101,5308,-1603,1745156548487065894
634721,-523,-417,-2022,6889,5290,-1483,1745156548487065894
634913,-538,-459,-2002,6611,5320,-1307,1745156548487065894
635105,-538,-496,-1978,6367,5394,-1066,1745156548487065894
635297,-534,-527,-1957,6138,5505,-874,1745156548487065894
635489,-525,-546,-1937,5973,5644,-742,1745156548487065894
635681,-526,-553,-1909,5857,5751,-590,1745156548487065894
635873,-525,-556,-1872,5858,5904,-621,1745156548487065894
636065,-545,-494,-1828,5632,5968,-369,1745156548487065894
636257,-519,-515,-1789,5709,6212,15,1745156548540887017
636449,-478,-579,-1750,5797,6284,-197,1745156548540887017
636641,-441,-589,-1714,5969,6319,-168,1745156548540887017
636833,-415,-601,-1679,6158,6334,-104,1745156548540887017
637025,-396,-609,-1645,6332,6384,-16,1745156548540887017
637217,-379,-622,-1611,6379,6491,123,1745156548540887017
637409,-349,-636,-1583,6294,6654,314,1745156548540887017
637601,-303,-656,-1564,6180,6848,469,1745156548540887017
637793,-262,-665,-1564,6053,6931,577,1745156548540887017
637985,-245,-660,-1569,5954,6807,561,1745156548540887017
638177,-237,-661,-1566,5754,6778,712,1745156548540887017
638369,-207,-646,-1565,5522,6775,762,1745156548540887017
638561,-175,-635,-1568,5357,6644,822,1745156548600185017
638753,-140,-631,-1569,5321,6418,947,1745156548600185017
638945,-110,-631,-1580,5258,6272,998,1745156548600185017
639137,-101,-622,-1586,5267,6177,949,1745156548600185017
639329,-124,-616,-1581,5159,6167,1045,1745156548600185017
639521,-157,-598,-1576,4775,6553,1056,1745156548600185017
639713,-182,-587,-1561,4655,6785,1078,1745156548600185017
639905,-175,-551,-1539,4296,7223,1359,1745156548600185017
640097,-180,-521,-1518,4700,7060,984,1745156548600185017
640289,-198,-545,-1483,5127,6866,1155,1745156548600185017
640481,-183,-505,-1456,4315,7426,1538,1745156548600185017
640673,-114,-366,-1434,3710,7750,1005,1745156548600185017
640865,-119,-373,-1364,4604,7324,866,1745156548656598877
641057,-122,-377,-1317,5214,7021,1063,1745156548656598877
641249,-106,-326,-1337,5003,7285,533,1745156548656598877
641441,-98,-349,-1337,4959,7493,1080,1745156548656598877
641633,-78,-294,-1331,4563,7626,736,1745156548656598877
641825,-70,-331,-1291,4888,7283,892,1745156548656598877
642017,-64,-315,-1252,5226,7007,674,1745156548656598877
642209,-96,-417,-1222,6359,6530,737,1745156548656598877
642401,-87,-373,-1232,4545,7337,1462,1745156548656598877
642593,-60,-346,-1239,4487,7282,1111,1745156548656598877
642785,-132,-419,-1198,5657,6278,931,1745156548656598877
642977,-263,-524,-1148,6404,5916,1347,1745156548656598877
643169,-304,-534,-1163,5704,6485,1440,1745156548714389026
643361,-205,-466,-1200,3523,7966,2093,1745156548714389026
643553,-166,-361,-1248,3449,7835,1145,1745156548714389026
643745,-211,-448,-1192,4605,6747,1784,1745156548714389026
643937,-173,-352,-1130,4685,6635,1344,1745156548714389026
644129,-180,-380,-1098,5624,6251,1073,1745156548714389026
644321,-211,-412,-1068,5004,6720,1786,1745156548714389026
644513,-231,-411,-1047,4441,7059,1529,1745156548714389026
644705,-151,-379,-1032,3465,7670,1817,1745156548714389026
644897,-124,-390,-988,3776,7224,1692,1745156548714389026
645089,-58,-326,-936,3452,7075,1766,1745156548714389026
645281,-5,-303,-886,3878,6688,1547,1745156548714389026
645473,-20,-314,-828,4571,6152,1356,1745156548795166309
645665,-50,-358,-774,4582,6239,1842,1745156548795166309
645857,-16,-307,-764,3805,6857,1546,1745156548795166309
646049,-1,-334,-741,3637,6795,1746,1745156548795166309
646241,29,-325,-695,3619,6398,1641,1745156548795166309
646433,40,-335,-643,3708,6120,1737,1745156548795166309
646625,41,-299,-609,3475,6151,1640,1745156548795166309
646817,20,-287,-581,3431,6093,1659,1745156548795166309
647009,-20,-283,-539,3561,5840,1611,1745156548795166309
647201,-59,-292,-491,3571,5720,1754,1745156548795166309
647393,-79,-271,-463,3181,5989,1849,1745156548795166309
647585,-86,-255,-447,2879,6326,1916,1745156548795166309
647777,-58,-229,-455,2668,6705,1981,1745156548840270063
647969,-42,-215,-451,2846,6296,1710,1745156548840270063
648161,-51,-205,-407,3052,5930,1643,1745156548840270063
648353,-53,-198,-361,3069,5940,1620,1745156548840270063
648545,-57,-196,-335,3008,6146,1661,1745156548840270063
648737,-70,-197,-313,2870,6334,1703,1745156548840270063
648929,-80,-195,-275,2721,6496,1789,1745156548840270063
649121,-95,-194,-224,2632,6440,1794,1745156548840270063
649313,-111,-189,-167,2526,6430,1864,1745156548840270063
649505,-125,-180,-119,2395,6515,1931,1745156548840270063
649697,-136,-168,-78,2271,6690,2006,1745156548840270063
649889,-142,-146,-41,2185,6853,2015,1745156548840270063
650081,-132,-119,-11,2145,6963,2016,1745156548900165558
650273,-101,-100,9,2161,7019,1966,1745156548900165558
650465,-59,-87,26,2117,7102,1980,1745156548900165558
650657,-20,-72,38,2063,7217,1977,1745156548900165558
650849,13,-57,45,2014,7287,1974,1745156548900165558
651041,52,-45,48,1985,7319,1938,1745156548900165558
651233,91,-37,53,1956,7307,1910,1745156548900165558
651425,129,-32,60,1923,7266,1839,1745156548900165558
651617,148,-24,68,1855,7246,1786,1745156548900165558
651809,154,-11,85,1808,7249,1773,1745156548900165558
652001,151,2,102,1754,7322,1757,1745156548900165558
652193,141,14,117,1683,7421,1763,1745156548900165558
652385,126,27,128,1607,7511,1784,1745156548948672354
652577,110,44,140,1587,7580,1793,1745156548948672354
652769,94,51,156,1647,7567,1834,1745156548948672354
652961,75,51,165,1670,7568,1871,1745156548948672354
653153,47,53,170,1658,7573,1880,1745156548948672354
653345,18,57,172,1615,7593,1857,1745156548948672354
653537,-2,62,178,1541,7651,1872,1745156548948672354
653729,-8,68,184,1563,7771,1846,1745156548948672354
653921,-11,78,185,1509,7949,1794,1745156548948672354
654113,-5,94,186,1490,8175,1725,1745156548948672354
654305,8,104,189,1581,8313,1645,1745156548948672354
654497,29,103,187,1699,8338,1562,1745156548948672354
654689,49,96,182,1829,8322,1504,1745156549008741858
654881,70,78,180,1942,8270,1543,1745156549008741858
655073,83,54,179,1964,8252,1547,1745156549008741858
655265,81,35,175,1892,8284,1542,1745156549008741858
655457,76,20,168,1791,8368,1600,1745156549008741858
655649,68,12,158,1690,8506,1612,1745156549008741858
655841,49,12,148,1622,8637,1605,1745156549008741858
656033,27,18,143,1618,8701,1608,1745156549008741858
656225,15,21,138,1665,8667,1575,1745156549008741858
656417,7,24,128,1741,8576,1489,1745156549008741858
656609,-1,21,118,1816,8414,1407,1745156549008741858
656801,-10,12,105,1907,8233,1299,1745156549008741858
656993,-23,-2,94,1957,8078,1268,1745156549064342808
657185,-38,-18,87,1960,8034,1316,1745156549064342808
657377,-55,-28,86,1863,8173,1409,1745156549064342808
657569,-72,-27,93,1739,8389,1554,1745156549064342808
657761,-81,-23,100,1656,8588,1676,1745156549064342808
657953,-76,-16,99,1657,8677,1733,1745156549064342808
658145,-62,-10,93,1712,8586,1755,1745156549064342808
658337,-43,-4,86,1791,8388,1714,1745156549064342808
658529,-20,-5,73,1876,8196,1635,1745156549064342808
658721,2,-13,54,1981,7990,1549,1745156549064342808
658913,20,-30,36,2036,7851,1548,1745156549064342808
659105,28,-43,22,2001,7803,1516,1745156549064342808
659297,24,-44,15,1915,7800,1478,1745156549124889547
659489,18,-41,15,1810,7806,1478,1745156549124889547
659681,12,-33,18,1748,7836,1464,1745156549124889547
659873,5,-20,27,1752,7839,1461,1745156549124889547
660065,-1,-9,38,1779,7858,1479,1745156549124889547
660257,-4,2,51,1826,7886,1500,1745156549124889547
660449,-8,7,65,1904,7893,1507,1745156549124889547
660641,-16,9,75,1977,7843,1465,1745156549124889547
660833,-20,10,81,2002,7725,1477,1745156549124889547
661025,-16,9,86,2001,7660,1509,1745156549124889547
661217,-7,8,94,2019,7621,1536,1745156549124889547
661409,2,9,102,1998,7617,1558,1745156549124889547
661601,16,13,108,1991,7617,1633,1745156549181149866
661793,39,13,114,2040,7632,1682,1745156549181149866
661985,59,13,118,2117,7650,1653,1745156549181149866
662177,65,12,119,2187,7661,1627,1745156549181149866
662369,66,7,121,2247,7617,1595,1745156549181149866
662561,61,-1,124,2263,7532,1544,1745156549181149866
662753,48,-4,129,2246,7475,1501,1745156549181149866
662945,34,-9,140,2230,7456,1485,1745156549181149866
663137,22,-16,151,2249,7466,1526,1745156549181149866
663329,6,-21,157,2238,7499,1588,1745156549181149866
663521,-13,-19,162,2223,7533,1638,1745156549181149866
663713,-34,-16,168,2217,7546,1612,1745156549181149866
663905,-51,-13,174,2186,7557,1530,1745156549255245023
664097,-60,-3,180,2152,7606,1431,1745156549255245023
664289,-63,7,185,2177,7703,1376,1745156549255245023
664481,-59,12,188,2232,7789,1339,1745156549255245023
664673,-46,13,191,2287,7891,1305,1745156549255245023
664865,-29,11,196,2311,7960,1246,1745156549255245023
665057,-8,8,201,2316,7995,1227,1745156549255245023
665249,16,-2,208,2316,7979,1227,1745156549255245023
665441,39,-12,218,2236,7975,1275,1745156549255245023
665633,59,-19,228,2168,7960,1352,1745156549255245023
665825,75,-22,237,2117,7934,1366,1745156549255245023
666017,82,-24,245,2089,7825,1396,1745156549255245023
666209,80,-31,252,2067,7669,1359,1745156549303932130
666401,69,-38,257,2066,7502,1345,1745156549303932130
666593,49,-47,261,2069,7382,1384,1745156549303932130
666785,21,-52,261,2023,7388,1391,1745156549303932130
666977,-15,-48,262,1927,7428,1379,1745156549303932130
667169,-47,-43,262,1878,7478,1384,1745156549303932130
667361,-68,-36,259,1859,7509,1388,1745156549303932130
667553,-76,-28,248,1892,7551,1321,1745156549303932130
667745,-84,-15,235,1950,7657,1242,1745156549303932130
667937,-95,-5,223,2016,7766,1200,1745156549303932130
668129,-101,4,212,2074,7945,1217,1745156549303932130
668321,-96,14,203,2104,8117,1254,1745156549303932130
668513,-79,21,194,2132,8243,1297,1745156549356137747
668705,-49,20,189,2204,8274,1328,1745156549356137747
668897,-21,15,180,2300,8231,1353,1745156549356137747
669089,-7,10,175,2422,8129,1394,1745156549356137747
669281,-5,7,174,2507,8024,1422,1745156549356137747
669473,-3,4,177,2548,7984,1482,1745156549356137747
669665,1,0,182,2615,7956,1509,1745156549356137747
669857,5,-2,182,2678,7911,1518,1745156549356137747
670049,8,-4,183,2798,7821,1578,1745156549356137747
670241,5,-6,187,3002,7697,1679,1745156549356137747
670433,-6,-7,195,3201,7592,1756,1745156549356137747
670625,-20,-3,206,3345,7504,1810,1745156549356137747
670817,-27,-1,218,3476,7410,1854,1745156549416055481
671009,-26,-5,223,3620,7286,1922,1745156549416055481
671201,-20,-11,228,3721,7112,1996,1745156549416055481
671393,-22,-14,242,3858,6936,2053,1745156549416055481
671585,-39,-3,266,3921,6784,2036,1745156549416055481
671777,-60,10,302,3988,6697,2117,1745156549416055481
671969,-71,22,342,4048,6699,2244,1745156549416055481
672161,-73,34,376,4098,6712,2337,1745156549416055481
672353,-68,44,409,4193,6682,2441,1745156549416055481
672545,-57,55,447,4287,6631,2506,1745156549416055481
672737,-43,68,486,4373,6558,2495,1745156549416055481
672929,-26,77,528,4417,6429,2515,1745156549416055481
673121,-9,81,569,4483,6274,2541,1745156549472635589
673313,2,89,608,4479,6123,2559,1745156549472635589
673505,4,106,652,4445,5993,2536,1745156549472635589
673697,3,129,702,4455,5824,2488,1745156549472635589
673889,5,151,749,4486,5649,2393,1745156549472635589
674081,9,170,790,4530,5466,2317,1745156549472635589
674273,9,189,837,4595,5266,2243,1745156549472635589
674465,0,209,889,4678,5049,2174,1745156549472635589
674657,-17,226,947,4740,4827,2092,1745156549472635589
674849,-36,242,1009,4834,4577,2036,1745156549472635589
675041,-57,259,1077,4928,4406,1988,1745156549472635589
675233,-79,280,1152,5000,4308,1932,1745156549472635589
675425,-101,301,1232,5099,4189,1833,1745156549532963163
675617,-124,313,1313,5224,4024,1709,1745156549532963163
675809,-143,315,1393,5347,3803,1577,1745156549532963163
676001,-164,308,1477,5434,3538,1418,1745156549532963163
676193,-197,297,1565,5438,3265,1255,1745156549532963163
676385,-235,283,1655,5465,2989,1213,1745156549532963163
676577,-293,264,1737,5510,2709,1351,1745156549532963163
676769,-365,245,1807,5518,2466,1483,1745156549532963163
676961,-481,242,1879,5529,2203,1418,1745156549532963163
677153,-644,253,1964,5682,1797,1145,1745156549532963163
677345,-824,274,2049,6005,1390,984,1745156549532963163
677537,-994,288,2131,6421,1099,869,1745156549532963163
677729,-1132,281,2207,6872,993,728,1745156549591979238
677921,-1247,264,2274,7289,1138,520,1745156549591979238
678113,-1290,263,2343,7562,1852,459,1745156549591979238
678305,-1243,259,2450,7839,2970,214,1745156549591979238
678497,-1123,209,2558,8229,4119,-136,1745156549591979238
678689,-980,125,2627,8640,4960,-286,1745156549591979238
678881,-823,16,2670,8931,5459,-274,1745156549591979238
679073,-673,-99,2720,9098,5703,-222,1745156549591979238
679265,-555,-200,2793,9086,5796,-309,1745156549591979238
679457,-472,-287,2882,9043,5708,-411,1745156549591979238
679649,-409,-375,2968,9029,5511,-399,1745156549591979238
679841,-363,-458,3039,9003,5326,-339,1745156549591979238
680033,-353,-525,3097,8963,5092,-408,1745156549648249818
680225,-382,-579,3146,8951,4774,-591,1745156549648249818
680417,-443,-626,3197,9039,4355,-837,1745156549648249818
680609,-526,-675,3248,9202,3886,-1106,1745156549648249818
680801,-627,-726,3289,9411,3419,-1350,1745156549648249818
680993,-739,-783,3309,9606,3026,-1540,1745156549648249818
681185,-859,-847,3306,9827,2781,-1762,1745156549648249818
681377,-993,-913,3282,10070,2652,-1997,1745156549648249818
681569,-1140,-986,3257,10333,2676,-2183,1745156549648249818
681761,-1290,-1077,3236,10624,2860,-2182,1745156549648249818
681953,-1418,-1194,3219,10859,3455,-1800,1745156549648249818
682145,-1491,-1313,3202,11005,4667,-1517,1745156549648249818
682337,-1504,-1433,3193,11120,6330,-1492,1745156549712836832
682529,-1456,-1568,3175,11245,8040,-1402,1745156549712836832
682721,-1335,-1705,3138,11367,9547,-1311,1745156549712836832
682913,-1142,-1856,3093,11433,10657,-1429,1745156549712836832
683105,-888,-2001,3052,11385,11237,-1606,1745156549712836832
683297,-636,-2141,3038,11342,11313,-1909,1745156549712836832
683489,-421,-2273,3048,11313,10907,-2258,1745156549712836832
683681,-228,-2402,3055,11294,10088,-2588,1745156549712836832
683873,-58,-2534,3041,11223,9130,-2891,1745156549712836832
684065,69,-2657,3007,11083,8360,-3090,1745156549712836832
684257,143,-2772,2955,10882,7783,-3184,1745156549712836832
684449,163,-2863,2887,10655,7324,-3206,1745156549712836832
684641,130,-2940,2799,10452,6986,-3182,1745156549764662192
684833,50,-2993,2711,10347,6742,-3245,1745156549764662192
685025,-59,-3047,2641,10436,6622,-3035,1745156549764662192
685217,-185,-3120,2577,10599,6776,-2272,1745156549764662192
685409,-331,-3199,2493,10697,7184,-1332,1745156549764662192
685601,-519,-3278,2388,10763,7697,-695,1745156549764662192
685793,-731,-3363,2263,10800,8156,-360,1745156549764662192
685985,-897,-3457,2111,10815,8670,-240,1745156549764662192
686177,-959,-3551,1926,10757,9312,-363,1745156549764662192
686369,-926,-3626,1716,10606,10016,-734,1745156549764662192
686561,-829,-3686,1501,10393,10644,-1186,1745156549764662192
686753,-680,-3711,1296,10162,11048,-1540,1745156549764662192
686945,-528,-3725,1113,9985,11089,-1924,1745156549826280640
687137,-387,-3739,949,9853,10737,-2277,1745156549826280640
687329,-276,-3761,805,9768,10109,-2513,1745156549826280640
687521,-202,-3791,678,9624,9419,-2694,1745156549826280640
687713,-158,-3815,565,9432,8794,-2788,1745156549826280640
687905,-139,-3830,463,9232,8409,-2786,1745156549826280640
688097,-128,-3835,367,9044,8286,-2701,1745156549826280640
688289,-113,-3823,277,8858,8430,-2567,1745156549826280640
688481,-80,-3808,199,8796,8737,-2350,1745156549826280640
688673,-23,-3797,127,8810,9140,-2100,1745156549826280640
688865,62,-3798,53,8904,9463,-1723,1745156549826280640
689057,168,-3832,-28,9072,9659,-1251,1745156549826280640
689249,275,-3883,-121,9155,9732,-948,1745156549882550751
689441,361,-3935,-223,9093,9744,-890,1745156549882550751
689633,416,-3981,-332,8921,9642,-892,1745156549882550751
689825,454,-4015,-449,8707,9458,-879,1745156549882550751
690017,491,-4028,-592,8518,9247,-986,1745156549882550751
690209,527,-4020,-759,8368,8923,-1191,1745156549882550751
690401,566,-3998,-934,8247,8558,-1496,1745156549882550751
690593,606,-3959,-1107,8173,8166,-1910,1745156549882550751
690785,628,-3916,-1272,8235,7771,-2253,1745156549882550751
690977,618,-3878,-1426,8358,7340,-2441,1745156549882550751
691169,580,-3850,-1569,8414,6900,-2546,1745156549882550751
691361,517,-3825,-1703,8343,6500,-2630,1745156549882550751
691553,433,-3797,-1822,8107,6173,-2695,1745156549942278486
691745,334,-3761,-1921,7734,5893,-2759,1745156549942278486
691937,231,-3713,-1998,7326,5688,-2803,1745156549942278486
692129,127,-3660,-2051,6946,5546,-2773,1745156549942278486
692321,29,-3602,-2090,6605,5427,-2765,1745156549942278486
692513,-53,-3536,-2118,6277,5389,-2744,1745156549942278486
692705,-116,-3464,-2135,5953,5419,-2740,1745156549942278486
692897,-161,-3388,-2144,5726,5462,-2726,1745156549942278486
693089,-191,-3319,-2147,5544,5509,-2706,1745156549942278486
693281,-201,-3265,-2147,5414,5528,-2677,1745156549942278486
693473,-185,-3227,-2151,5309,5536,-2677,1745156549942278486
693665,-135,-3185,-2162,5183,5542,-2753,1745156549942278486
693857,-57,-3148,-2184,5141,5570,-2850,1745156550000692848
694049,40,-3116,-2214,5201,5594,-2943,1745156550000692848
694241,148,-3094,-2240,5283,5606,-2956,1745156550000692848
694433,261,-3070,-2258,5277,5651,-2968,1745156550000692848
694625,372,-3033,-2272,5116,5655,-3050,1745156550000692848
694817,487,-2981,-2289,4880,5605,-3236,1745156550000692848
695009,608,-2921,-2310,4673,5505,-3501,1745156550000692848
695201,724,-2876,-2336,4431,5254,-3635,1745156550000692848
695393,845,-2853,-2332,4013,4999,-3579,1745156550000692848
695585,893,-2761,-2309,4057,4898,-3726,1745156550000692848
695777,924,-2675,-2334,3957,4646,-3943,1745156550000692848
695969,954,-2601,-2394,3802,4317,-4137,1745156550000692848
696161,986,-2566,-2413,3530,3913,-4431,1745156550057222436
696353,988,-2548,-2379,3587,3644,-4577,1745156550057222436
696545,940,-2519,-2350,3614,3461,-4578,1745156550057222436
696737,876,-2468,-2322,3405,3349,-4673,1745156550057222436
696929,810,-2409,-2272,3221,3294,-4985,1745156550057222436
697121,735,-2376,-2225,3358,3322,-5031,1745156550057222436
697313,640,-2347,-2188,3411,3275,-4647,1745156550057222436
697505,556,-2281,-2150,3299,3362,-4540,1745156550057222436
697697,486,-2194,-2120,3226,3434,-4702,1745156550057222436
697889,435,-2123,-2110,3049,3569,-4874,1745156550057222436
698081,391,-2036,-2102,2637,3569,-5092,1745156550057222436
698273,368,-1930,-2096,2370,3604,-5539,1745156550057222436
698465,348,-1800,-2123,2092,3590,-5832,1745156550131616496
698657,333,-1666,-2174,1894,3527,-6185,1745156550131616496
698849,321,-1545,-2216,1756,3211,-6199,1745156550131616496
699041,403,-1537,-2245,1861,2873,-6666,1745156550131616496
699233,415,-1436,-2234,1841,2597,-7373,1745156550131616496
699425,379,-1315,-2197,1760,2365,-7176,1745156550131616496
699617,374,-1284,-2141,1751,2189,-7110,1745156550131616496
699809,350,-1248,-2085,1743,1984,-6631,1745156550131616496
700001,316,-1249,-2062,1642,2100,-6561,1745156550131616496
700193,254,-1180,-2073,1174,2081,-6226,1745156550131616496
700385,227,-1094,-2085,733,2333,-6283,1745156550131616496
700577,220,-1006,-2073,624,2514,-6274,1745156550131616496
700769,216,-922,-2091,884,2386,-6178,1745156550174000849
700961,214,-841,-2159,612,2341,-6172,1745156550174000849
701153,250,-752,-2117,565,2385,-6459,1745156550174000849
701345,299,-669,-2025,636,2454,-6536,1745156550174000849
701537,379,-631,-1886,871,2781,-6599,1745156550174000849
701729,459,-597,-1762,1024,2924,-6572,1745156550174000849
701921,557,-559,-1708,934,3137,-6590,1745156550174000849
702113,670,-510,-1680,728,3266,-6737,1745156550174000849
702305,788,-453,-1656,538,3273,-6942,1745156550174000849
702497,903,-394,-1628,424,3162,-7153,1745156550174000849
702689,1006,-337,-1590,411,2940,-7260,1745156550174000849
702881,1099,-284,-1544,398,2706,-7331,1745156550174000849
703073,1175,-237,-1488,458,2518,-7319,1745156550245564309
703265,1221,-194,-1431,487,2372,-7278,1745156550245564309
703457,1240,-155,-1380,468,2245,-7278,1745156550245564309
703649,1240,-124,-1333,398,2018,-7192,1745156550245564309
703841,1225,-97,-1286,320,1674,-7128,1745156550245564309
704033,1184,-69,-1235,218,1253,-7024,1745156550245564309
704225,1121,-40,-1174,111,841,-6974,1745156550245564309
704417,1037,-20,-1107,5,464,-6885,1745156550245564309
704609,936,0,-1043,-80,127,-6814,1745156550245564309
704801,828,15,-991,-235,-94,-6718,1745156550245564309
704993,733,47,-938,-448,-160,-6812,1745156550245564309
705185,658,91,-879,-639,-29,-6999,1745156550245564309
705377,591,149,-826,-723,213,-7179,1745156550292689504
705569,522,218,-778,-720,380,-7267,1745156550292689504
705761,468,285,-725,-614,500,-7290,1745156550292689504
705953,442,344,-662,-436,516,-7295,1745156550292689504
706145,447,387,-595,-256,588,-7334,1745156550292689504
706337,464,428,-537,-133,662,-7387,1745156550292689504
706529,481,477,-489,-115,778,-7483,1745156550292689504
706721,501,523,-440,-92,901,-7567,1745156550292689504
706913,519,563,-390,-53,990,-7608,1745156550292689504
707105,534,592,-344,54,989,-7519,1745156550292689504
707297,537,619,-303,167,892,-7423,1745156550292689504
707489,526,650,-264,239,709,-7317,1745156550292689504
707681,511,675,-221,274,518,-7224,1745156550358516819
707873,483,700,-177,291,259,-7136,1745156550358516819
708065,451,721,-133,306,70,-7211,1745156550358516819
708257,410,750,-93,341,-51,-7248,1745156550358516819
708449,361,780,-69,423,-95,-7311,1745156550358516819
708641,307,806,-59,521,-31,-7446,1745156550358516819
708833,253,837,-58,620,147,-7585,1745156550358516819
709025,213,864,-63,813,394,-7641,1745156550358516819
709217,179,881,-68,1094,626,-7694,1745156550358516819
709409,153,877,-72,1431,830,-7707,1745156550358516819
709601,133,860,-70,1751,958,-7684,1745156550358516819
709793,126,837,-59,2068,996,-7617,1745156550358516819
709985,133,795,-43,2375,986,-7658,1745156550472419633
710177,140,738,-31,2618,973,-7688,1745156550472419633
710369,137,681,-17,2703,965,-7667,1745156550472419633
710561,131,633,8,2681,986,-7591,1745156550472419633
710753,129,584,33,2594,980,-7580,1745156550472419633
710945,134,539,44,2432,1023,-7533,1745156550472419633
711137,138,500,44,2272,1096,-7547,1745156550472419633
711329,138,479,38,2115,1115,-7450,1745156550472419633
711521,134,464,33,2015,1055,-7395,1745156550472419633
711713,134,465,30,1912,987,-7458,1745156550472419633
711905,133,482,34,1769,939,-7530,1745156550472419633
712097,125,517,44,1701,881,-7561,1745156550472419633
712289,104,549,47,1684,822,-7556,1745156550481158147
712481,60,587,43,1665,813,-7555,1745156550481158147
712673,13,630,41,1639,839,-7484,1745156550481158147
712865,-23,670,48,1658,922,-7409,1745156550481158147
713057,-65,697,62,1667,963,-7369,1745156550481158147
713249,-101,715,80,1653,1023,-7329,1745156550481158147
713441,-135,731,103,1674,988,-7192,1745156550481158147
713633,-162,741,128,1689,907,-7121,1745156550481158147
713825,-173,744,159,1698,794,-6976,1745156550481158147
714017,-181,751,188,1695,692,-6779,1745156550481158147
714209,-186,760,214,1656,598,-6689,1745156550481158147
714401,-193,768,236,1624,555,-6603,1745156550481158147
714785,-232,815,275,1623,605,-6527,1745156550538583560
714977,-237,843,300,1619,708,-6590,1745156550538583560
715169,-221,856,330,1609,910,-6691,1745156550538583560
715361,-182,868,360,1637,1162,-6829,1745156550538583560
715553,-116,874,387,1773,1405,-7032,1745156550538583560
715745,-51,868,397,1979,1615,-7340,1745156550538583560
715937,19,842,396,2306,1794,-7807,1745156550538583560
716129,90,781,401,2788,1925,-8437,1745156550538583560
716321,150,681,406,3514,1958,-9235,1745156550538583560
716513,168,511,379,4351,1749,-9687,1745156550538583560
716705,157,288,313,5068,1305,-9632,1745156550538583560
716897,126,64,225,5443,802,-9372,1745156550538583560
717089,79,-135,127,5333,546,-9228,1745156550602745109
717281,7,-306,15,4748,634,-9268,1745156550602745109
717473,-78,-435,-108,3896,991,-9307,1745156550602745109
717665,-145,-520,-223,2908,1389,-9247,1745156550602745109
717857,-185,-558,-314,1882,1685,-9143,1745156550602745109
718049,-202,-522,-368,920,1815,-9086,1745156550602745109
718241,-201,-431,-357,148,1789,-8978,1745156550602745109
718433,-176,-315,-276,-378,1614,-8929,1745156550602745109
718625,-152,-186,-141,-667,1426,-8921,1745156550602745109
718817,-140,-50,5,-678,1239,-8937,1745156550602745109
719009,-158,70,107,-482,1144,-8882,1745156550602745109
719201,-189,156,137,-79,1113,-8775,1745156550602745109
719393,-219,214,105,377,1180,-8560,1745156550655746083
719585,-227,239,51,809,1288,-8347,1745156550655746083
719777,-191,213,3,1164,1482,-8229,1745156550655746083
719969,-137,174,-23,1388,1695,-7983,1745156550655746083
720161,-79,112,-35,1397,1832,-8001,1745156550655746083
720353,-32,36,-48,1109,1830,-8003,1745156550655746083
720545,6,-19,-61,704,1838,-7948,1745156550655746083
720737,23,-31,-66,329,1844,-7884,1745156550655746083
720929,22,-12,-56,17,1800,-7796,1745156550655746083
721121,8,23,-33,-141,1715,-7772,1745156550655746083
721313,0,66,-6,-141,1676,-7822,1745156550655746083
721505,-9,101,13,-47,1783,-7900,1745156550655746083
721697,-20,125,10,127,1972,-8034,1745156550711290055
721889,-22,143,-6,314,2165,-8093,1745156550711290055
722081,-11,154,-19,522,2299,-8139,1745156550711290055
722273,9,155,-21,694,2326,-8153,1745156550711290055
722465,31,146,-9,780,2272,-8117,1745156550711290055
722657,51,131,7,801,2129,-8078,1745156550711290055
722849,74,113,23,796,1942,-8037,1745156550711290055
723041,85,96,38,739,1719,-8001,1745156550711290055
723233,82,86,47,670,1482,-7979,1745156550711290055
723425,74,80,51,640,1291,-7947,1745156550711290055
723617,63,78,49,635,1175,-7928,1745156550711290055
723809,46,77,43,665,1098,-7894,1745156550711290055
724001,28,78,35,698,1090,-7849,1745156550771511536
724193,13,76,31,746,1110,-7819,1745156550771511536
724385,4,71,33,802,1137,-7790,1745156550771511536
724577,0,61,38,846,1171,-7792,1745156550771511536
724769,1,49,41,915,1206,-7765,1745156550771511536
724961,1,38,38,946,1234,-7754,1745156550771511536
725153,2,26,33,969,1256,-7706,1745156550771511536
725345,4,13,27,963,1286,-7713,1745156550771511536
725537,5,4,22,972,1335,-7718,1745156550771511536
725729,3,-1,19,986,1386,-7724,1745156550771511536
725921,-2,-2,17,988,1441,-7769,1745156550771511536
726113,-6,-2,17,1043,1525,-7805,1745156550771511536
726305,-8,-6,16,1071,1586,-7843,1745156550837371299
726497,-6,-13,12,1128,1630,-7897,1745156550837371299
726689,-4,-23,6,1150,1635,-7950,1745156550837371299
726881,-3,-30,3,1144,1611,-7972,1745156550837371299
727073,-2,-37,3,1117,1593,-7958,1745156550837371299
727265,-5,-44,2,1084,1535,-7942,1745156550837371299
727457,-9,-48,1,1023,1494,-7937,1745156550837371299
727649,-17,-53,-1,955,1446,-7924,1745156550837371299
727841,-28,-57,-2,883,1394,-7903,1745156550837371299
728033,-37,-59,-2,822,1367,-7885,1745156550837371299
728225,-43,-60,-4,807,1331,-7859,1745156550837371299
728417,-45,-60,-6,784,1349,-7834,1745156550837371299
728609,-46,-61,-10,765,1368,-7836,1745156550885843096
728801,-45,-62,-13,771,1395,-7810,1745156550885843096
728993,-40,-68,-17,777,1439,-7847,1745156550885843096
729185,-35,-71,-21,781,1476,-7851,1745156550885843096
729377,-26,-76,-25,775,1484,-7868,1745156550885843096
729569,-17,-80,-26,741,1487,-7911,1745156550885843096
729761,-9,-81,-23,712,1502,-7946,1745156550885843096
729953,-3,-79,-21,680,1505,-7996,1745156550885843096
730145,4,-77,-22,656,1500,-8024,1745156550885843096
730337,9,-76,-26,621,1504,-8082,1745156550885843096
730529,8,-64,-24,588,1513,-8098,1745156550885843096
730721,6,-55,-16,614,1536,-8109,1745156550885843096
730913,0,-44,-7,643,1577,-8110,1745156550945656716
731105,-8,-35,-1,690,1589,-8086,1745156550945656716
731297,-18,-29,0,733,1581,-8081,1745156550945656716
731489,-24,-25,-3,738,1564,-8064,1745156550945656716
731681,-27,-24,-5,707,1556,-8060,1745156550945656716
731873,-28,-20,-4,668,1519,-8045,1745156550945656716
732065,-29,-15,1,625,1519,-8006,1745156550945656716
732257,-27,-7,6,620,1517,-7951,1745156550945656716
732449,-25,-7,3,666,1513,-7942,1745156550945656716
732641,-26,-10,-4,689,1504,-7936,1745156550945656716
732833,-23,-8,-12,703,1512,-7904,1745156550945656716
733025,-15,-12,-17,684,1526,-7914,1745156550945656716
733217,-4,-13,-19,654,1521,-7948,1745156551003917069
733409,8,-14,-19,611,1520,-7975,1745156551003917069
733601,15,-12,-18,595,1460,-8009,1745156551003917069
733793,18,-6,-16,569,1403,-8046,1745156551003917069
733985,19,2,-14,549,1364,-8101,1745156551003917069
734177,13,8,-12,594,1327,-8142,1745156551003917069
734369,2,12,-11,619,1330,-8132,1745156551003917069
734561,-12,14,-8,665,1350,-8126,1745156551003917069
734753,-27,15,-7,683,1362,-8154,1745156551003917069
734945,-40,16,-4,674,1428,-8164,1745156551003917069
735137,-49,17,-3,679,1474,-8138,1745156551003917069
735329,-51,17,-4,682,1523,-8097,1745156551003917069
737057,-247,-83,-231,1157,4730,-7383,1745156552069106245
774881,37,-20,20,418,1290,-7347,1745156552069106245
775073,-45,7,4,364,1236,-7651,1745156552069106245
775265,-35,13,6,394,1394,-7649,1745156552069106245
775457,-48,17,6,463,1276,-7685,1745156552069106245
775649,-56,22,1,504,1356,-7679,1745156552069106245
775841,-43,27,1,538,1537,-7707,1745156552069106245
776033,-40,29,-4,593,1567,-7753,1745156552069106245
776225,-36,38,-15,639,1538,-7817,1745156552069106245
776417,-33,37,-23,689,1492,-7863,1745156552069106245
776609,-33,33,-25,773,1520,-7911,1745156552069106245
776801,-32,26,-23,829,1569,-7991,1745156552069106245
776993,-39,17,-19,788,1573,-8075,1745156552186373716
777185,-48,16,-14,738,1560,-8139,1745156552186373716
777377,-52,15,-11,703,1567,-8210,1745156552186373716
777569,-56,14,-10,660,1589,-8269,1745156552186373716
777761,-60,16,-9,619,1643,-8321,1745156552186373716
777953,-69,21,-5,621,1666,-8357,1745156552186373716
778145,-81,25,0,604,1666,-8398,1745156552186373716
778337,-92,31,3,577,1662,-8387,1745156552186373716
778529,-101,38,5,494,1690,-8376,1745156552186373716
778721,-108,51,9,430,1716,-8327,1745156552186373716
778913,-108,64,14,393,1765,-8243,1745156552186373716
779105,-100,74,15,432,1818,-8183,1745156552186373716
779297,-83,83,15,484,1927,-8118,1745156552193760836
779489,-61,88,18,551,2063,-8076,1745156552193760836
779681,-32,86,17,619,2119,-8061,1745156552193760836
779873,2,72,18,709,2120,-8084,1745156552193760836
780065,33,57,21,775,2076,-8098,1745156552193760836
780257,65,40,25,726,2013,-8118,1745156552193760836
780449,100,31,26,701,1861,-8111,1745156552193760836
780641,116,45,20,768,1378,-7572,1745156552193760836
780833,11,49,-4,606,-276,-9287,1745156552193760836
781025,81,28,-8,910,2956,-7534,1745156552193760836
781217,220,5,29,925,2885,-7909,1745156552193760836
781409,263,18,-35,877,1839,-7930,1745156552193760836
781601,316,11,-144,1156,1104,-7937,1745156552228790620
781793,369,45,-186,1162,808,-7785,1745156552228790620
781985,266,20,-186,1174,462,-8014,1745156552228790620
782177,-874,-61,-270,3644,-6696,-7768,1745156552228790620
782369,-694,-92,-419,2320,-3439,-7678,1745156552228790620
782561,-812,-165,-401,1669,-918,-7840,1745156552228790620
782753,-828,-157,-439,963,1947,-7829,1745156552228790620
782945,-757,-135,-518,213,4024,-7403,1745156552228790620
783137,-451,-204,-556,245,4590,-7308,1745156552228790620
783329,-174,-220,-548,484,3967,-7842,1745156552228790620
783521,13,-219,-505,983,2740,-8436,1745156552228790620
783713,109,-221,-477,1517,1396,-8970,1745156552228790620
783905,71,-214,-495,1826,353,-9272,1745156552290348547
784097,-39,-169,-532,1722,-153,-9637,1745156552290348547
784289,-156,-109,-555,1579,-342,-9303,1745156552290348547
784481,-272,-68,-563,1417,-375,-9082,1745156552290348547
784673,-376,-51,-585,1363,-330,-9028,1745156552290348547
784865,-485,-60,-624,1408,-212,-8608,1745156552290348547
785057,-573,-84,-667,1531,139,-8243,1745156552290348547
785249,-650,-107,-729,1727,721,-8193,1745156552290348547
785441,-733,-125,-820,1894,1363,-8153,1745156552290348547
785633,-781,-154,-913,2096,1942,-8122,1745156552290348547
785825,-767,-203,-984,2329,2530,-8500,1745156552290348547
786017,-745,-277,-1052,2720,3040,-9043,1745156552290348547
786209,-772,-399,-1115,3057,3185,-9398,1745156552345668510
786401,-797,-545,-1159,3375,3064,-9531,1745156552345668510
786593,-813,-686,-1166,3617,2975,-9406,1745156552345668510
786785,-827,-833,-1143,3827,3002,-9208,1745156552345668510
786977,-811,-974,-1123,3922,3201,-9010,1745156552345668510
787169,-749,-1105,-1121,3790,3574,-9356,1745156552345668510
787361,-650,-1252,-1118,3355,4032,-10115,1745156552345668510
787553,-509,-1370,-1080,2813,4066,-9449,1745156552345668510
787745,-214,-1389,-1040,2313,3655,-8049,1745156552345668510
787937,187,-1385,-1034,1965,2631,-6331,1745156552345668510
788129,533,-1401,-1055,1825,1650,-6742,1745156552345668510
788321,646,-1411,-1101,1783,1326,-8252,1745156552345668510
788513,553,-1399,-1193,1689,1865,-8609,1745156552405931658
788705,409,-1383,-1287,1501,3074,-8232,1745156552405931658
788897,317,-1412,-1347,1522,4308,-7892,1745156552405931658
789089,279,-1470,-1314,1823,4988,-7846,1745156552405931658
789281,224,-1537,-1200,2307,4695,-7753,1745156552405931658
789473,137,-1559,-1094,2841,3606,-7965,1745156552405931658
789665,58,-1621,-1028,3131,2250,-7944,1745156552405931658
789857,4,-1670,-982,2939,1141,-7851,1745156552405931658
790049,-60,-1630,-947,2315,480,-7676,1745156552405931658
790241,-121,-1534,-881,1534,271,-7508,1745156552405931658
790433,-198,-1397,-792,763,250,-7258,1745156552405931658
790625,-277,-1250,-704,71,305,-6993,1745156552405931658
790817,-346,-1081,-615,-383,369,-6869,1745156552476863354
791009,-389,-886,-524,-471,444,-6695,1745156552476863354
791201,-420,-678,-431,-290,591,-6646,1745156552476863354
791393,-466,-461,-328,-3,735,-6379,1745156552476863354
791585,-498,-265,-203,356,612,-5905,1745156552476863354
791777,-472,-109,-61,837,421,-5837,1745156552476863354
791969,-457,17,47,1198,273,-5758,1745156552476863354
792161,-474,131,108,1272,175,-5585,1745156552476863354
792353,-506,250,168,1122,72,-5208,1745156552476863354
792545,-508,371,265,873,59,-4975,1745156552476863354
792737,-487,512,398,675,150,-4660,1745156552476863354
792929,-451,660,535,653,297,-4384,1745156552476863354
793121,-424,811,668,780,404,-4121,1745156552534532150
793313,-401,953,800,969,481,-3782,1745156552534532150
793505,-365,1070,937,1173,568,-3558,1745156552534532150
793697,-342,1182,1082,1406,638,-3432,1745156552534532150
793889,-324,1276,1240,1559,640,-3247,1745156552534532150
794081,-304,1357,1401,1770,561,-3165,1745156552534532150
794273,-282,1441,1563,1775,858,-3252,1745156552534532150
794465,-265,1527,1716,1750,1028,-3398,1745156552534532150
794657,-227,1626,1862,1697,1159,-3569,1745156552534532150
794849,-174,1729,2007,1678,1175,-3788,1745156552534532150
795041,-125,1828,2153,1820,1245,-4004,1745156552534532150
795233,-98,1928,2270,2033,1259,-4237,1745156552534532150
795425,-86,2011,2367,2107,1062,-4287,1745156552579771059
795617,-64,2099,2464,2069,902,-4408,1745156552579771059
795809,-56,2199,2565,1980,793,-4429,1745156552579771059
796001,-72,2302,2669,1903,700,-4451,1745156552579771059
796193,-117,2422,2776,1886,686,-4546,1745156552579771059
796385,-182,2558,2882,1973,663,-4587,1745156552579771059
796577,-242,2690,2984,2146,839,-4768,1745156552579771059
796769,-325,2831,3086,2409,1095,-4921,1745156552579771059
796961,-410,2958,3161,2573,1417,-4936,1745156552579771059
797153,-492,3071,3246,3060,1970,-5439,1745156552579771059
797345,-654,3232,3335,3399,2301,-5001,1745156552579771059
797537,-813,3313,3405,3941,2619,-4720,1745156552579771059
797729,-971,3346,3447,4519,2889,-4499,1745156552645621656
797921,-1114,3345,3468,4788,3178,-4407,1745156552645621656
798113,-1211,3328,3506,4965,3499,-4334,1745156552645621656
798305,-1278,3320,3532,5098,3898,-4269,1745156552645621656
798497,-1340,3319,3518,5236,4201,-4247,1745156552645621656
798689,-1399,3309,3465,5411,4397,-4203,1745156552645621656
798881,-1441,3281,3393,5524,4437,-3995,1745156552645621656
799073,-1444,3245,3319,5592,4464,-3908,1745156552645621656
799265,-1403,3216,3243,5593,4614,-4085,1745156552645621656
799457,-1337,3208,3155,5597,5025,-4266,1745156552645621656
799649,-1276,3219,3043,5676,5618,-4423,1745156552645621656
799841,-1237,3240,2904,5835,6283,-4573,1745156552645621656
800033,-1224,3260,2751,6008,6979,-4677,1745156552698638671
800225,-1212,3276,2601,6136,7596,-4744,1745156552698638671
800417,-1180,3283,2474,6144,8129,-4796,1745156552698638671
800609,-1118,3299,2378,6086,8627,-4824,1745156552698638671
800801,-1036,3325,2310,6009,8969,-4770,1745156552698638671
800993,-951,3366,2258,5926,9183,-4768,1745156552698638671
801185,-869,3437,2218,5817,9317,-4905,1745156552698638671
801377,-785,3536,2184,5741,9419,-4908,1745156552698638671
801569,-700,3643,2150,5788,9459,-4857,1745156552698638671
801761,-624,3748,2106,5939,9401,-4885,1745156552698638671
801953,-554,3841,2054,6071,9200,-4789,1745156552698638671
802145,-474,3927,2000,6205,8917,-4560,1745156552698638671
802337,-378,4009,1939,6367,8576,-4380,1745156552756688662
802529,-269,4079,1855,6543,8257,-4279,1745156552756688662
802721,-158,4138,1742,6785,8027,-4139,1745156552756688662
802913,-58,4170,1596,7099,7853,-3887,1745156552756688662
803105,35,4172,1419,7497,7842,-3683,1745156552756688662
803297,106,4147,1209,7903,7977,-3561,1745156552756688662
803489,167,4107,975,8178,8323,-3571,1745156552756688662
803681,221,4068,737,8325,8817,-3689,1745156552756688662
803873,285,4038,511,8338,9409,-3805,1745156552756688662
804065,359,4014,304,8363,9982,-3856,1745156552756688662
804257,438,3991,104,8455,10410,-3882,1745156552756688662
804449,515,3959,-91,8532,10605,-3845,1745156552756688662
804641,581,3906,-276,8677,10527,-3828,1745156552813116324
804833,648,3836,-416,8857,10216,-3804,1745156552813116324
805025,702,3760,-521,9058,9783,-3715,1745156552813116324
805217,732,3696,-615,9187,9307,-3563,1745156552813116324
805409,739,3636,-701,9148,8832,-3605,1745156552813116324
805601,736,3581,-776,8967,8385,-3672,1745156552813116324
805793,734,3540,-843,8768,8085,-3685,1745156552813116324
805985,732,3508,-910,8586,7844,-3632,1745156552813116324
806177,740,3478,-981,8511,7666,-3531,1745156552813116324
806369,740,3445,-1060,8555,7454,-3484,1745156552813116324
806561,732,3388,-1137,8704,7242,-3418,1745156552813116324
806753,740,3322,-1218,8879,7122,-3402,1745156552813116324
806945,747,3267,-1307,9053,7063,-3447,1745156552887631320
807137,747,3201,-1402,9251,7072,-3542,1745156552887631320
807329,741,3124,-1507,9464,7048,-3616,1745156552887631320
807521,735,3032,-1617,9680,6934,-3717,1745156552887631320
807713,718,2931,-1728,9846,6743,-3770,1745156552887631320
807905,706,2834,-1842,9968,6461,-3738,1745156552887631320
808097,703,2743,-1966,10091,6087,-3714,1745156552887631320
808289,688,2654,-2091,10131,5688,-3841,1745156552887631320
808481,649,2562,-2182,10121,5205,-3843,1745156552887631320
808673,604,2473,-2243,10143,4767,-3870,1745156552887631320
808865,535,2393,-2298,10104,4358,-4005,1745156552887631320
809057,457,2322,-2348,10052,4000,-4168,1745156552887631320
809249,349,2258,-2376,10000,3706,-4286,1745156552933116738
809441,241,2187,-2394,9990,3481,-4282,1745156552933116738
809633,136,2124,-2405,9925,3404,-4204,1745156552933116738
809825,35,2065,-2405,9839,3502,-4008,1745156552933116738
810017,-46,1999,-2394,9722,3721,-3726,1745156552933116738
810209,-118,1926,-2379,9654,3967,-3491,1745156552933116738
810401,-175,1832,-2366,9615,4177,-3212,1745156552933116738
810593,-192,1726,-2356,9578,4402,-3005,1745156552933116738
810785,-191,1613,-2355,9606,4554,-2934,1745156552933116738
810977,-204,1485,-2367,9601,4569,-2952,1745156552933116738
811169,-222,1353,-2386,9521,4507,-2852,1745156552933116738
811361,-228,1222,-2389,9313,4427,-2771,1745156552933116738
811553,-214,1093,-2382,9029,4355,-2704,1745156552991447715
811745,-204,978,-2372,8736,4292,-2713,1745156552991447715
811937,-216,886,-2356,8397,4232,-2701,1745156552991447715
812129,-239,817,-2335,8109,4154,-2667,1745156552991447715
812321,-283,752,-2310,7824,4115,-2534,1745156552991447715
812513,-330,701,-2282,7619,4155,-2446,1745156552991447715
812705,-403,671,-2253,7464,4246,-2356,1745156552991447715
812897,-477,647,-2220,7365,4443,-2227,1745156552991447715
813089,-541,625,-2173,7350,4683,-2114,1745156552991447715
813281,-596,591,-2115,7404,4883,-1999,1745156552991447715
813473,-636,544,-2064,7442,5092,-1795,1745156552991447715
813665,-671,490,-2022,7428,5236,-1462,1745156552991447715
813857,-629,416,-1990,7304,5350,-1049,1745156553048607037
814049,-565,330,-1956,7126,5438,-1027,1745156553048607037
814241,-538,252,-1925,6922,5421,-878,1745156553048607037
814433,-515,184,-1904,6742,5274,-694,1745156553048607037
814625,-489,122,-1897,6579,5098,-584,1745156553048607037
814817,-472,70,-1895,6482,4891,-575,1745156553048607037
815009,-479,70,-1890,6311,4677,-243,1745156553048607037
815201,-456,22,-1887,6064,4705,-35,1745156553048607037
815393,-467,-62,-1885,5974,4766,-121,1745156553048607037
815585,-491,-89,-1890,5812,4942,-165,1745156553048607037
815777,-530,-109,-1899,5618,5136,-126,1745156553048607037
815969,-568,-125,-1903,5400,5340,-83,1745156553048607037
816161,-585,-131,-1892,5241,5632,-3,1745156553106229427
816353,-572,-130,-1871,5142,5841,49,1745156553106229427
816545,-549,-129,-1864,5217,5903,149,1745156553106229427
816737,-538,-116,-1857,5322,5949,212,1745156553106229427
816929,-540,-100,-1818,5504,6057,193,1745156553106229427
817121,-547,-100,-1772,5653,6290,216,1745156553106229427
817313,-556,-103,-1731,5730,6584,260,1745156553106229427
817505,-554,-114,-1694,5758,6799,384,1745156553106229427
817697,-539,-137,-1673,5706,6740,478,1745156553106229427
817889,-517,-153,-1662,5565,6901,755,1745156553106229427
818081,-442,-165,-1638,5435,6887,939,1745156553106229427
818273,-354,-185,-1619,5330,7061,1033,1745156553106229427
818465,-342,-189,-1620,5219,6991,1254,1745156553191667240
818657,-324,-172,-1621,5096,6803,1453,1745156553191667240
818849,-274,-172,-1618,4993,6769,1468,1745156553191667240
819041,-255,-178,-1631,4869,6754,1552,1745156553191667240
819233,-248,-167,-1649,4758,6665,1649,1745156553191667240
819425,-237,-163,-1658,4811,6539,1675,1745156553191667240
819617,-255,-159,-1666,4825,6587,1733,1745156553191667240
819809,-288,-138,-1674,4951,6463,1517,1745156553191667240
820001,-313,-141,-1666,4729,6852,1814,1745156553191667240
820193,-315,-126,-1674,4852,6794,1376,1745156553191667240
820385,-316,-143,-1665,5128,6549,1190,1745156553191667240
820577,-343,-193,-1610,5810,6573,1103,1745156553191667240
820769,-333,-181,-1561,5574,7336,1020,1745156553220456248
820961,-306,-187,-1528,4980,7872,1129,1745156553220456248
821153,-257,-140,-1507,4527,8051,958,1745156553220456248
821345,-237,-169,-1494,4894,7580,1381,1745156553220456248
821537,-122,74,-1534,2374,8362,1319,1745156553220456248
821729,-113,108,-1540,4068,7402,795,1745156553220456248
821921,-150,87,-1491,5495,6654,868,1745156553220456248
822113,-171,69,-1448,6253,6557,850,1745156553220456248
822305,-192,-4,-1416,6655,6651,796,1745156553220456248
822497,-208,-115,-1392,6398,7179,782,1745156553220456248
822689,-185,-228,-1397,5740,7605,989,1745156553220456248
822881,-130,-297,-1411,5145,7436,834,1745156553220456248
823073,-89,-339,-1392,4412,7045,837,1745156553296026131
823265,-47,-330,-1340,3997,6775,1013,1745156553296026131
823457,-69,-318,-1292,3973,6537,876,1745156553296026131
823649,-116,-327,-1250,4605,6268,919,1745156553296026131
823841,-159,-336,-1227,4705,6457,1727,1745156553296026131
824033,-185,-289,-1242,4294,6934,1243,1745156553296026131
824225,-212,-351,-1220,4659,6856,1537,1745156553296026131
824417,-216,-366,-1201,4864,6618,1385,1745156553296026131
824609,-232,-397,-1188,4989,6408,948,1745156553296026131
824801,-260,-428,-1166,4638,6546,1415,1745156553296026131
824993,-245,-367,-1163,4255,6729,563,1745156553296026131
825185,-266,-434,-1124,4686,6567,822,1745156553296026131
825377,-265,-398,-1099,4741,6555,516,1745156553349435278
825569,-266,-422,-1077,4914,6630,498,1745156553349435278
825761,-248,-422,-1044,4768,6863,732,1745156553349435278
825953,-250,-464,-995,5215,6745,805,1745156553349435278
826145,-233,-491,-958,4537,7304,1115,1745156553349435278
826337,-202,-523,-927,4877,7216,1229,1745156553349435278
826529,-190,-552,-897,4804,7054,1492,1745156553349435278
826721,-163,-570,-868,4385,7015,1734,1745156553349435278
826913,-134,-565,-845,4049,6942,1866,1745156553349435278
827105,-96,-509,-842,2608,7730,2472,1745156553349435278
827297,-17,-443,-859,2902,7175,2034,1745156553349435278
827489,2,-412,-824,3333,6421,2086,1745156553349435278
827681,4,-396,-776,4276,5691,1864,1745156553399772996
827873,-48,-415,-737,4392,5853,1903,1745156553399772996
828065,-101,-432,-722,4341,6144,1845,1745156553399772996
828257,-144,-475,-711,3929,6597,1997,1745156553399772996
828449,-149,-487,-698,3364,6937,2048,1745156553399772996
828641,-146,-476,-678,2942,7018,1991,1745156553399772996
828833,-129,-447,-650,2840,6803,1851,1745156553399772996
829025,-109,-425,-623,2930,6468,1721,1745156553399772996
829217,-101,-404,-602,3011,6245,1582,1745156553399772996
829409,-103,-386,-574,3057,6131,1488,1745156553399772996
829601,-106,-381,-540,3065,6177,1546,1745156553399772996
829793,-106,-383,-506,3014,6319,1681,1745156553399772996
829985,-109,-386,-471,2893,6533,1870,1745156553463307155
830177,-110,-388,-434,2662,6779,2031,1745156553463307155
830369,-102,-373,-401,2373,7024,2130,1745156553463307155
830561,-83,-349,-369,2134,7208,2244,1745156553463307155
830753,-56,-322,-340,2017,7259,2312,1745156553463307155
830945,-18,-294,-316,1930,7231,2354,1745156553463307155
831137,18,-276,-295,1979,7098,2399,1745156553463307155
831329,42,-259,-278,2013,6962,2411,1745156553463307155
831521,56,-241,-258,2024,6837,2396,1745156553463307155
831713,66,-228,-234,1995,6818,2380,1745156553463307155
831905,69,-213,-213,1931,6884,2335,1745156553463307155
832097,58,-196,-192,1829,7041,2271,1745156553463307155
832289,35,-173,-165,1771,7251,2225,1745156553512475716
832481,5,-150,-138,1765,7455,2245,1745156553512475716
832673,-25,-125,-115,1749,7667,2301,1745156553512475716
832865,-51,-101,-100,1722,7856,2363,1745156553512475716
833057,-63,-79,-94,1714,7996,2436,1745156553512475716
833249,-60,-59,-96,1673,8069,2463,1745156553512475716
833441,-38,-41,-106,1650,8074,2415,1745156553512475716
833633,-6,-25,-118,1634,7972,2304,1745156553512475716
833825,31,-16,-127,1605,7787,2193,1745156553512475716
834017,70,-12,-129,1598,7636,2081,1745156553512475716
834209,103,-5,-123,1611,7533,1939,1745156553512475716
834401,128,-6,-110,1646,7487,1914,1745156553512475716
834593,147,-16,-92,1650,7587,1963,1745156553575097644
834785,148,-26,-78,1649,7783,2043,1745156553575097644
834977,130,-36,-64,1560,7968,2174,1745156553575097644
835169,109,-40,-46,1389,8138,2229,1745156553575097644
835361,94,-43,-42,1283,8107,2254,1745156553575097644
835553,91,-45,-40,1287,7919,2247,1745156553575097644
835745,89,-48,-35,1354,7689,2178,1745156553575097644
835937,70,-50,-34,1411,7521,2016,1745156553575097644
836129,38,-53,-34,1466,7432,1928,1745156553575097644
836321,10,-56,-33,1488,7423,1818,1745156553575097644
836513,-15,-58,-31,1544,7494,1695,1745156553575097644
836705,-46,-60,-30,1613,7619,1692,1745156553575097644
836897,-78,-60,-24,1631,7837,1749,1745156553634253458
837089,-106,-54,-10,1597,8114,1803,1745156553634253458
837281,-117,-55,4,1606,8411,1909,1745156553634253458
837473,-108,-55,9,1599,8644,2006,1745156553634253458
837665,-86,-60,7,1597,8692,2111,1745156553634253458
837857,-55,-65,3,1603,8585,2168,1745156553634253458
838049,-28,-73,0,1593,8369,2169,1745156553634253458
838241,-9,-81,-7,1566,8162,2113,1745156553634253458
838433,-1,-81,-17,1526,8011,2053,1745156553634253458
838625,6,-81,-26,1514,7915,2037,1745156553634253458
838817,12,-82,-36,1515,7928,2028,1745156553634253458
839009,14,-83,-47,1489,7903,2021,1745156553634253458
839201,8,-87,-49,1513,7817,2057,1745156553706578578
839393,-3,-93,-46,1507,7787,2127,1745156553706578578
839585,-16,-92,-44,1472,7772,2184,1745156553706578578
839777,-27,-91,-45,1426,7738,2215,1745156553706578578
839969,-37,-87,-50,1369,7741,2254,1745156553706578578
840161,-45,-81,-56,1340,7660,2240,1745156553706578578
840353,-55,-70,-60,1311,7595,2195,1745156553706578578
840545,-65,-59,-58,1302,7544,2125,1745156553706578578
840737,-72,-50,-55,1350,7517,2039,1745156553706578578
840929,-74,-47,-53,1411,7514,1972,1745156553706578578
841121,-73,-39,-47,1419,7587,1916,1745156553706578578
841313,-63,-33,-33,1413,7658,1872,1745156553706578578
841505,-45,-27,-15,1408,7770,1860,1745156553760268192
841697,-20,-19,4,1383,7878,1846,1745156553760268192
841889,9,-9,22,1439,7883,1837,1745156553760268192
842081,41,-7,39,1533,7810,1838,1745156553760268192
842273,69,-7,53,1637,7686,1851,1745156553760268192
842465,87,-12,65,1722,7580,1844,1745156553760268192
842657,93,-26,74,1802,7460,1817,1745156553760268192
842849,90,-46,77,1783,7393,1771,1745156553760268192
843041,78,-60,80,1743,7353,1727,1745156553760268192
843233,58,-72,79,1657,7373,1712,1745156553760268192
843425,31,-73,84,1563,7446,1712,1745156553760268192
843617,7,-78,98,1602,7521,1706,1745156553760268192
843809,-16,-82,108,1608,7590,1739,1745156553812493913
844001,-40,-87,109,1597,7735,1717,1745156553812493913
844193,-58,-92,114,1536,7969,1692,1745156553812493913
844385,-66,-91,133,1516,8139,1677,1745156553812493913
844577,-57,-86,149,1535,8267,1686,1745156553812493913
844769,-34,-79,144,1580,8323,1669,1745156553812493913
844961,-12,-73,130,1615,8281,1572,1745156553812493913
845153,4,-77,112,1704,8197,1535,1745156553812493913
845345,16,-87,101,1687,8223,1576,1745156553812493913
845537,24,-93,110,1686,8319,1589,1745156553812493913
845729,30,-100,124,1666,8397,1643,1745156553812493913
845921,35,-108,129,1646,8416,1737,1745156553812493913
846113,41,-119,126,1606,8385,1857,1745156553865625928
846305,48,-124,119,1504,8308,1917,1745156553865625928
846497,51,-125,113,1412,8193,1966,1745156553865625928
846689,56,-123,103,1353,8003,1978,1745156553865625928
846881,56,-118,85,1396,7749,1964,1745156553865625928
847073,44,-115,63,1421,7518,1935,1745156553865625928
847265,17,-112,49,1402,7374,1924,1745156553865625928
847457,-16,-101,45,1344,7414,1947,1745156553865625928
847649,-43,-90,49,1307,7623,1981,1745156553865625928
847841,-60,-80,49,1281,7923,2000,1745156553865625928
848033,-67,-68,50,1330,8159,2011,1745156553865625928
848225,-66,-56,51,1379,8293,2008,1745156553865625928
848417,-52,-46,52,1464,8350,1961,1745156553931181943
848609,-32,-37,48,1521,8348,1925,1745156553931181943
848801,-10,-32,42,1565,8283,1896,1745156553931181943
848993,16,-31,39,1588,8176,1909,1745156553931181943
849185,40,-29,37,1628,8061,1949,1745156553931181943
849377,61,-30,35,1616,8006,1994,1745156553931181943
849569,73,-30,37,1625,7956,2003,1745156553931181943
849761,76,-35,36,1632,7836,2054,1745156553931181943
849953,71,-40,32,1654,7731,2036,1745156553931181943
850145,53,-43,29,1643,7650,2079,1745156553931181943
850337,36,-47,36,1653,7653,2017,1745156553931181943
850529,11,-46,42,1678,7650,2007,1745156553931181943
850721,9,-48,43,1695,7640,2153,1745156553995457137
850913,77,-52,36,1768,7397,3102,1745156553995457137
851105,353,-57,9,1511,8155,803,1745156553995457137
851297,-23,-100,34,1798,7719,2133,1745156553995457137
851489,-86,-74,34,1832,7857,1699,1745156553995457137
851681,-110,-31,34,1729,7964,1903,1745156553995457137
851873,-90,-19,43,1698,8265,1852,1745156553995457137
852065,-70,-2,55,1739,8487,1823,1745156553995457137
852257,-42,7,59,1814,8586,1861,1745156553995457137
852449,-9,14,62,1871,8515,1865,1745156553995457137
852641,8,21,63,1918,8324,1902,1745156553995457137
852833,16,26,66,1897,8150,1987,1745156553995457137
853025,21,30,72,1855,8043,2059,1745156554045820323
853217,15,37,74,1822,7994,2121,1745156554045820323
853409,8,43,71,1833,7938,2185,1745156554045820323
853601,-2,45,69,1845,7901,2266,1745156554045820323
853793,-16,49,67,1870,7881,2248,1745156554045820323
853985,-40,47,66,1920,7856,2244,1745156554045820323
854177,-67,45,61,1950,7836,2193,1745156554045820323
854369,-96,39,56,1950,7844,2189,1745156554045820323
854561,-122,33,53,1960,7842,2142,1745156554045820323
854753,-128,32,53,1880,7859,2195,1745156554045820323
854945,-120,30,53,1844,7891,2204,1745156554045820323
855137,-114,34,51,1809,7887,2196,1745156554045820323
855329,-108,39,51,1864,7827,2208,1745156554169989189
855521,-106,40,55,1954,7752,2143,1745156554169989189
855713,-115,43,62,2037,7697,2098,1745156554169989189
855905,-124,45,74,2089,7667,2043,1745156554169989189
856097,-135,44,88,2177,7620,1987,1745156554169989189
856289,-149,50,101,2259,7610,1841,1745156554169989189
856481,-175,80,117,2100,7659,2243,1745156554169989189
856673,-181,44,133,2206,7637,2265,1745156554169989189
856865,-163,28,151,2266,7738,2229,1745156554169989189
857057,-165,32,167,2263,7871,2362,1745156554169989189
857249,-145,35,182,2251,8011,2482,1745156554169989189
857441,-100,34,193,2306,8115,2630,1745156554169989189
857633,-37,13,200,2423,8185,2598,1745156554177290997
857825,-19,12,199,2228,8058,2665,1745156554177290997
858017,6,17,207,2140,7886,2741,1745156554177290997
858209,45,-5,207,2554,7883,2580,1745156554177290997
858401,74,-3,199,2240,7900,2573,1745156554177290997
858593,93,0,213,1984,7795,2564,1745156554177290997
858785,139,13,227,1897,7625,2502,1745156554177290997
858977,161,34,236,1919,7361,2453,1745156554177290997
859169,162,54,246,2042,7078,2439,1745156554177290997
859361,143,69,261,2140,6932,2435,1745156554177290997
859553,114,82,281,2234,6822,2423,1745156554177290997
859745,84,85,301,2269,6734,2494,1745156554177290997
859937,63,78,323,2283,6707,2585,1745156554223288337
860129,44,70,348,2330,6668,2714,1745156554223288337
860321,21,56,377,2417,6616,2842,1745156554223288337
860513,1,42,407,2518,6600,2914,1745156554223288337
860705,-16,27,437,2633,6624,2938,1745156554223288337
860897,-26,16,464,2750,6621,2941,1745156554223288337
861089,-19,2,484,2895,6595,2927,1745156554223288337
861281,2,-19,503,3108,6512,2864,1745156554223288337
861473,25,-48,521,3387,6342,2720,1745156554223288337
861665,43,-75,544,3656,6127,2541,1745156554223288337
861857,54,-102,575,3926,5934,2382,1745156554223288337
862049,62,-132,612,4159,5800,2230,1745156554223288337
862241,62,-164,648,4379,5677,2085,1745156554281333641
862433,63,-202,681,4551,5511,1985,1745156554281333641
862625,64,-245,714,4703,5359,1905,1745156554281333641
862817,54,-285,754,4780,5196,1871,1745156554281333641
863009,29,-313,802,4813,5070,1809,1745156554281333641
863201,-7,-326,859,4776,5021,1828,1745156554281333641
863393,-43,-323,926,4706,5015,1852,1745156554281333641
863585,-58,-305,997,4666,5121,1910,1745156554281333641
863777,-77,-285,1069,4724,5251,1962,1745156554281333641
863969,-77,-262,1135,4782,5368,1982,1745156554281333641
864161,-69,-234,1201,4917,5423,1968,1745156554281333641
864353,-56,-211,1267,5146,5388,1988,1745156554281333641
864545,-37,-196,1328,5384,5267,2028,1745156554339367069
864737,-11,-187,1380,5603,5187,2050,1745156554339367069
864929,14,-181,1426,5732,5131,2069,1745156554339367069
865121,34,-172,1474,5789,5086,2098,1745156554339367069
865313,54,-158,1521,5844,5019,2021,1745156554339367069
865505,81,-150,1566,5914,4961,1884,1745156554339367069
865697,113,-136,1607,5974,4985,1735,1745156554339367069
865889,139,-103,1650,6040,5069,1545,1745156554339367069
866081,154,-73,1699,6106,5160,1263,1745156554339367069
866273,180,-36,1750,6200,5232,999,1745156554339367069
866465,215,7,1801,6363,5234,661,1745156554339367069
866657,257,29,1854,6558,5204,338,1745156554339367069
866849,297,47,1901,6652,5154,49,1745156554399001836
867041,331,75,1945,6676,5111,-204,1745156554399001836
867233,356,110,1993,6653,5081,-451,1745156554399001836
867425,373,145,2047,6612,5068,-690,1745156554399001836
867617,389,181,2110,6671,5046,-882,1745156554399001836
867809,406,216,2178,6745,4987,-1087,1745156554399001836
868001,430,250,2249,6874,4972,-1247,1745156554399001836
868193,453,280,2316,7066,4919,-1353,1745156554399001836
868385,484,291,2376,7334,4889,-1409,1745156554399001836
868577,519,281,2428,7557,4942,-1441,1745156554399001836
868769,564,248,2471,7787,4998,-1558,1745156554399001836
868961,601,209,2506,8019,5115,-1599,1745156554399001836
869153,612,161,2544,8053,5309,-1634,1745156554457168336
869345,625,119,2614,8350,5495,-1758,1745156554457168336
869537,588,41,2632,9057,5167,-1889,1745156554457168336
869729,544,-48,2613,9078,5226,-1858,1745156554457168336
869921,502,-144,2665,8963,5252,-2042,1745156554457168336
870113,447,-216,2727,8830,5243,-2273,1745156554457168336
870305,376,-279,2778,8747,5202,-2457,1745156554457168336
870497,301,-344,2825,8746,5165,-2573,1745156554457168336
870689,211,-402,2866,8830,5160,-2675,1745156554457168336
870881,101,-460,2900,8917,5114,-2756,1745156554457168336
871073,-15,-531,2928,9080,4998,-2859,1745156554457168336
871265,-122,-622,2947,9166,4836,-3084,1745156554457168336
871457,-206,-711,2953,9047,4825,-3394,1745156554517992729
871649,-274,-779,2957,8855,4985,-3727,1745156554517992729
871841,-311,-839,2961,8730,5372,-3994,1745156554517992729
872033,-297,-906,2979,8814,5949,-3896,1745156554517992729
872225,-232,-1014,2992,9041,6606,-3572,1745156554517992729
872417,-151,-1140,2982,9300,7261,-3302,1745156554517992729
872609,-71,-1293,2951,9559,7736,-3095,1745156554517992729
872801,25,-1473,2919,9730,7971,-3080,1745156554517992729
872993,142,-1673,2893,9642,8267,-3000,1745156554517992729
873185,251,-1859,2870,9335,8510,-2743,1745156554517992729
873377,307,-1994,2860,9034,8747,-2705,1745156554517992729
873569,299,-2101,2838,8765,8845,-2926,1745156554517992729
873761,274,-2214,2792,8610,8766,-3270,1745156554572840144
873953,252,-2307,2730,8481,8402,-3660,1745156554572840144
874145,226,-2395,2659,8366,7853,-4116,1745156554572840144
874337,197,-2489,2581,8238,7511,-4583,1745156554572840144
874529,164,-2569,2485,8126,7272,-4752,1745156554572840144
874721,124,-2631,2392,8047,7348,-4890,1745156554572840144
874913,70,-2694,2289,8009,7677,-4661,1745156554572840144
875105,34,-2769,2180,7966,8347,-4385,1745156554572840144
875297,29,-2842,2068,7885,9192,-4164,1745156554572840144
875489,51,-2930,1952,7884,10016,-3713,1745156554572840144
875681,91,-3032,1837,7866,10665,-3199,1745156554572840144
875873,138,-3134,1723,7725,11106,-2719,1745156554572840144
876065,178,-3226,1613,7551,11268,-2364,1745156554633006470
876257,203,-3300,1499,7349,11100,-2210,1745156554633006470
876449,222,-3371,1382,7161,10656,-2304,1745156554633006470
876641,243,-3431,1261,6880,10053,-2659,1745156554633006470
876833,278,-3465,1140,6547,9513,-3187,1745156554633006470
877025,313,-3469,1016,6167,9186,-3695,1745156554633006470
877217,340,-3447,894,6010,8943,-4093,1745156554633006470
877409,383,-3431,776,6078,8720,-4468,1745156554633006470
877601,445,-3437,659,6176,8498,-4664,1745156554633006470
877793,514,-3451,543,6231,8296,-4445,1745156554633006470
877985,588,-3477,432,6248,8136,-3928,1745156554633006470
878177,648,-3506,331,6149,8171,-3202,1745156554633006470
878369,651,-3518,241,5983,8418,-2459,1745156554689089082
878561,586,-3513,161,5905,8739,-1887,1745156554689089082
878753,479,-3500,85,5905,9017,-1538,1745156554689089082
878945,365,-3489,11,6002,9178,-1354,1745156554689089082
879137,278,-3471,-71,6163,9295,-1526,1745156554689089082
879329,224,-3441,-159,6363,9454,-1554,1745156554689089082
879521,189,-3400,-251,6612,9505,-1674,1745156554689089082
879713,178,-3364,-355,6861,9404,-2066,1745156554689089082
879905,201,-3342,-473,6893,9164,-2419,1745156554689089082
880097,255,-3310,-602,6725,8891,-2816,1745156554689089082
880289,341,-3268,-728,6482,8607,-3356,1745156554689089082
880481,454,-3213,-839,6260,8370,-3847,1745156554689089082
880673,582,-3163,-931,6176,8168,-4202,1745156554748618174
880865,710,-3121,-1004,6121,7980,-4440,1745156554748618174
881057,830,-3082,-1064,6085,7772,-4549,1745156554748618174
881249,946,-3053,-1122,6025,7533,-4498,1745156554748618174
881441,1048,-3033,-1175,5959,7210,-4311,1745156554748618174
881633,1113,-3030,-1220,5956,6862,-3822,1745156554748618174
881825,1121,-3042,-1260,5957,6611,-3309,1745156554748618174
882017,1055,-3042,-1290,5890,6497,-3010,1745156554748618174
882209,937,-3036,-1319,5851,6452,-2918,1745156554748618174
882401,811,-3022,-1347,5832,6456,-2941,1745156554748618174
882593,703,-3001,-1370,5898,6482,-3043,1745156554748618174
882785,614,-2976,-1392,6041,6522,-3185,1745156554748618174
882977,536,-2950,-1420,6123,6470,-3346,1745156554808653823
883169,466,-2912,-1460,6116,6334,-3640,1745156554808653823
883361,415,-2874,-1517,6071,6102,-3945,1745156554808653823
883553,388,-2844,-1577,6015,5829,-4145,1745156554808653823
883745,383,-2822,-1625,6006,5538,-4391,1745156554808653823
883937,394,-2813,-1661,5966,5298,-4559,1745156554808653823
884129,424,-2801,-1698,5826,5090,-4684,1745156554808653823
884321,485,-2768,-1748,5615,4967,-4927,1745156554808653823
884513,567,-2727,-1813,5362,4878,-5166,1745156554808653823
884705,656,-2685,-1886,5000,4355,-5203,1745156554808653823
884897,706,-2637,-1940,4902,4676,-5588,1745156554808653823
885089,680,-2597,-1976,4667,4375,-5493,1745156554808653823
885281,679,-2568,-1974,4425,4130,-5321,1745156554863576343
885473,696,-2521,-1952,4162,4148,-5326,1745156554863576343
885665,673,-2450,-1925,3992,4409,-5227,1745156554863576343
885857,646,-2367,-1900,3918,4783,-5120,1745156554863576343
886049,648,-2280,-1878,3902,4976,-5108,1745156554863576343
886241,691,-2201,-1856,3842,4937,-5051,1745156554863576343
886433,742,-2128,-1828,3798,5127,-5473,1745156554863576343
886625,744,-2062,-1798,3732,4947,-5612,1745156554863576343
886817,767,-2014,-1754,3671,4541,-5627,1745156554863576343
887009,827,-1965,-1698,3472,4298,-5797,1745156554863576343
887201,864,-1904,-1630,3270,4143,-5886,1745156554863576343
887393,891,-1836,-1584,3293,3993,-6037,1745156554863576343
887585,923,-1793,-1566,3332,3760,-5985,1745156554935516154
887777,943,-1758,-1552,3322,3369,-6096,1745156554935516154
887969,946,-1738,-1547,3348,2895,-6075,1745156554935516154
888161,945,-1723,-1548,3206,2445,-5987,1745156554935516154
888353,908,-1702,-1560,3073,2005,-6161,1745156554935516154
888545,829,-1689,-1568,3020,1885,-6186,1745156554935516154
888737,743,-1685,-1578,2859,1817,-6088,1745156554935516154
888929,677,-1670,-1587,2669,1991,-6092,1745156554935516154
889121,624,-1647,-1600,2400,2303,-6302,1745156554935516154
889313,569,-1607,-1601,2230,2821,-6562,1745156554935516154
889505,569,-1651,-1614,2696,3117,-6151,1745156554935516154
889697,532,-1702,-1631,2563,3116,-6171,1745156554935516154
889889,537,-1697,-1666,2360,3189,-6393,1745156554980926052
890081,518,-1649,-1681,1998,3202,-6581,1745156554980926052
890273,496,-1586,-1643,1680,3289,-6493,1745156554980926052
890465,477,-1561,-1582,1544,3161,-6582,1745156554980926052
890657,473,-1539,-1516,1601,2988,-6728,1745156554980926052
890849,464,-1521,-1467,1502,2704,-6803,1745156554980926052
891041,459,-1488,-1435,1243,2471,-6867,1745156554980926052
891233,436,-1435,-1403,949,2266,-6892,1745156554980926052
891425,412,-1371,-1365,657,2123,-6855,1745156554980926052
891617,383,-1301,-1303,440,2099,-6765,1745156554980926052
891809,345,-1223,-1225,263,2155,-6619,1745156554980926052
892001,311,-1136,-1162,249,2277,-6547,1745156554980926052
892193,285,-1043,-1113,161,2510,-6617,1745156555050933329
892385,264,-947,-1039,11,2704,-6665,1745156555050933329
892577,277,-849,-945,-100,2838,-6900,1745156555050933329
892769,308,-751,-865,-32,2893,-7084,1745156555050933329
892961,332,-660,-813,149,2725,-7270,1745156555050933329
893153,356,-569,-774,255,2474,-7406,1745156555050933329
893345,382,-480,-734,375,2151,-7519,1745156555050933329
893537,412,-407,-695,292,1982,-7780,1745156555050933329
893729,441,-347,-657,326,1736,-7715,1745156555050933329
893921,488,-304,-646,343,1755,-7751,1745156555050933329
894113,504,-267,-627,251,1728,-7688,1745156555050933329
894305,523,-235,-601,225,1797,-7641,1745156555050933329
894497,535,-211,-583,498,1640,-7346,1745156555102078539
894689,571,-208,-600,465,1771,-7437,1745156555102078539
894881,541,-213,-570,485,1627,-7048,1745156555102078539
895073,519,-226,-527,538,1514,-6832,1745156555102078539
895265,492,-230,-496,496,1311,-6549,1745156555102078539
895457,481,-231,-481,413,1026,-6391,1745156555102078539
895649,463,-241,-478,253,1037,-6638,1745156555102078539
895841,390,-242,-460,78,844,-6689,1745156555102078539
896033,341,-241,-444,-25,553,-6877,1745156555102078539
896225,297,-222,-436,-90,348,-7232,1745156555102078539
896417,231,-189,-440,-85,446,-7656,1745156555102078539
896609,160,-145,-437,-256,706,-8006,1745156555102078539
896801,135,-101,-408,-362,1058,-8306,1745156555155591800
896993,150,-46,-375,-333,1378,-8578,1745156555155591800
897185,179,15,-362,-244,1737,-8813,1745156555155591800
897377,207,79,-350,-196,1983,-8784,1745156555155591800
897569,244,133,-321,-69,2102,-8725,1745156555155591800
897761,270,184,-282,19,2048,-8540,1745156555155591800
897953,301,224,-238,50,1946,-8426,1745156555155591800
898145,323,253,-195,42,1842,-8255,1745156555155591800
898337,340,277,-157,96,1752,-8037,1745156555155591800
898529,342,294,-125,119,1687,-7732,1745156555155591800
898721,330,302,-92,63,1574,-7423,1745156555155591800
898913,315,317,-58,0,1395,-7199,1745156555155591800
899105,301,328,-32,-86,1215,-7051,1745156555219084970
899297,281,351,-3,-212,973,-6928,1745156555219084970
899489,262,372,27,-272,761,-6900,1745156555219084970
899681,245,398,55,-351,575,-6896,1745156555219084970
899873,226,439,80,-446,434,-6999,1745156555219084970
900065,216,490,95,-458,413,-7191,1745156555219084970
900257,209,545,100,-431,492,-7358,1745156555219084970
900449,194,604,108,-391,582,-7449,1745156555219084970
900641,194,662,119,-293,688,-7583,1745156555219084970
900833,198,717,128,-200,832,-7706,1745156555219084970
901025,221,766,142,20,1002,-7792,1745156555219084970
901217,236,795,157,287,1111,-7837,1745156555219084970
901409,240,802,167,620,1121,-7648,1745156555272648231
901601,233,796,174,821,1144,-7466,1745156555272648231
901793,214,793,186,941,1113,-7325,1745156555272648231
901985,195,768,198,985,1126,-7145,1745156555272648231
902177,170,750,211,950,1126,-7003,1745156555272648231
902369,139,732,220,880,1090,-6863,1745156555272648231
902561,113,710,226,774,1037,-6715,1745156555272648231
902753,98,695,227,671,916,-6593,1745156555272648231
902945,93,693,220,585,775,-6538,1745156555272648231
903137,92,697,214,537,589,-6515,1745156555272648231
903329,96,700,215,567,426,-6533,1745156555272648231
903521,105,708,215,621,338,-6724,1745156555272648231
903713,119,720,211,704,405,-6977,1745156555357767870
903905,131,734,196,845,591,-7217,1745156555357767870
904097,132,746,171,1055,827,-7347,1745156555357767870
904289,115,752,147,1286,1058,-7430,1745156555357767870
904481,100,746,129,1558,1207,-7416,1745156555357767870
904673,91,725,125,1807,1273,-7429,1745156555357767870
904865,103,684,136,2019,1325,-7593,1745156555357767870
905057,107,625,153,2204,1346,-7761,1745156555357767870
905249,101,551,168,2348,1309,-7878,1745156555357767870
905441,72,469,180,2482,1318,-8061,1745156555357767870
905633,32,381,189,2639,1355,-8331,1745156555357767870
905825,14,272,182,2789,1423,-8520,1745156555357767870
906017,40,143,155,2888,1622,-8683,1745156555390762412
906209,104,12,117,2897,1844,-8705,1745156555390762412
906401,163,-101,81,2790,1914,-8769,1745156555390762412
906593,191,-183,59,2593,1737,-8905,1745156555390762412
906785,188,-251,58,2304,1359,-8947,1745156555390762412
906977,172,-305,74,1914,963,-8785,1745156555390762412
907169,137,-331,88,1476,723,-8584,1745156555390762412
907361,85,-324,97,1062,664,-8443,1745156555390762412
907553,16,-293,107,707,737,-8361,1745156555390762412
907745,-64,-243,127,505,884,-8215,1745156555390762412
907937,-136,-189,154,421,1070,-8061,1745156555390762412
908129,-193,-128,178,480,1257,-7926,1745156555390762412
908321,-228,-77,194,610,1453,-7787,1745156555461606400
908513,-235,-41,199,766,1655,-7609,1745156555461606400
908705,-222,-17,191,890,1803,-7474,1745156555461606400
908897,-191,1,175,982,1980,-7341,1745156555461606400
909089,-143,11,156,1022,2164,-7240,1745156555461606400
909281,-74,10,136,993,2357,-7179,1745156555461606400
909473,-6,5,111,881,2458,-7134,1745156555461606400
909665,62,2,84,768,2458,-7088,1745156555461606400
909857,120,2,64,677,2362,-7135,1745156555461606400
910049,163,9,52,579,2176,-7226,1745156555461606400
910241,200,16,44,485,1963,-7327,1745156555461606400
910433,234,25,38,443,1797,-7442,1745156555461606400
910625,263,34,32,399,1700,-7545,1745156555506799269
910817,292,39,26,443,1634,-7668,1745156555506799269
911009,324,39,16,526,1554,-7805,1745156555506799269
911201,364,29,-1,587,1461,-7965,1745156555506799269
911393,408,19,-17,640,1304,-8207,1745156555506799269
911585,441,7,-34,658,1089,-8432,1745156555506799269
911777,458,-9,-46,644,832,-8603,1745156555506799269
911969,457,-28,-51,574,591,-8769,1745156555506799269
912161,436,-42,-52,429,429,-8932,1745156555506799269
912353,396,-47,-49,270,388,-9050,1745156555506799269
912545,337,-42,-41,100,457,-9098,1745156555506799269
912737,269,-28,-28,-57,647,-9095,1745156555506799269
912929,204,-13,-12,-131,887,-9106,1745156555567706056
913121,147,3,-2,-163,1215,-9086,1745156555567706056
913313,99,20,-3,-148,1521,-9027,1745156555567706056
913505,73,32,-11,-143,1794,-8968,1745156555567706056
913697,64,37,-22,-111,2023,-8877,1745156555567706056
913889,66,39,-27,-127,2179,-8760,1745156555567706056
914081,72,46,-29,-153,2251,-8628,1745156555567706056
914273,78,55,-31,-178,2198,-8554,1745156555567706056
914465,81,65,-35,-196,2042,-8476,1745156555567706056
914657,84,70,-39,-203,1828,-8399,1745156555567706056
914849,84,70,-41,-197,1605,-8315,1745156555567706056
915041,79,68,-37,-219,1390,-8242,1745156555567706056
915233,67,73,-28,-180,1195,-8216,1745156555627127753
915425,51,78,-19,-201,1006,-8129,1745156555627127753
