timestamp,gyr_x,gyr_y,gyr_z,acc_x,acc_y,acc_z,pkt_time_ns
159328,18,-45,-59,836,5533,-5860,1745190868652806670
159520,-34,-35,-64,259,5241,-6194,1745190868652806670
159712,-78,-15,-56,356,5388,-6056,1745190868652806670
159904,-86,-6,-51,510,5279,-6045,1745190868652806670
160096,-94,9,-46,683,5502,-5833,1745190868652806670
160288,-69,-7,-33,774,5959,-5746,1745190868652806670
160480,-39,2,-15,892,6122,-5820,1745190868652806670
160672,-23,15,-22,972,5678,-5921,1745190868652806670
160864,-21,16,-47,973,5311,-5978,1745190868652806670
161056,-20,13,-54,1015,5323,-5969,1745190868652806670
161248,-19,-2,-45,1085,5482,-5957,1745190868652806670
161440,-27,-19,-51,1103,5423,-5854,1745190868652806670
161632,-40,-50,-84,1444,5132,-5881,1745190868716021874
161824,-67,-124,-103,1823,4965,-5959,1745190868716021874
162016,-85,-166,-85,1491,5383,-6088,1745190868716021874
162208,-92,-167,-66,975,5861,-6256,1745190868716021874
162400,-91,-142,-63,614,6153,-6502,1745190868716021874
162592,-65,-94,-58,506,6276,-6636,1745190868716021874
162784,-10,-46,-44,444,6454,-6630,1745190868716021874
162976,59,-8,-20,667,6457,-6660,1745190868716021874
163168,134,26,15,975,6651,-6747,1745190868716021874
163360,209,58,55,1139,6819,-6797,1745190868716021874
163552,288,86,90,1099,6848,-6898,1745190868716021874
163744,389,104,96,911,6779,-6914,1745190868716021874
163936,506,131,79,642,6855,-6793,1745190868778819164
164128,644,159,71,279,7128,-6582,1745190868778819164
164320,792,286,136,85,7081,-6102,1745190868778819164
164512,904,377,299,-697,6739,-6183,1745190868778819164
164704,1051,373,231,-1254,6329,-6026,1745190868778819164
164896,1135,459,82,-1417,4704,-6172,1745190868778819164
165088,1265,630,4,-1009,5777,-6255,1745190868778819164
165280,1217,783,-63,-1125,1862,-6727,1745190868778819164
165472,609,983,-260,-1556,-4391,-6799,1745190868778819164
165664,-131,1146,-361,-2018,-7232,-5795,1745190868778819164
165856,-429,992,-135,1105,-2788,-6281,1745190868778819164
166048,-680,699,192,3743,2110,-6356,1745190868778819164
166240,-874,482,319,5725,6985,-6371,1745190868816108563
166432,-833,203,196,6543,10042,-6319,1745190868816108563
166624,-647,-3,6,5971,10679,-6276,1745190868816108563
166816,-404,-106,-132,4198,9336,-6271,1745190868816108563
167008,-195,-165,-155,2183,7046,-6225,1745190868816108563
167200,-66,-180,-105,438,5234,-6151,1745190868816108563
167392,-30,-140,-54,-609,4123,-6019,1745190868816108563
167584,-50,-59,-23,-896,3733,-5956,1745190868816108563
167776,-100,25,13,-480,3900,-5922,1745190868816108563
167968,-144,89,63,411,4379,-5971,1745190868816108563
168160,-163,116,97,1387,5050,-6040,1745190868816108563
168352,-160,109,100,2162,5661,-6054,1745190868816108563
168544,-140,77,81,2567,6051,-6041,1745190868881000471
168736,-109,32,54,2586,6138,-5982,1745190868881000471
168928,-75,-14,27,2238,5996,-5958,1745190868881000471
169120,-40,-47,11,1696,5755,-5942,1745190868881000471
169312,-12,-57,0,1122,5564,-5952,1745190868881000471
169504,9,-45,-2,679,5434,-5976,1745190868881000471
169696,26,-18,2,516,5384,-6039,1745190868881000471
169888,46,12,19,572,5382,-6069,1745190868881000471
170080,66,35,40,789,5423,-6093,1745190868881000471
170272,81,46,55,1052,5426,-6121,1745190868881000471
170464,91,48,61,1222,5377,-6141,1745190868881000471
170656,97,42,62,1303,5339,-6169,1745190868881000471
170848,97,31,59,1282,5284,-6179,1745190868937744119
171040,93,19,56,1169,5222,-6182,1745190868937744119
171232,87,12,56,1024,5183,-6198,1745190868937744119
171424,82,10,57,919,5191,-6197,1745190868937744119
171616,78,12,57,872,5198,-6175,1745190868937744119
171808,76,18,58,861,5257,-6149,1745190868937744119
172000,74,23,60,891,5291,-6132,1745190868937744119
172192,74,28,63,949,5323,-6125,1745190868937744119
172384,74,32,61,1008,5357,-6125,1745190868937744119
172576,77,35,61,1027,5388,-6115,1745190868937744119
172768,78,37,62,1052,5384,-6094,1745190868937744119
172960,78,38,63,1068,5357,-6093,1745190868937744119
173152,79,38,60,1090,5350,-6092,1745190868998312941
173344,79,39,59,1099,5355,-6078,1745190868998312941
173536,78,39,59,1114,5360,-6068,1745190868998312941
173728,75,38,57,1122,5347,-6070,1745190868998312941
173920,71,40,52,1133,5308,-6066,1745190868998312941
174112,64,39,46,1154,5273,-6062,1745190868998312941
174304,54,38,40,1170,5231,-6056,1745190868998312941
174496,41,36,34,1177,5190,-6050,1745190868998312941
174688,27,33,29,1195,5171,-6055,1745190868998312941
174880,11,31,25,1203,5151,-6067,1745190868998312941
175072,-7,27,19,1201,5140,-6065,1745190868998312941
175264,-24,24,14,1221,5123,-6075,1745190868998312941
175456,-44,21,8,1219,5109,-6068,1745190869049820283
175648,-65,17,2,1234,5103,-6067,1745190869049820283
175840,-86,14,-3,1237,5075,-6091,1745190869049820283
176032,-108,9,-9,1260,5060,-6075,1745190869049820283
176224,-131,4,-15,1269,5061,-6090,1745190869049820283
176416,-153,-2,-20,1281,5073,-6128,1745190869049820283
176608,-168,-10,-26,1296,5136,-6140,1745190869049820283
176800,-177,-17,-29,1316,5194,-6106,1745190869049820283
176992,-185,-22,-35,1334,5252,-6090,1745190869049820283
177184,-190,-27,-46,1314,5263,-6071,1745190869049820283
177376,-192,-29,-59,1292,5264,-6065,1745190869049820283
177568,-195,-31,-69,1263,5288,-6065,1745190869049820283
177760,-196,-34,-79,1213,5325,-6046,1745190869114755575
177952,-197,-35,-88,1165,5345,-6054,1745190869114755575
178144,-195,-32,-97,1145,5375,-6077,1745190869114755575
178336,-196,-30,-100,1136,5353,-6099,1745190869114755575
178528,-196,-33,-95,1141,5356,-6102,1745190869114755575
178720,-195,-30,-89,1140,5341,-6115,1745190869114755575
178912,-194,-30,-81,1118,5374,-6087,1745190869114755575
179104,-186,-27,-69,1122,5408,-6087,1745190869114755575
179296,-173,-24,-52,1120,5450,-6072,1745190869114755575
179488,-159,-17,-32,1109,5486,-6076,1745190869114755575
179680,-143,-11,-14,1098,5516,-6068,1745190869114755575
179872,-139,-10,-5,1074,5504,-6079,1745190869114755575
180064,-136,-14,4,1013,5459,-6069,1745190869171600837
180256,-124,-7,20,1002,5490,-6106,1745190869171600837
180448,-105,0,35,992,5570,-6084,1745190869171600837
180640,-88,8,53,1050,5616,-6101,1745190869171600837
180832,-93,-5,54,1016,5568,-6100,1745190869171600837
181024,-95,-14,54,982,5522,-6070,1745190869171600837
181216,-87,-11,58,957,5521,-6072,1745190869171600837
181408,-81,-7,69,977,5543,-6093,1745190869171600837
181600,-81,-9,71,975,5535,-6107,1745190869171600837
181792,-79,-11,75,993,5528,-6106,1745190869171600837
181984,-70,-6,80,1016,5535,-6150,1745190869171600837
182176,-69,-14,81,1055,5536,-6136,1745190869171600837
182368,-69,-23,75,1062,5532,-6107,1745190869229824263
182560,-61,-24,69,1073,5566,-6079,1745190869229824263
182752,-48,-22,67,1106,5598,-6023,1745190869229824263
182944,-35,-22,75,1114,5631,-5978,1745190869229824263
183136,-21,-23,85,1119,5657,-5979,1745190869229824263
183328,-5,-22,93,1124,5669,-5997,1745190869229824263
183520,11,-19,96,1107,5646,-6031,1745190869229824263
183712,22,-14,97,1078,5611,-6071,1745190869229824263
183904,33,-10,101,1082,5532,-6131,1745190869229824263
184096,46,-8,107,1102,5498,-6194,1745190869229824263
184288,54,-11,112,1157,5505,-6288,1745190869229824263
184480,63,-16,115,1243,5514,-6408,1745190869229824263
184672,72,-23,113,1308,5531,-6488,1745190869290143400
184864,80,-32,109,1385,5551,-6533,1745190869290143400
185056,90,-45,102,1411,5587,-6478,1745190869290143400
185248,103,-55,101,1443,5662,-6333,1745190869290143400
185440,118,-69,103,1427,5787,-6351,1745190869290143400
185632,136,-79,100,1389,5897,-6400,1745190869290143400
185824,157,-81,93,1319,5868,-6367,1745190869290143400
186016,180,-79,86,1270,5784,-6461,1745190869290143400
186208,204,-75,81,1196,5592,-6350,1745190869290143400
186400,219,-70,81,1188,5362,-6676,1745190869290143400
186592,230,-66,83,1210,5070,-6789,1745190869290143400
186784,219,-55,91,1255,4747,-6793,1745190869290143400
186976,188,-47,107,1298,4437,-6832,1745190869349289162
187168,140,-45,130,1319,4225,-6825,1745190869349289162
187360,85,-55,151,1386,4203,-6794,1745190869349289162
187552,29,-77,168,1490,4390,-6736,1745190869349289162
187744,-22,-103,183,1613,4640,-6703,1745190869349289162
187936,-57,-126,194,1728,4842,-6660,1745190869349289162
188128,-72,-145,196,1805,4934,-6569,1745190869349289162
188320,-75,-162,192,1872,4959,-6606,1745190869349289162
188512,-86,-182,183,1911,4852,-6938,1745190869349289162
188704,-138,-209,175,2032,4601,-7503,1745190869349289162
188896,-197,-250,189,2088,4207,-7373,1745190869349289162
189088,-166,-292,246,2088,3972,-7515,1745190869349289162
189280,-77,-326,315,2067,3944,-7589,1745190869406194215
189472,-18,-322,365,1975,3918,-7598,1745190869406194215
189664,-6,-311,404,2054,3815,-7697,1745190869406194215
189856,66,-332,444,2286,3710,-8161,1745190869406194215
190048,237,-374,473,2317,3422,-8279,1745190869406194215
190240,380,-371,498,2457,3349,-8481,1745190869406194215
190432,441,-371,531,2705,3455,-8538,1745190869406194215
190624,482,-378,565,2902,3543,-8530,1745190869406194215
190816,532,-392,600,3016,3513,-8582,1745190869406194215
191008,546,-407,643,3035,3403,-8543,1745190869406194215
191200,540,-417,692,3029,3245,-8419,1745190869406194215
191392,539,-424,743,3077,3015,-8307,1745190869406194215
191584,538,-422,799,3098,2902,-8191,1745190869463284266
191776,529,-419,850,3120,2873,-8037,1745190869463284266
191968,514,-417,893,3174,2907,-7900,1745190869463284266
192160,502,-413,931,3229,2957,-7763,1745190869463284266
192352,495,-403,966,3268,2980,-7632,1745190869463284266
192544,497,-388,1002,3299,2994,-7519,1745190869463284266
192736,505,-365,1040,3331,2979,-7421,1745190869463284266
192928,519,-336,1079,3419,2938,-7404,1745190869463284266
193120,536,-311,1115,3549,2927,-7393,1745190869463284266
193312,558,-293,1151,3677,2901,-7351,1745190869463284266
193504,585,-277,1186,3805,2885,-7286,1745190869463284266
193696,612,-266,1222,3940,2848,-7269,1745190869463284266
193888,630,-249,1249,4023,2800,-7297,1745190869523471425
194080,632,-219,1266,4056,2748,-7254,1745190869523471425
194272,620,-183,1286,4130,2681,-7183,1745190869523471425
194464,605,-146,1322,4211,2639,-7072,1745190869523471425
194656,589,-109,1372,4314,2592,-6913,1745190869523471425
194848,569,-78,1432,4432,2524,-6743,1745190869523471425
195040,542,-52,1491,4520,2492,-6570,1745190869523471425
195232,509,-34,1543,4596,2454,-6359,1745190869523471425
195424,468,-14,1583,4615,2409,-6169,1745190869523471425
195616,422,12,1612,4550,2394,-5962,1745190869523471425
195808,376,44,1642,4502,2422,-5777,1745190869523471425
196000,333,78,1675,4471,2462,-5575,1745190869523471425
196192,296,117,1712,4419,2527,-5355,1745190869597441686
196384,256,161,1750,4400,2572,-5072,1745190869597441686
196576,212,207,1787,4400,2622,-4815,1745190869597441686
196768,167,257,1823,4448,2702,-4574,1745190869597441686
196960,121,304,1852,4518,2762,-4358,1745190869597441686
197152,76,362,1878,4548,2821,-4157,1745190869597441686
197344,34,427,1906,4615,2846,-3954,1745190869597441686
197536,-6,499,1935,4697,2913,-3797,1745190869597441686
197728,-39,573,1964,4807,3003,-3683,1745190869597441686
197920,-64,642,1988,4925,3152,-3637,1745190869597441686
198112,-83,710,2008,5035,3320,-3598,1745190869597441686
198304,-218,1409,1867,-985,7591,1121,1745190869597441686
198496,-249,3227,968,3460,15856,-968,1745190869640271295
198688,3545,2329,-986,3287,23814,-5072,1745190869640271295
198880,4754,2792,-1443,-495,-5836,-8694,1745190869640271295
199072,4286,2461,845,11967,-5882,-1755,1745190869640271295
199264,4698,1252,2917,14351,-1142,-4612,1745190869640271295
199456,4233,758,3688,11369,-786,-5929,1745190869640271295
199648,3580,662,3447,8961,965,-5051,1745190869640271295
199840,2837,1053,2514,7077,2946,-5253,1745190869640271295
200032,2124,1521,1454,5326,3417,-5206,1745190869640271295
200224,1738,1966,745,3828,1949,-5317,1745190869640271295
200416,1630,2302,557,3534,1811,-4837,1745190869640271295
200608,1618,2413,762,3335,1845,-4861,1745190869640271295
200800,1556,2477,1097,3548,1995,-4367,1745190869702433904
200992,1447,2530,1377,3767,1921,-4193,1745190869702433904
201184,972,2843,1606,327,-3931,-5499,1745190869702433904
201376,-444,3351,2059,-94,-11367,-4858,1745190869702433904
201568,-1678,3521,2386,4216,-7862,-2436,1745190869702433904
201760,-2647,3441,2281,7962,-3514,-3587,1745190869702433904
201952,-3391,3107,1907,10696,639,-3954,1745190869702433904
202144,-3727,2765,1512,12035,3958,-3941,1745190869702433904
202336,-3701,2473,1260,12889,7126,-3939,1745190869702433904
202528,-3207,2274,1219,13011,9639,-3269,1745190869702433904
202720,-2355,2271,1342,12399,11215,-2640,1745190869702433904
202912,-1406,2313,1574,11499,11297,-2824,1745190869702433904
203104,-512,2387,1822,10158,9982,-3355,1745190869758049386
203296,203,2483,1992,8704,7604,-3811,1745190869758049386
203488,684,2572,2049,7384,5038,-4360,1745190869758049386
203680,961,2700,2049,6487,2813,-4772,1745190869758049386
203872,1066,2821,2040,6156,999,-4934,1745190869758049386
204064,1044,2936,2042,6346,-325,-4936,1745190869758049386
204256,937,3006,2065,6909,-1185,-4779,1745190869758049386
204448,787,3044,2120,7734,-1714,-4560,1745190869758049386
204640,629,3054,2219,8634,-2001,-4412,1745190869758049386
204832,477,3045,2337,9490,-1964,-4359,1745190869758049386
205024,343,3023,2451,10278,-1686,-4293,1745190869758049386
205216,238,2981,2535,10874,-1368,-4303,1745190869758049386
205408,170,2933,2584,11323,-1032,-4487,1745190869813564191
205600,136,2874,2595,11580,-736,-4682,1745190869813564191
205792,134,2813,2581,11610,-475,-4886,1745190869813564191
205984,161,2751,2573,11477,-358,-5002,1745190869813564191
206176,218,2693,2589,11167,-361,-4955,1745190869813564191
206368,300,2639,2628,10841,-442,-4988,1745190869813564191
206560,390,2595,2682,10469,-472,-5040,1745190869813564191
206752,466,2567,2745,10100,-581,-4991,1745190869813564191
206944,518,2557,2799,9873,-862,-4859,1745190869813564191
207136,550,2540,2836,9839,-1283,-4642,1745190869813564191
207328,554,2503,2841,9942,-1683,-4427,1745190869813564191
207520,517,2467,2824,9989,-1910,-4235,1745190869813564191
207712,429,2423,2799,10008,-1926,-3966,1745190869872476726
207904,293,2385,2784,10019,-1711,-3574,1745190869872476726
208096,116,2369,2771,10093,-1320,-3214,1745190869872476726
208288,-101,2357,2746,10196,-788,-2952,1745190869872476726
208480,-346,2325,2719,10326,-285,-2614,1745190869872476726
208672,-587,2267,2705,10385,289,-2145,1745190869872476726
208864,-798,2189,2711,10344,731,-1636,1745190869872476726
209056,-966,2128,2715,10170,1011,-1315,1745190869872476726
209248,-1098,2053,2704,10188,1389,-946,1745190869872476726
209440,-1199,1975,2695,10172,1685,-661,1745190869872476726
209632,-1269,1959,2678,9903,1961,-178,1745190869872476726
209824,-1298,1966,2652,9681,2371,288,1745190869872476726
210016,-1285,2016,2644,9516,3470,177,1745190869932752061
210208,-1332,2099,2543,9058,3840,834,1745190869932752061
210400,-1167,2147,2682,10697,3616,1357,1745190869932752061
210592,-893,1869,2805,11078,4042,784,1745190869932752061
210784,-707,1892,2753,10848,4451,226,1745190869932752061
210976,-547,1890,2542,10450,4960,297,1745190869932752061
211168,-392,2065,2268,10049,5508,107,1745190869932752061
211360,-200,2227,2046,10008,6180,59,1745190869932752061
211552,49,2341,1882,10189,6675,-90,1745190869932752061
211744,322,2376,1761,10468,7280,-48,1745190869932752061
211936,605,2351,1688,10768,7546,191,1745190869932752061
212128,903,2339,1604,10785,7719,35,1745190869932752061
212320,1205,2363,1482,10761,7618,-186,1745190869989208785
212512,1495,2403,1298,10708,7371,-483,1745190869989208785
212704,1757,2441,1071,10717,7010,-808,1745190869989208785
212896,1967,2454,830,10706,6594,-976,1745190869989208785
213088,2112,2453,601,10701,6175,-899,1745190869989208785
213280,2194,2456,390,10619,5768,-948,1745190869989208785
213472,2219,2465,187,10534,5534,-872,1745190869989208785
213664,2209,2473,-2,10497,5431,-483,1745190869989208785
213856,2171,2458,-198,10440,5407,-109,1745190869989208785
214048,2115,2426,-421,10392,5482,196,1745190869989208785
214240,2050,2405,-663,10370,5537,326,1745190869989208785
214432,1976,2384,-912,10362,5631,474,1745190869989208785
214624,1909,2371,-1132,10388,5759,798,1745190870052504769
214816,1873,2350,-1312,10575,5875,1236,1745190870052504769
215008,1884,2306,-1473,10832,6181,1519,1745190870052504769
215200,1950,2254,-1611,11074,6620,1804,1745190870052504769
215392,2057,2188,-1724,11312,6955,2052,1745190870052504769
215584,2191,2116,-1849,11483,7062,2116,1745190870052504769
215776,2342,2051,-2020,11563,6983,2075,1745190870052504769
215968,2487,1992,-2225,11543,6828,1716,1745190870052504769
216160,2633,1937,-2431,11519,6549,1178,1745190870052504769
216352,2759,1883,-2622,11476,6058,826,1745190870052504769
216544,2835,1830,-2782,11390,5356,756,1745190870052504769
216736,2869,1776,-2912,11277,4711,593,1745190870052504769
216928,2882,1719,-3025,11214,4305,352,1745190870108293478
217120,2882,1659,-3142,11175,4119,259,1745190870108293478
217312,2880,1586,-3254,11128,3924,238,1745190870108293478
217504,2905,1502,-3355,11044,3691,296,1745190870108293478
217696,2962,1417,-3456,10856,3502,314,1745190870108293478
217888,3081,1334,-3549,10598,3663,193,1745190870108293478
218080,3261,1283,-3609,10340,3882,443,1745190870108293478
218272,3470,1243,-3639,10114,3779,941,1745190870108293478
218464,3678,1196,-3643,9936,2998,1962,1745190870108293478
218656,3845,1127,-3620,10025,1707,1129,1745190870108293478
218848,3977,1031,-3571,10078,452,1477,1745190870108293478
219040,4075,920,-3498,10076,-662,1630,1745190870108293478
219232,4142,771,-3427,10078,-1616,1821,1745190870164193749
219424,4169,623,-3430,9895,-2481,1869,1745190870164193749
219616,4102,485,-3532,9594,-2968,1717,1745190870164193749
219808,3896,367,-3703,9175,-3257,1376,1745190870164193749
220000,3565,299,-3874,8756,-3119,1255,1745190870164193749
220192,3170,243,-3975,8415,-2685,1357,1745190870164193749
220384,2785,185,-3965,8147,-2170,1429,1745190870164193749
220576,2435,119,-3863,8003,-1852,2174,1745190870164193749
220768,2128,52,-3704,7915,-1929,2658,1745190870164193749
220960,1911,-4,-3482,7867,-2197,2828,1745190870164193749
221152,1780,-39,-3218,7784,-2488,2936,1745190870164193749
221344,1679,-73,-2972,7622,-2912,3029,1745190870164193749
221536,1525,-105,-2805,7503,-3337,2701,1745190870224408824
221728,1292,-130,-2716,7414,-3624,2626,1745190870224408824
221920,1028,-156,-2666,7437,-3577,2696,1745190870224408824
222112,808,-185,-2603,7506,-3274,2903,1745190870224408824
222304,658,-213,-2494,7583,-3084,2954,1745190870224408824
222496,559,-229,-2352,7640,-3317,3036,1745190870224408824
222688,455,-234,-2195,7708,-3975,3077,1745190870224408824
222880,354,-235,-2024,7801,-4695,2915,1745190870224408824
223072,265,-245,-1848,7853,-5172,2597,1745190870224408824
223264,171,-273,-1691,7894,-5378,2425,1745190870224408824
223456,75,-310,-1575,7897,-5165,2160,1745190870224408824
223648,-34,-328,-1509,7907,-4473,1876,1745190870224408824
223840,-132,-347,-1452,7971,-3404,1536,1745190870280984088
224032,-161,-355,-1353,8003,-2249,1495,1745190870280984088
224224,-133,-373,-1201,8112,-1384,1307,1745190870280984088
224416,-80,-383,-1043,8204,-928,1118,1745190870280984088
224608,-35,-381,-889,8339,-812,1023,1745190870280984088
224800,-11,-381,-735,8554,-870,872,1745190870280984088
224992,0,-392,-584,8743,-971,790,1745190870280984088
225184,7,-422,-445,8779,-962,906,1745190870280984088
225376,-14,-461,-337,8661,-699,1155,1745190870280984088
225568,-80,-499,-276,8533,-230,1506,1745190870280984088
225760,-169,-531,-232,8382,334,1792,1745190870280984088
225952,-238,-553,-161,8208,891,2132,1745190870280984088
226144,-258,-565,-45,7871,1694,2356,1745190870340920936
226336,-219,-566,102,7937,2499,2398,1745190870340920936
226528,-159,-578,206,7692,2919,2487,1745190870340920936
226720,-128,-431,370,6768,3571,2834,1745190870340920936
226912,-117,-436,502,8040,1887,2717,1745190870340920936
227104,-186,-484,175,8290,544,2107,1745190870340920936
227296,-321,-489,-206,7709,1021,2118,1745190870340920936
227488,-436,-473,-207,7431,2328,2255,1745190870340920936
227680,-458,-427,58,7574,3536,2456,1745190870340920936
227872,-397,-416,287,7789,4046,2377,1745190870340920936
228064,-318,-407,301,7541,4246,2191,1745190870340920936
228256,-253,-384,255,7380,4596,2052,1745190870340920936
228448,-186,-332,337,7109,5345,2260,1745190870400021699
228640,-109,-328,476,7307,5101,2086,1745190870400021699
228832,-79,-287,417,7022,4991,2133,1745190870400021699
229024,-69,-281,321,6982,4804,2076,1745190870400021699
229216,-95,-278,217,7050,4769,2121,1745190870400021699
229408,-147,-289,145,7175,5165,2221,1745190870400021699
229600,-197,-300,95,7354,5377,2318,1745190870400021699
229792,-214,-306,7,7341,5406,2443,1745190870400021699
229984,-194,-296,-100,7152,5481,2544,1745190870400021699
230176,-184,-283,-209,7049,5412,2604,1745190870400021699
230368,-188,-268,-310,6727,5418,2669,1745190870400021699
230560,-157,-200,-316,6204,5578,2858,1745190870400021699
230752,-71,-124,-231,6017,5517,2920,1745190870456289726
230944,34,-56,-153,6049,5371,2810,1745190870456289726
231136,95,-2,-147,6211,5081,2575,1745190870456289726
231328,93,34,-197,6482,4847,2367,1745190870456289726
231520,54,45,-236,6770,4717,2200,1745190870456289726
231712,11,27,-234,6981,4662,2125,1745190870456289726
231904,-32,-9,-197,7041,4670,2019,1745190870456289726
232096,-91,-35,-175,6922,4652,1869,1745190870456289726
232288,-155,-44,-170,6727,4607,1758,1745190870456289726
232480,-197,-47,-153,6593,4490,1722,1745190870456289726
232672,-206,-54,-124,6518,4399,1696,1745190870456289726
232864,-194,-60,-107,6498,4404,1616,1745190870456289726
233056,-176,-58,-110,6532,4434,1523,1745190870518216504
233248,-147,-58,-116,6624,4379,1531,1745190870518216504
233440,-105,-67,-105,6682,4356,1616,1745190870518216504
233632,-67,-81,-77,6734,4396,1737,1745190870518216504
233824,-54,-95,-62,6818,4366,1818,1745190870518216504
234016,-59,-109,-65,6839,4258,1815,1745190870518216504
234208,-65,-127,-67,6815,4117,1852,1745190870518216504
234400,-78,-141,-69,6728,4085,1866,1745190870518216504
234592,-111,-143,-75,6714,4020,1863,1745190870518216504
234784,-158,-139,-87,6728,3889,1885,1745190870518216504
234976,-198,-145,-98,6744,3774,1859,1745190870518216504
235168,-222,-156,-99,6698,3811,1813,1745190870518216504
235360,-227,-168,-87,6615,4015,1777,1745190870572800954
235552,-212,-172,-68,6520,4174,1736,1745190870572800954
235744,-180,-171,-46,6479,4224,1666,1745190870572800954
235936,-134,-168,-12,6450,4192,1619,1745190870572800954
236128,-100,-163,13,6422,4078,1560,1745190870572800954
236320,-87,-154,21,6460,4066,1600,1745190870572800954
236512,-88,-154,37,6554,4131,1681,1745190870572800954
236704,-84,-164,56,6642,4123,1783,1745190870572800954
236896,-74,-173,76,6660,4071,1966,1745190870572800954
237088,-53,-190,110,6703,4111,2133,1745190870572800954
237280,-32,-208,139,6709,4241,2302,1745190870572800954
237472,-15,-212,144,6663,4455,2501,1745190870572800954
237664,5,-209,135,6646,4604,2681,1745190870633399515
237856,34,-198,120,6568,4582,2883,1745190870633399515
238048,59,-184,111,6503,4513,2984,1745190870633399515
238240,61,-167,107,6475,4400,2973,1745190870633399515
238432,45,-151,100,6473,4323,2894,1745190870633399515
238624,27,-136,88,6476,4361,2766,1745190870633399515
238816,20,-121,75,6451,4378,2589,1745190870633399515
239008,19,-106,57,6438,4388,2414,1745190870633399515
239200,20,-90,48,6433,4333,2228,1745190870633399515
239392,16,-83,50,6473,4299,2071,1745190870633399515
239584,6,-80,59,6491,4289,1999,1745190870633399515
239776,-8,-82,70,6526,4319,1911,1745190870633399515
239968,-25,-86,77,6487,4346,1943,1745190870689706604
240160,-44,-92,80,6432,4329,2028,1745190870689706604
240352,-67,-95,84,6354,4364,2162,1745190870689706604
240544,-91,-94,85,6321,4467,2345,1745190870689706604
240736,-102,-94,87,6347,4643,2581,1745190870689706604
240928,-91,-91,93,6385,4732,2798,1745190870689706604
241120,-64,-85,98,6463,4721,2958,1745190870689706604
241312,-36,-78,95,6537,4637,3007,1745190870689706604
241504,-17,-69,84,6568,4554,2990,1745190870689706604
241696,-11,-58,63,6597,4567,2785,1745190870689706604
241888,-7,-37,40,6528,4640,2667,1745190870689706604
242080,0,-26,28,6612,4759,2406,1745190870689706604
242272,18,-27,28,6710,4857,2159,1745190870750394487
242464,36,-30,34,6761,4962,1839,1745190870750394487
242656,44,-29,36,6768,5130,1549,1745190870750394487
242848,45,-22,34,6743,5292,1494,1745190870750394487
243040,49,-16,42,6703,5347,1517,1745190870750394487
243232,65,-7,55,6682,5225,1549,1745190870750394487
243424,89,3,71,6643,4939,1518,1745190870750394487
243616,108,16,92,6626,4614,1526,1745190870750394487
243808,132,27,117,6614,4398,1631,1745190870750394487
244000,165,35,138,6612,4378,1830,1745190870750394487
244192,206,42,153,6664,4393,1994,1745190870750394487
244384,252,46,156,6697,4477,2191,1745190870750394487
244576,303,51,157,6714,4591,2422,1745190870806790326
244768,347,57,153,6709,4672,2582,1745190870806790326
244960,372,69,146,6724,4735,2654,1745190870806790326
245152,380,75,145,6769,4685,2733,1745190870806790326
245344,383,80,148,6749,4648,2702,1745190870806790326
245536,381,84,154,6715,4677,2643,1745190870806790326
245728,360,88,155,6700,4684,2458,1745190870806790326
245920,324,91,153,6694,4692,2238,1745190870806790326
246112,280,91,150,6704,4764,2077,1745190870806790326
246304,235,85,145,6731,4919,1966,1745190870806790326
246496,196,78,147,6744,5077,1925,1745190870806790326
246688,167,73,159,6744,5105,1844,1745190870806790326
246880,149,68,173,6741,5067,1769,1745190870869380328
247072,135,61,187,6752,5062,1719,1745190870869380328
247264,95,60,206,6729,5193,1684,1745190870869380328
247456,61,50,218,6945,4742,2080,1745190870869380328
247648,110,-33,158,6634,4852,1787,1745190870869380328
247840,82,19,139,6286,5310,1959,1745190870869380328
248032,48,38,201,6502,5506,2116,1745190870869380328
248224,76,21,229,6632,5482,2219,1745190870869380328
248416,117,11,212,6568,5452,2192,1745190870869380328
248608,113,23,184,6572,5412,2186,1745190870869380328
248800,93,36,161,6667,5283,2217,1745190870869380328
248992,79,34,149,6725,5129,2201,1745190870869380328
249184,64,26,141,6710,5012,2185,1745190870924329982
249376,47,18,135,6704,5042,2111,1745190870924329982
249568,27,12,123,6664,5164,2098,1745190870924329982
249760,5,12,103,6681,5294,2117,1745190870924329982
249952,-15,12,84,6700,5352,2108,1745190870924329982
250144,-23,15,72,6726,5301,2129,1745190870924329982
250336,-14,18,66,6716,5183,2154,1745190870924329982
250528,6,18,66,6692,5090,2158,1745190870924329982
250720,22,21,64,6642,5046,2172,1745190870924329982
250912,30,29,58,6623,5037,2166,1745190870924329982
251104,37,39,54,6660,4946,2197,1745190870924329982
251296,46,47,62,6696,4693,2224,1745190870924329982
251488,51,49,75,6761,4343,2223,1745190870985228644
251680,42,47,87,6767,3964,2224,1745190870985228644
251872,14,39,100,6763,3800,2310,1745190870985228644
252064,-40,30,105,6743,3917,2399,1745190870985228644
252256,-109,31,103,6741,4130,2523,1745190870985228644
252448,-163,36,107,6792,4193,2623,1745190870985228644
252640,-195,41,121,6816,4058,2613,1745190870985228644
252832,-226,45,138,6827,3816,2608,1745190870985228644
253024,-277,48,152,6819,3659,2497,1745190870985228644
253216,-343,51,156,6857,3653,2421,1745190870985228644
253408,-393,51,157,6908,3746,2329,1745190870985228644
253600,-405,53,165,6963,3842,2198,1745190870985228644
253792,-383,58,182,6971,3824,2037,1745190871040526473
253984,-347,70,205,7005,3617,1884,1745190871040526473
254176,-314,85,231,7032,3345,1769,1745190871040526473
254368,-287,95,260,7086,3122,1736,1745190871040526473
254560,-271,93,294,7177,2901,1809,1745190871040526473
254752,-268,86,331,7216,2724,2011,1745190871040526473
254944,-273,81,371,7198,2616,2238,1745190871040526473
255136,-281,81,409,7149,2554,2479,1745190871040526473
255328,-303,87,443,7101,2481,2606,1745190871040526473
255520,-337,101,472,7057,2403,2658,1745190871040526473
255712,-382,113,501,7121,2342,2569,1745190871040526473
255904,-422,121,534,7278,2361,2479,1745190871040526473
256096,-450,124,566,7455,2407,2349,1745190871100708996
256288,-462,122,595,7606,2489,2264,1745190871100708996
256480,-458,119,618,7677,2579,2217,1745190871100708996
256672,-454,119,638,7725,2658,2061,1745190871100708996
256864,-467,127,651,7787,2603,1970,1745190871100708996
257056,-487,131,670,7842,2406,1953,1745190871100708996
257248,-498,124,703,7885,2193,1961,1745190871100708996
257440,-504,112,745,7872,1997,1987,1745190871100708996
257632,-518,103,783,7835,1939,2042,1745190871100708996
257824,-531,100,814,7835,1958,2148,1745190871100708996
258016,-528,99,837,7841,2040,2237,1745190871100708996
258208,-500,101,866,7831,2019,2289,1745190871100708996
258400,-460,96,893,7876,1788,2319,1745190871158036805
258592,-428,86,915,7867,1610,2373,1745190871158036805
258784,-425,75,931,7852,1594,2404,1745190871158036805
258976,-437,68,946,7836,1854,2469,1745190871158036805
259168,-427,63,967,7850,2255,2465,1745190871158036805
259360,-371,61,995,7855,2554,2269,1745190871158036805
259552,-271,65,1024,7849,2584,2007,1745190871158036805
259744,-155,74,1046,7859,2350,1715,1745190871158036805
259936,-49,83,1075,7890,1845,1335,1745190871158036805
260128,36,80,1117,7917,1170,812,1745190871158036805
260320,99,57,1169,7905,423,369,1745190871158036805
260512,137,18,1224,7778,-40,258,1745190871158036805
260704,122,-27,1266,7561,-11,266,1745190871236189946
260896,29,-60,1288,7425,247,341,1745190871236189946
261088,-117,-89,1308,7483,431,434,1745190871236189946
261280,-267,-121,1342,7578,446,443,1745190871236189946
261472,-408,-162,1383,7704,314,313,1745190871236189946
261664,-559,-215,1438,7871,-48,107,1745190871236189946
261856,-732,-277,1499,7972,-433,-199,1745190871236189946
262048,-922,-350,1550,8074,-755,-566,1745190871236189946
262240,-1106,-434,1599,8091,-1047,-942,1745190871236189946
262432,-1255,-529,1657,8022,-1275,-1310,1745190871236189946
262624,-1367,-630,1729,7893,-1440,-1602,1745190871236189946
262816,-1450,-736,1802,7692,-1612,-1864,1745190871236189946
263008,-1514,-843,1875,7442,-1691,-2093,1745190871275969791
263200,-1546,-956,1959,7277,-1662,-2170,1745190871275969791
263392,-1555,-1081,2055,7157,-1507,-2229,1745190871275969791
263584,-1551,-1206,2152,7117,-1322,-2226,1745190871275969791
263776,-1552,-1325,2236,7121,-1068,-2219,1745190871275969791
263968,-1569,-1435,2298,7221,-742,-2266,1745190871275969791
264160,-1618,-1536,2341,7383,-376,-2131,1745190871275969791
264352,-1699,-1634,2369,7630,94,-1985,1745190871275969791
264544,-1819,-1723,2379,7957,671,-1983,1745190871275969791
264736,-1982,-1791,2362,8446,1070,-2205,1745190871275969791
264928,-2166,-1872,2321,8917,1519,-2264,1745190871275969791
265120,-2360,-1969,2287,9541,1532,-2487,1745190871275969791
265312,-2494,-2124,2272,9991,2075,-2767,1745190871337682039
265504,-2560,-2254,2332,10119,2445,-3253,1745190871337682039
265696,-2575,-2353,2361,10129,2526,-3799,1745190871337682039
265888,-2557,-2429,2296,10057,2472,-4189,1745190871337682039
266080,-2509,-2527,2165,10080,2429,-4354,1745190871337682039
266272,-2441,-2641,2021,10016,2425,-4399,1745190871337682039
266464,-2349,-2776,1887,9982,2527,-4485,1745190871337682039
266656,-2249,-2902,1771,9875,2808,-4431,1745190871337682039
266848,-2158,-3013,1679,9751,2961,-4245,1745190871337682039
267040,-2104,-3112,1590,9639,2927,-3968,1745190871337682039
267232,-2106,-3196,1497,9506,2636,-3358,1745190871337682039
267424,-2183,-3272,1401,9405,2042,-2721,1745190871337682039
267616,-2306,-3355,1308,9385,1415,-2274,1745190871394845215
267808,-2434,-3423,1224,9330,1150,-1820,1745190871394845215
268000,-2556,-3507,1137,9350,1084,-1479,1745190871394845215
268192,-2672,-3600,1012,9362,1349,-1237,1745190871394845215
268384,-2783,-3676,856,9306,1948,-1132,1745190871394845215
268576,-2885,-3733,678,9211,2671,-1012,1745190871394845215
268768,-2977,-3765,485,9106,3346,-728,1745190871394845215
268960,-3046,-3784,282,9042,4001,-549,1745190871394845215
269152,-3066,-3800,81,9013,4673,-465,1745190871394845215
269344,-3041,-3816,-119,8980,5412,-453,1745190871394845215
269536,-2979,-3843,-325,8977,6106,-590,1745190871394845215
269728,-2891,-3882,-536,8930,6655,-884,1745190871394845215
269920,-2790,-3912,-752,8874,7207,-997,1745190871449603673
270112,-2675,-3923,-960,8767,7721,-1247,1745190871449603673
270304,-2537,-3885,-1140,8633,8215,-1378,1745190871449603673
270496,-2392,-3807,-1282,8534,8530,-1474,1745190871449603673
270688,-2235,-3704,-1397,8539,8812,-1879,1745190871449603673
270880,-2088,-3590,-1513,8593,8979,-2300,1745190871449603673
271072,-1955,-3481,-1646,8653,9015,-2553,1745190871449603673
271264,-1821,-3382,-1789,8734,8924,-2738,1745190871449603673
271456,-1685,-3299,-1927,8808,8696,-2811,1745190871449603673
271648,-1547,-3233,-2057,8834,8409,-2927,1745190871449603673
271840,-1420,-3176,-2174,8781,8141,-2984,1745190871449603673
272032,-1310,-3123,-2271,8660,7905,-3100,1745190871449603673
272224,-1211,-3067,-2358,8493,7706,-3234,1745190871510580824
272416,-1121,-3006,-2446,8444,7345,-3195,1745190871510580824
272608,-1044,-2954,-2573,8408,6975,-3178,1745190871510580824
272800,-980,-2907,-2731,8208,6772,-3219,1745190871510580824
272992,-927,-2822,-2879,7737,6930,-3297,1745190871510580824
273184,-878,-2690,-2961,7404,7208,-3401,1745190871510580824
273376,-820,-2525,-3001,7508,7263,-3531,1745190871510580824
273568,-743,-2358,-3060,7826,7238,-3754,1745190871510580824
273760,-660,-2213,-3150,8125,7293,-3958,1745190871510580824
273952,-594,-2091,-3250,8322,7430,-4049,1745190871510580824
274144,-550,-1987,-3336,8389,7642,-4029,1745190871510580824
274336,-514,-1894,-3392,8469,7767,-3921,1745190871510580824
274528,-485,-1820,-3450,8592,7699,-3826,1745190871566580521
274720,-462,-1765,-3534,8553,7637,-3925,1745190871566580521
274912,-434,-1711,-3607,8379,7652,-3975,1745190871566580521
275104,-399,-1658,-3662,8184,7633,-3867,1745190871566580521
275296,-346,-1605,-3698,7862,7761,-3730,1745190871566580521
275488,-279,-1552,-3716,7701,7839,-3565,1745190871566580521
275680,-211,-1497,-3730,7557,7874,-3378,1745190871566580521
275872,-130,-1435,-3732,7456,7921,-3273,1745190871566580521
276064,-33,-1371,-3726,7492,7874,-3173,1745190871566580521
276256,73,-1300,-3720,7553,7788,-3061,1745190871566580521
276448,178,-1221,-3712,7709,7611,-2921,1745190871566580521
276640,249,-1150,-3710,7888,7302,-2668,1745190871566580521
276832,277,-1081,-3710,7996,6909,-2526,1745190871626982782
277024,269,-1030,-3706,8013,6598,-2595,1745190871626982782
277216,239,-983,-3699,7950,6401,-2790,1745190871626982782
277408,203,-940,-3690,7764,6320,-2935,1745190871626982782
277600,178,-894,-3669,7523,6301,-3158,1745190871626982782
277792,177,-847,-3642,7255,6312,-3418,1745190871626982782
277984,203,-801,-3617,6969,6318,-3769,1745190871626982782
278176,254,-760,-3601,6737,6330,-4238,1745190871626982782
278368,331,-728,-3586,6537,6302,-4668,1745190871626982782
278560,427,-707,-3568,6361,6203,-5014,1745190871626982782
278752,532,-695,-3540,6187,6045,-5307,1745190871626982782
278944,632,-678,-3507,5982,5893,-5565,1745190871626982782
279136,722,-644,-3461,5786,5707,-5608,1745190871683400756
279328,803,-570,-3393,5677,5522,-5540,1745190871683400756
279520,890,-475,-3311,5713,5381,-5543,1745190871683400756
279712,987,-378,-3225,5839,5239,-5472,1745190871683400756
279904,1083,-302,-3142,6017,5222,-5450,1745190871683400756
280096,1178,-255,-3074,6163,5147,-5470,1745190871683400756
280288,1271,-226,-3018,6241,4987,-5419,1745190871683400756
280480,1358,-204,-2969,6232,4737,-5272,1745190871683400756
280672,1440,-186,-2912,6090,4433,-5174,1745190871683400756
280864,1514,-167,-2846,5916,4136,-5024,1745190871683400756
281056,1571,-148,-2777,5697,3814,-4828,1745190871683400756
281248,1607,-131,-2709,5467,3495,-4655,1745190871683400756
281440,1626,-114,-2645,5237,3141,-4514,1745190871747990531
281632,1630,-95,-2588,4995,2805,-4396,1745190871747990531
281824,1625,-79,-2528,4758,2508,-4379,1745190871747990531
282016,1617,-64,-2460,4539,2251,-4465,1745190871747990531
282208,1613,-58,-2380,4349,2043,-4654,1745190871747990531
282400,1627,-62,-2289,4191,1858,-4956,1745190871747990531
282592,1664,-64,-2184,4057,1651,-5192,1745190871747990531
282784,1719,-60,-2066,3966,1454,-5433,1745190871747990531
282976,1787,-46,-1942,3899,1272,-5656,1745190871747990531
283168,1852,-16,-1811,3895,1117,-5721,1745190871747990531
283360,1896,27,-1671,3953,956,-5689,1745190871747990531
283552,1914,81,-1528,4124,910,-5692,1745190871747990531
283744,1900,128,-1392,4421,964,-5607,1745190871800597290
283936,1841,123,-1285,5054,1087,-5658,1745190871800597290
284128,1738,98,-1240,5162,1309,-5734,1745190871800597290
284320,1592,132,-1203,5031,1757,-5575,1745190871800597290
284512,1435,159,-1118,5126,2169,-5467,1745190871800597290
284704,1276,182,-1001,5405,2458,-5367,1745190871800597290
284896,1113,171,-891,5578,2597,-5294,1745190871800597290
285088,941,145,-791,5600,2706,-5199,1745190871800597290
285280,742,113,-687,5596,2729,-5097,1745190871800597290
285472,491,89,-597,5549,2639,-5035,1745190871800597290
285664,178,73,-524,5590,2462,-4958,1745190871800597290
285856,-200,60,-470,5890,2207,-4995,1745190871800597290
286048,-606,-50,-557,5811,2190,-4750,1745190871860117631
286240,-897,-190,-484,5140,2603,-4333,1745190871860117631
286432,-1195,96,-343,5885,2731,-4199,1745190871860117631
286624,-1525,118,-347,5940,3351,-3233,1745190871860117631
286816,-1707,150,-320,6046,4646,-2233,1745190871860117631
287008,-1702,93,-247,5946,5918,-1500,1745190871860117631
287200,-1587,85,-207,5618,6765,-1099,1745190871860117631
287392,-1421,175,-248,5105,7108,-765,1745190871860117631
287584,-1226,328,-356,4545,6945,-545,1745190871860117631
287776,-998,515,-476,4016,6516,-375,1745190871860117631
287968,-733,706,-568,3544,5811,-319,1745190871860117631
288160,-471,902,-615,3158,5011,-512,1745190871860117631
288352,-267,1103,-624,2881,4288,-921,1745190871918840168
288544,-136,1289,-620,2813,3632,-1298,1745190871918840168
288736,-62,1452,-622,2954,3062,-1579,1745190871918840168
288928,-20,1589,-630,3147,2630,-1822,1745190871918840168
289120,-19,1714,-639,3393,2395,-1971,1745190871918840168
289312,-30,1826,-634,3699,2448,-2057,1745190871918840168
289504,75,1890,-636,3837,2843,-1898,1745190871918840168
289696,407,1971,-581,4440,3514,-2738,1745190871918840168
289888,755,1965,-560,5329,6167,-6606,1745190871918840168
290080,1499,1779,-304,7406,11744,-15460,1745190871918840168
290272,2855,1340,13,10717,19918,-23970,1745190871918840168
290464,4007,1017,-51,12209,26946,-27139,1745190871918840168
290656,4684,817,-793,10341,26172,-24295,1745190871982926562
290848,5267,784,-1648,6244,19422,-17380,1745190871982926562
291040,5954,895,-1922,2891,11238,-11778,1745190871982926562
291232,6434,978,-1726,1583,2828,-7957,1745190871982926562
291424,6571,945,-1361,940,-4372,-5264,1745190871982926562
291616,6325,801,-872,650,-9720,-3844,1745190871982926562
291808,5594,599,-435,979,-13957,-3798,1745190871982926562
292000,4325,379,-91,1072,-16313,-3566,1745190871982926562
292192,2809,219,102,1378,-16730,-3626,1745190871982926562
292384,1344,186,154,1659,-15106,-4051,1745190871982926562
292576,59,254,82,1868,-12018,-4772,1745190871982926562
292768,-907,344,-34,2269,-8580,-5618,1745190871982926562
292960,-1557,323,-172,2289,-5228,-6482,1745190872061468813
293152,-1926,272,-268,2271,-2265,-7341,1745190872061468813
293344,-2110,227,-330,2181,146,-7959,1745190872061468813
293536,-2052,161,-356,2046,1875,-8543,1745190872061468813
293728,-1771,129,-363,1913,2958,-9239,1745190872061468813
293920,-1323,85,-395,1972,3488,-9870,1745190872061468813
294112,-756,45,-455,1857,3606,-10545,1745190872061468813
294304,-299,24,-511,1809,3262,-11603,1745190872061468813
294496,-303,26,-580,1799,2429,-11943,1745190872061468813
294688,-476,19,-637,1891,1448,-11781,1745190872061468813
294880,-618,-6,-642,1941,998,-11441,1745190872061468813
295072,-814,-40,-596,2121,1080,-10880,1745190872061468813
295264,-1037,-86,-508,2122,1437,-10131,1745190872089412776
295456,-1243,-145,-410,2077,1740,-9403,1745190872089412776
295648,-1410,-233,-313,1861,2047,-8729,1745190872089412776
295840,-1519,-320,-222,1547,2338,-8148,1745190872089412776
296032,-1568,-387,-176,1142,2792,-7715,1745190872089412776
296224,-1579,-418,-174,784,3284,-7392,1745190872089412776
296416,-1571,-404,-214,638,3806,-7034,1745190872089412776
296608,-1536,-361,-288,656,4380,-6689,1745190872089412776
296800,-1464,-311,-381,803,4917,-6341,1745190872089412776
296992,-1337,-260,-473,1056,5429,-6042,1745190872089412776
297184,-1165,-210,-552,1271,5840,-5856,1745190872089412776
297376,-960,-153,-611,1431,6072,-5717,1745190872089412776
297568,-747,-101,-655,1453,6102,-5704,1745190872160574314
297760,-553,-38,-670,1428,5977,-5703,1745190872160574314
297952,-371,14,-671,1446,5721,-5729,1745190872160574314
298144,-207,59,-668,1403,5476,-5579,1745190872160574314
298336,-66,99,-660,1366,5054,-5553,1745190872160574314
298528,52,133,-648,1302,4622,-5634,1745190872160574314
298720,177,175,-621,1755,3106,-5215,1745190872160574314
298912,437,236,-630,2954,1801,-5347,1745190872160574314
299104,543,180,-650,1959,2579,-7088,1745190872160574314
299296,169,97,-455,950,3578,-6853,1745190872160574314
299488,61,83,-248,729,3976,-6534,1745190872160574314
299680,296,163,-173,951,3961,-6497,1745190872160574314
299872,463,300,-265,1411,3615,-6651,1745190872214494603
300064,488,354,-450,1641,2591,-6515,1745190872214494603
300256,369,279,-621,1783,879,-7164,1745190872214494603
300448,169,220,-678,1741,912,-8401,1745190872214494603
300640,87,334,-513,1357,3174,-8180,1745190872214494603
300832,82,361,-255,934,5041,-8154,1745190872214494603
301024,120,368,-91,648,4754,-8184,1745190872214494603
301216,165,392,-124,553,3289,-8136,1745190872214494603
301408,223,462,-240,888,3123,-8220,1745190872214494603
301600,278,543,-276,1272,3345,-8078,1745190872214494603
301792,344,570,-265,1581,3299,-7996,1745190872214494603
301984,430,549,-216,2060,3572,-7898,1745190872214494603
302176,508,490,-120,2392,3169,-7950,1745190872274847801
302368,534,405,-49,2913,2712,-7759,1745190872274847801
302560,548,241,26,3550,2368,-7674,1745190872274847801
302752,540,15,141,4843,2234,-7554,1745190872274847801
302944,525,-294,255,5962,2046,-7636,1745190872274847801
303136,495,-502,362,4318,1863,-7705,1745190872274847801
303328,482,-584,381,2798,2200,-7748,1745190872274847801
303520,442,-603,275,580,2774,-7713,1745190872274847801
303712,427,-484,144,-594,3197,-7804,1745190872274847801
303904,460,-338,25,-837,3303,-7748,1745190872274847801
304096,536,-193,-42,-481,3032,-7804,1745190872274847801
304288,593,-77,-39,184,2738,-7887,1745190872274847801
304480,615,-10,-5,912,2262,-7924,1745190872331417284
304672,611,12,6,1620,1788,-7980,1745190872331417284
304864,578,4,-9,1889,1570,-7992,1745190872331417284
305056,494,-41,17,1737,1220,-7140,1745190872331417284
305248,183,-216,40,2376,-2206,-6000,1745190872331417284
305440,-349,-385,24,2825,-3153,-8786,1745190872331417284
305632,-130,-237,118,2595,5903,-7140,1745190872331417284
305824,127,-324,168,2089,6543,-7710,1745190872331417284
306016,-101,-372,33,1855,2415,-7687,1745190872331417284
306208,-153,-373,-116,2246,1182,-7892,1745190872331417284
306400,-95,-384,-176,1979,2509,-7723,1745190872331417284
306592,-116,-407,-137,1431,3164,-7557,1745190872331417284
307552,-237,-250,-263,1037,2679,-7136,1745190873998431327
370144,180,-19,42,-379,2258,-7459,1745190873998431327
370336,35,78,12,-282,2530,-7853,1745190873998431327
370528,58,73,6,-156,2345,-7951,1745190873998431327
370720,37,44,12,-148,1940,-8100,1745190873998431327
370912,-27,47,24,-355,1675,-8182,1745190873998431327
371104,-83,34,31,-425,1863,-8152,1745190873998431327
371296,-125,15,36,-469,2263,-8010,1745190873998431327
371488,-117,16,40,-432,2624,-7899,1745190873998431327
371680,-90,3,48,-278,2645,-7874,1745190873998431327
371872,-89,-1,56,-234,2276,-7918,1745190873998431327
372064,-124,-14,60,-250,1744,-7959,1745190873998431327
372256,-193,-30,64,-567,1735,-7912,1745190874052159482
372448,-251,-32,70,-701,2050,-7844,1745190874052159482
372640,-281,-25,72,-721,2318,-7823,1745190874052159482
372832,-303,-9,71,-762,2422,-7814,1745190874052159482
373024,-307,15,68,-718,2408,-7841,1745190874052159482
373216,-294,34,63,-640,2343,-7907,1745190874052159482
373408,-285,50,64,-532,2339,-7947,1745190874052159482
373600,-283,61,77,-457,2324,-7939,1745190874052159482
373792,-282,66,93,-421,2266,-7922,1745190874052159482
373984,-280,71,101,-487,2225,-7947,1745190874052159482
374176,-277,89,97,-574,2281,-7974,1745190874052159482
374368,-276,110,88,-640,2394,-7941,1745190874052159482
374560,-266,142,78,-693,2570,-7966,1745190874112729293
374752,-252,177,74,-680,2611,-8108,1745190874112729293
374944,-230,214,67,-607,2785,-8118,1745190874112729293
375136,-182,253,68,-562,3237,-8176,1745190874112729293
375328,-116,291,100,-373,3465,-8302,1745190874112729293
375520,-55,321,138,-49,3442,-8393,1745190874112729293
375712,8,329,167,367,3404,-8453,1745190874112729293
375904,73,316,194,558,3372,-8451,1745190874112729293
376096,137,292,223,596,3394,-8398,1745190874112729293
376288,205,267,258,552,3469,-8262,1745190874112729293
376480,246,244,273,201,3113,-8500,1745190874112729293
376672,369,253,280,-228,4070,-7467,1745190874112729293
376864,518,260,306,-940,2856,-7988,1745190874169453515
377056,616,336,283,-1184,2691,-7990,1745190874169453515
377248,706,416,244,-1468,2719,-7703,1745190874169453515
377440,735,437,210,-1212,1131,-7619,1745190874169453515
377632,616,404,155,-799,-575,-7842,1745190874169453515
377824,471,390,159,-649,-574,-7711,1745190874169453515
378016,326,373,216,-233,-61,-7735,1745190874169453515
378208,230,371,256,560,426,-7873,1745190874169453515
378400,154,336,277,1056,851,-7993,1745190874169453515
378592,109,286,248,1258,1101,-8044,1745190874169453515
378784,107,239,201,1184,1140,-8112,1745190874169453515
378976,128,207,177,994,1012,-8226,1745190874169453515
379168,162,191,178,785,877,-8393,1745190874229292083
379360,188,177,192,606,680,-8379,1745190874229292083
379552,187,171,219,485,371,-8433,1745190874229292083
379744,171,169,254,465,-52,-8458,1745190874229292083
379936,136,160,290,538,-491,-8737,1745190874229292083
380128,87,148,314,731,-821,-9169,1745190874229292083
380320,32,126,318,1038,-770,-9204,1745190874229292083
380512,-55,89,304,1295,-470,-8818,1745190874229292083
380704,-186,54,292,1535,-269,-8491,1745190874229292083
380896,-310,22,306,1730,-153,-8250,1745190874229292083
381088,-398,-7,346,1871,34,-7990,1745190874229292083
381280,-461,-38,392,1948,382,-7819,1745190874229292083
381472,-516,-68,433,2017,738,-7655,1745190874448221489
381664,-572,-95,457,2046,1007,-7522,1745190874448221489
381856,-615,-113,470,2059,1121,-7355,1745190874448221489
382048,-632,-124,486,2039,1133,-7262,1745190874448221489
382240,-630,-121,518,1973,959,-7023,1745190874448221489
382432,-619,-112,562,1973,795,-7221,1745190874448221489
382624,-592,-108,597,2004,735,-7403,1745190874448221489
382816,-579,-106,617,2048,722,-7298,1745190874448221489
383008,-584,-108,633,2088,667,-7351,1745190874448221489
383200,-593,-105,656,2151,521,-7448,1745190874448221489
383392,-597,-105,690,2233,397,-7536,1745190874448221489
383584,-588,-110,723,2323,432,-7608,1745190874448221489
383776,-575,-122,747,2397,621,-7661,1745190874491417917
383968,-562,-136,768,2463,854,-7708,1745190874491417917
384160,-534,-157,797,2528,1071,-7648,1745190874491417917
384352,-504,-165,845,2437,829,-7281,1745190874491417917
384544,-470,-156,943,2293,205,-7051,1745190874491417917
384736,-481,-128,1062,2036,-761,-6956,1745190874491417917
384928,-582,-105,1171,1901,-1555,-7592,1745190874491417917
385120,-767,-111,1212,2013,-1432,-8162,1745190874491417917
385312,-1002,-153,1144,2256,-176,-8664,1745190874491417917
385504,-1221,-245,995,2555,1821,-9010,1745190874491417917
385696,-1345,-372,827,2819,3874,-8906,1745190874491417917
385888,-1302,-490,726,2841,4935,-7399,1745190874491417917
386080,-1215,-501,750,2460,3520,-7382,1745190874538090564
386272,-1043,-459,944,2288,1407,-8121,1745190874538090564
386464,-745,-396,1232,2124,781,-7563,1745190874538090564
386656,-513,-428,1400,1924,2097,-7758,1745190874538090564
386848,-448,-480,1357,1771,3794,-8010,1745190874538090564
387040,-561,-533,1195,1542,4584,-8085,1745190874538090564
387232,-662,-580,1052,1269,4507,-8342,1745190874538090564
387424,-603,-592,1026,1178,4238,-8453,1745190874538090564
387616,-417,-591,1097,1157,4248,-8512,1745190874538090564
387808,-168,-579,1203,1171,4461,-8629,1745190874538090564
388000,53,-560,1299,1234,4636,-8740,1745190874538090564
388192,237,-537,1360,1247,4495,-8537,1745190874538090564
388384,420,-507,1381,1193,3995,-8268,1745190874583277130
388576,602,-469,1388,1071,3293,-8097,1745190874583277130
388768,754,-406,1419,932,2290,-7871,1745190874583277130
388960,849,-325,1497,849,1162,-7869,1745190874583277130
389152,879,-257,1615,947,136,-7881,1745190874583277130
389344,847,-213,1739,1122,-548,-7850,1745190874583277130
389536,754,-195,1828,1351,-797,-7828,1745190874583277130
389728,614,-196,1867,1595,-742,-7798,1745190874583277130
389920,449,-209,1866,1866,-276,-7663,1745190874583277130
390112,277,-232,1837,2116,424,-7473,1745190874583277130
390304,131,-250,1798,2339,1204,-7296,1745190874583277130
390496,29,-267,1768,2523,1896,-7137,1745190874583277130
390688,-26,-276,1757,2652,2462,-7024,1745190874629981235
390880,-43,-278,1768,2742,2814,-6892,1745190874629981235
391072,-36,-268,1791,2761,2964,-6779,1745190874629981235
391264,-18,-241,1817,2760,2940,-6681,1745190874629981235
391456,-1,-200,1844,2706,2771,-6598,1745190874629981235
391648,13,-153,1874,2752,2572,-6536,1745190874629981235
391840,21,-111,1904,2820,2396,-6521,1745190874629981235
392032,21,-68,1931,2879,2294,-6503,1745190874629981235
392224,19,-20,1960,2970,2211,-6454,1745190874629981235
392416,16,26,1996,3123,2153,-6385,1745190874629981235
392608,16,67,2032,3304,2144,-6300,1745190874629981235
392800,21,108,2065,3439,2219,-6189,1745190874629981235
392992,27,146,2093,3569,2302,-6074,1745190874678112254
393184,37,189,2118,3656,2371,-5926,1745190874678112254
393376,48,237,2143,3736,2424,-5743,1745190874678112254
393568,55,285,2164,3753,2428,-5543,1745190874678112254
393760,61,340,2187,3758,2396,-5312,1745190874678112254
393952,66,401,2211,3710,2377,-5026,1745190874678112254
394144,63,468,2240,3667,2324,-4747,1745190874678112254
394336,50,542,2270,3610,2301,-4487,1745190874678112254
394528,28,619,2293,3608,2294,-4251,1745190874678112254
394720,-2,701,2311,3644,2317,-4021,1745190874678112254
394912,-37,788,2326,3724,2341,-3825,1745190874678112254
395104,-72,887,2342,3840,2369,-3661,1745190874678112254
395296,-104,993,2358,4019,2414,-3559,1745190874721671127
395488,-132,1102,2375,4229,2493,-3451,1745190874721671127
395680,-158,1206,2390,4495,2576,-3325,1745190874721671127
395872,-182,1311,2397,4762,2629,-3159,1745190874721671127
396064,-207,1410,2399,5043,2719,-3051,1745190874721671127
396256,-228,1508,2397,5305,2805,-2979,1745190874721671127
396448,-245,1605,2393,5532,2896,-2882,1745190874721671127
396640,-263,1702,2391,5763,2957,-2779,1745190874721671127
396832,-274,1798,2390,6011,2976,-2643,1745190874721671127
397024,-269,1883,2393,6243,2993,-2453,1745190874721671127
397216,-250,1965,2400,6461,3067,-2227,1745190874721671127
397408,-225,2042,2407,6670,3229,-2121,1745190874721671127
397600,-200,2120,2412,6786,3452,-2189,1745190874754809522
397792,-169,2204,2408,6902,3691,-2246,1745190874754809522
397984,-118,2298,2395,7020,3870,-2237,1745190874754809522
398176,-48,2400,2388,7114,3976,-2195,1745190874754809522
398368,44,2505,2377,7267,4120,-2285,1745190874754809522
398560,152,2621,2363,7426,4154,-2126,1745190874754809522
398752,265,2746,2343,7607,4102,-2023,1745190874754809522
398944,387,2871,2311,7811,4084,-1946,1745190874754809522
399136,533,2984,2249,7889,4298,-2033,1745190874754809522
399328,657,3094,2145,8143,4150,-1518,1745190874754809522
399520,733,3205,2129,8676,3767,-1826,1745190874754809522
399712,872,3332,2069,8720,3857,-1908,1745190874754809522
399904,1011,3482,2042,8891,4019,-1494,1745190874778137538
400096,1130,3625,2049,9125,3990,-1344,1745190874778137538
400288,1263,3758,2015,9470,3995,-1372,1745190874778137538
400480,1389,3873,1967,9738,4134,-1423,1745190874778137538
400672,1498,3970,1932,10066,4163,-1505,1745190874778137538
400864,1626,4024,1902,10396,4235,-1425,1745190874778137538
401056,1776,4080,1876,10591,4239,-1561,1745190874778137538
401248,1925,4144,1824,10798,4021,-1406,1745190874778137538
401440,2054,4219,1714,10957,3796,-1334,1745190874778137538
401632,2154,4309,1556,10887,3823,-1365,1745190874778137538
401824,2233,4410,1428,10859,3947,-1345,1745190874778137538
402016,2300,4515,1359,10792,4114,-1426,1745190874778137538
402208,2372,4631,1358,10819,4161,-1435,1745190874815156939
402400,2438,4683,1379,11075,4130,-1390,1745190874815156939
402592,2504,4753,1401,11089,4195,-1359,1745190874815156939
402784,2567,4749,1401,11279,3933,-1091,1745190874815156939
402976,2609,4779,1325,11243,3769,-801,1745190874815156939
403168,2576,4776,1219,11083,3622,-705,1745190874815156939
403360,2377,4814,1085,11399,3240,-270,1745190874815156939
403552,2349,4805,1131,11958,2921,114,1745190874815156939
403744,2368,4724,1114,11997,2900,-100,1745190874815156939
403936,2283,4728,1069,12191,3092,127,1745190874815156939
404128,2155,4654,1010,12260,3175,278,1745190874815156939
404320,2035,4639,910,12291,3004,638,1745190874815156939
404512,1938,4583,792,12368,2825,979,1745190874870371435
404704,1869,4545,683,12462,2778,1057,1745190874870371435
404896,1799,4500,606,12618,2861,1074,1745190874870371435
405088,1712,4456,548,12826,2840,1070,1745190874870371435
405280,1639,4376,468,13068,2952,1115,1745190874870371435
405472,1573,4304,369,13251,3074,1170,1745190874870371435
405664,1485,4230,272,13527,3174,1234,1745190874870371435
405856,1396,4152,170,13775,3461,1242,1745190874870371435
406048,1329,4061,90,14013,3777,813,1745190874870371435
406240,1287,3989,27,14139,4124,494,1745190874870371435
406432,1271,3919,-25,14185,4348,144,1745190874870371435
406624,1290,3877,-86,14251,4605,-334,1745190874870371435
406816,1345,3835,-175,14330,4869,-717,1745190874932106131
407008,1405,3807,-304,14337,5000,-856,1745190874932106131
407200,1450,3783,-465,14356,5033,-849,1745190874932106131
407392,1489,3733,-629,14455,5253,-1038,1745190874932106131
407584,1529,3701,-743,14388,5523,-1097,1745190874932106131
407776,1557,3666,-822,14444,5561,-670,1745190874932106131
407968,1585,3574,-903,14614,5676,-490,1745190874932106131
408160,1618,3492,-977,14607,5717,-379,1745190874932106131
408352,1635,3439,-1061,14601,5632,-300,1745190874932106131
408544,1657,3372,-1133,14528,5761,-327,1745190874932106131
408736,1696,3295,-1147,14557,5764,-258,1745190874932106131
408928,1743,3194,-1146,14601,5461,-208,1745190874932106131
409120,1790,3071,-1161,14718,5104,-247,1745190874991435381
409312,1828,2927,-1199,14871,4750,-382,1745190874991435381
409504,1844,2798,-1282,14973,4410,-584,1745190874991435381
409696,1820,2669,-1412,15064,4151,-687,1745190874991435381
409888,1771,2558,-1559,15112,4050,-826,1745190874991435381
410080,1713,2468,-1722,15072,3953,-888,1745190874991435381
410272,1630,2363,-1885,15137,3775,-816,1745190874991435381
410464,1536,2265,-2064,15262,3655,-1015,1745190874991435381
410656,1416,2161,-2255,15271,3428,-1188,1745190874991435381
410848,1280,2050,-2444,15278,3091,-1357,1745190874991435381
411040,1161,1959,-2624,15206,3127,-1556,1745190874991435381
411232,1066,1882,-2761,14965,3297,-1435,1745190874991435381
411424,1001,1813,-2854,14733,3285,-1359,1745190875045930873
411616,971,1723,-2920,14550,2990,-1584,1745190875045930873
411808,957,1630,-2974,14324,2352,-1976,1745190875045930873
412000,937,1527,-3018,14105,1506,-2438,1745190875045930873
412192,886,1403,-3041,13914,686,-2978,1745190875045930873
412384,791,1285,-3043,13662,-56,-3405,1745190875045930873
412576,648,1159,-3022,13419,-691,-3656,1745190875045930873
412768,481,1019,-3002,13206,-1243,-3615,1745190875045930873
412960,306,868,-2990,12842,-1558,-3482,1745190875045930873
413152,112,737,-2981,12367,-1511,-3253,1745190875045930873
413344,-110,605,-3016,11931,-1427,-2904,1745190875045930873
413536,-340,478,-3076,11456,-1223,-2377,1745190875045930873
413728,-559,358,-3119,10940,-927,-1731,1745190875124700466
413920,-762,257,-3127,10425,-632,-1161,1745190875124700466
414112,-935,179,-3088,9992,-467,-694,1745190875124700466
414304,-1059,97,-3011,9707,-635,-539,1745190875124700466
414496,-1113,-1,-2913,9388,-959,-816,1745190875124700466
414688,-1093,-100,-2807,9062,-1190,-1013,1745190875124700466
414880,-1032,-181,-2705,8804,-1288,-1009,1745190875124700466
415072,-959,-235,-2613,8568,-1353,-1105,1745190875124700466
415264,-881,-283,-2518,8417,-1517,-1150,1745190875124700466
415456,-791,-342,-2422,8305,-1580,-1242,1745190875124700466
415648,-692,-412,-2341,8137,-1435,-1127,1745190875124700466
415840,-606,-496,-2282,7969,-1291,-924,1745190875124700466
416032,-542,-594,-2245,7784,-1345,-661,1745190875162199342
416224,-493,-695,-2216,7538,-1509,-331,1745190875162199342
416416,-448,-801,-2171,7245,-1611,-38,1745190875162199342
416608,-434,-904,-2086,7088,-1237,108,1745190875162199342
416800,-582,-959,-1839,6809,-1851,295,1745190875162199342
416992,-451,-1206,-1684,6812,-1662,587,1745190875162199342
417184,-377,-1278,-1673,5797,-1485,473,1745190875162199342
417376,-402,-1254,-1766,4867,-1324,799,1745190875162199342
417568,-417,-1226,-1828,4288,-1120,842,1745190875162199342
417760,-403,-1161,-1784,3829,-903,987,1745190875162199342
417952,-342,-1132,-1641,3641,-511,1071,1745190875162199342
418144,-290,-1104,-1456,3722,-246,1121,1745190875162199342
418336,-233,-1084,-1293,3871,-129,1172,1745190875228616131
418528,-169,-1056,-1191,4028,-155,1155,1745190875228616131
418720,-129,-1023,-1153,4247,-210,949,1745190875228616131
418912,-123,-988,-1146,4461,-379,754,1745190875228616131
419104,-161,-958,-1089,4974,-638,664,1745190875228616131
419296,-262,-986,-952,5016,-711,773,1745190875228616131
419488,-316,-1057,-1026,4907,-287,634,1745190875228616131
419680,-347,-1089,-1055,4603,-456,343,1745190875228616131
419872,-383,-1015,-1107,4244,-675,33,1745190875228616131
420064,-427,-947,-1124,4205,-745,-292,1745190875228616131
420256,-495,-964,-1039,4407,-472,-392,1745190875228616131
420448,-594,-988,-847,4762,111,-223,1745190875228616131
420640,-681,-1034,-688,5010,807,139,1745190875283261569
420832,-788,-1019,-592,5185,1115,281,1745190875283261569
421024,-802,-1016,-561,5614,1626,1081,1745190875283261569
421216,-665,-1039,-553,5540,2335,932,1745190875283261569
421408,-584,-1025,-466,5608,1901,1004,1745190875283261569
421600,-564,-983,-437,5729,1303,913,1745190875283261569
421792,-549,-939,-435,5929,856,906,1745190875283261569
421984,-505,-912,-397,6202,719,866,1745190875283261569
422176,-465,-897,-338,6519,689,948,1745190875283261569
422368,-404,-894,-289,6876,605,1124,1745190875283261569
422560,-300,-893,-253,7097,603,1192,1745190875283261569
422752,-228,-886,-238,7419,512,1233,1745190875283261569
422944,-168,-883,-236,7691,581,1377,1745190875340783492
423136,-134,-890,-229,7884,698,1504,1745190875340783492
423328,-103,-896,-223,8040,917,1610,1745190875340783492
423520,-88,-906,-199,8219,1056,1653,1745190875340783492
423712,-91,-901,-178,8371,1289,1627,1745190875340783492
423904,-102,-888,-150,8552,1496,1542,1745190875340783492
424096,-119,-873,-109,8830,1485,1474,1745190875340783492
424288,-128,-871,-65,9083,1391,1419,1745190875340783492
424480,-127,-878,-34,9309,1587,1451,1745190875340783492
424672,-133,-880,-20,9470,1955,1539,1745190875340783492
424864,-121,-885,-20,9625,2246,1659,1745190875340783492
425056,-70,-882,-9,9702,2321,1784,1745190875340783492
425248,9,-883,7,9766,2291,1897,1745190875396732512
425440,85,-884,15,9804,2288,1909,1745190875396732512
425632,145,-875,0,9779,2197,2000,1745190875396732512
425824,185,-889,-16,10027,1842,1975,1745190875396732512
426016,220,-879,-48,9911,1774,2050,1745190875396732512
426208,238,-873,-65,9758,2199,2347,1745190875396732512
426400,249,-857,-65,9624,2876,2546,1745190875396732512
426592,274,-827,-66,9538,3508,2924,1745190875396732512
426784,338,-796,-57,9490,3893,3188,1745190875396732512
426976,430,-765,-49,9491,3917,3322,1745190875396732512
427168,520,-739,-68,9480,3543,3299,1745190875396732512
427360,589,-707,-91,9452,3015,3104,1745190875396732512
427552,633,-678,-117,9283,2605,3018,1745190875456170719
427744,643,-640,-131,9116,2308,2881,1745190875456170719
427936,628,-603,-135,8967,2248,2821,1745190875456170719
428128,598,-559,-137,8851,2426,2881,1745190875456170719
428320,558,-518,-149,8777,3148,3063,1745190875456170719
428512,521,-464,-183,8771,4126,3362,1745190875456170719
428704,522,-380,-181,8845,5113,3351,1745190875456170719
428896,573,-306,-126,8916,6114,3570,1745190875456170719
429088,690,-246,-42,9173,6711,3783,1745190875456170719
429280,870,-227,9,9350,7184,3859,1745190875456170719
429472,1059,-202,17,9371,7653,3657,1745190875456170719
429664,1201,-169,-18,9363,7704,3331,1745190875456170719
429856,1308,-120,-78,9298,7363,3233,1745190875516227410
430048,1415,-91,-119,9205,6866,3066,1745190875516227410
430240,1500,-58,-134,9061,6344,2868,1745190875516227410
430432,1540,-40,-122,8956,6112,2576,1745190875516227410
430624,1505,15,-128,8757,6040,2357,1745190875516227410
430816,1437,58,-119,8767,6007,2321,1745190875516227410
431008,1367,78,-102,8771,6161,2248,1745190875516227410
431200,1274,82,-106,8729,6558,2292,1745190875516227410
431392,1148,74,-129,8622,6952,2457,1745190875516227410
431584,1009,64,-147,8452,7197,2569,1745190875516227410
431776,888,48,-152,8225,7162,2637,1745190875516227410
431968,795,22,-164,8001,6917,2694,1745190875516227410
432160,721,-8,-180,7636,6755,2693,1745190875576720503
432352,655,-26,-210,7319,6289,2728,1745190875576720503
432544,597,-47,-279,6982,5749,2702,1745190875576720503
432736,554,-57,-333,6572,5291,2654,1745190875576720503
432928,532,-72,-332,6266,4812,2562,1745190875576720503
433120,517,-106,-323,5981,4423,2412,1745190875576720503
433312,491,-132,-319,5696,4299,2242,1745190875576720503
433504,460,-156,-308,5436,4264,2208,1745190875576720503
433696,435,-181,-305,5176,4268,2160,1745190875576720503
433888,407,-189,-312,4870,4222,1982,1745190875576720503
434080,389,-183,-302,4606,3989,1760,1745190875576720503
434272,384,-173,-267,4389,3660,1519,1745190875576720503
434464,375,-159,-220,4264,3373,1248,1745190875638701239
434656,358,-147,-165,4183,3251,1067,1745190875638701239
434848,348,-144,-96,4164,3191,977,1745190875638701239
435040,352,-152,-24,4178,3188,947,1745190875638701239
435232,367,-158,45,4117,3276,1002,1745190875638701239
435424,378,-162,110,4035,3554,1115,1745190875638701239
435616,375,-158,160,3931,4026,1192,1745190875638701239
435808,358,-149,199,3828,4520,1162,1745190875638701239
436000,348,-134,247,3813,4649,1117,1745190875638701239
436192,358,-112,307,3836,4390,1056,1745190875638701239
436384,365,-87,370,3909,3911,883,1745190875638701239
436576,347,-61,411,4066,3668,648,1745190875638701239
436768,313,-39,427,4275,3859,579,1745190875688680001
436960,291,-31,430,4515,4297,656,1745190875688680001
437152,294,-33,424,4754,4736,639,1745190875688680001
437344,323,-30,415,4986,5047,579,1745190875688680001
437536,357,-17,406,5210,5174,476,1745190875688680001
437728,377,-4,403,5441,5133,312,1745190875688680001
437920,376,-7,409,5565,5036,140,1745190875688680001
438112,349,-21,414,5670,5009,1,1745190875688680001
438304,297,-34,412,5698,5148,-90,1745190875688680001
438496,225,-42,397,5754,5468,-48,1745190875688680001
438688,154,-45,374,5847,5940,95,1745190875688680001
438880,101,-46,354,5963,6411,253,1745190875688680001
439072,71,-46,338,6082,6716,368,1745190875748745338
439264,63,-42,327,6191,6754,368,1745190875748745338
439456,75,-36,323,6321,6564,290,1745190875748745338
439648,96,-29,317,6420,6379,108,1745190875748745338
439840,122,-22,307,6522,6317,-17,1745190875748745338
440032,151,-18,295,6616,6361,13,1745190875748745338
440224,188,-19,282,6709,6377,99,1745190875748745338
440416,228,-17,268,6788,6396,187,1745190875748745338
440608,255,-9,256,6911,6347,240,1745190875748745338
440800,268,-3,250,7048,6276,312,1745190875748745338
440992,270,-5,245,7170,6317,392,1745190875748745338
441184,263,-9,237,7298,6584,546,1745190875748745338
441376,248,-11,221,7416,6827,687,1745190875806853505
441568,231,-9,204,7533,6907,793,1745190875806853505
441760,215,-7,186,7637,6862,830,1745190875806853505
441952,198,-6,169,7715,6737,848,1745190875806853505
442144,174,-6,155,7733,6675,902,1745190875806853505
442336,143,-5,136,7758,6725,880,1745190875806853505
442528,108,-1,115,7778,6766,841,1745190875806853505
442720,74,2,94,7775,6641,699,1745190875806853505
442912,39,0,82,7742,6482,635,1745190875806853505
443104,-12,-1,73,7683,6492,655,1745190875806853505
443296,-87,4,69,7655,6572,696,1745190875806853505
443488,-164,11,79,7623,6635,748,1745190875806853505
443680,-227,17,89,7653,6548,708,1745190875865847810
443872,-268,26,107,7627,6512,771,1745190875865847810
444064,-301,30,122,7709,6418,839,1745190875865847810
444256,-348,35,114,7751,6453,925,1745190875865847810
444448,-399,39,106,7772,6585,1021,1745190875865847810
444640,-445,46,114,7766,6687,1155,1745190875865847810
444832,-480,46,117,7744,6672,1339,1745190875865847810
445024,-500,48,113,7681,6567,1441,1745190875865847810
445216,-508,56,117,7563,6381,1419,1745190875865847810
445408,-511,71,132,7502,6018,1401,1745190875865847810
445600,-517,79,153,7447,5463,1263,1745190875865847810
445792,-530,81,167,7383,4805,1033,1745190875865847810
445984,-549,82,182,7301,4164,844,1745190875923220463
446176,-575,82,211,7237,3796,791,1745190875923220463
446368,-619,89,248,7219,3899,774,1745190875923220463
446560,-693,101,270,7299,4241,795,1745190875923220463
446752,-767,108,281,7456,4547,955,1745190875923220463
446944,-804,102,292,7588,4682,1105,1745190875923220463
447136,-799,94,311,7653,4666,1219,1745190875923220463
447328,-777,90,338,7607,4605,1244,1745190875923220463
447520,-776,94,357,7541,4404,1135,1745190875923220463
447712,-799,104,368,7544,3994,961,1745190875923220463
447904,-822,112,377,7501,3652,806,1745190875923220463
448096,-842,118,380,7580,4180,430,1745190875923220463
448288,-1057,185,462,7988,3129,605,1745190875982159352
448480,-867,45,604,8505,2658,982,1745190875982159352
448672,-713,-16,502,7144,2640,-376,1745190875982159352
448864,-772,191,234,6196,2598,166,1745190875982159352
449056,-816,246,106,6262,2763,133,1745190875982159352
449248,-811,321,217,6487,2923,426,1745190875982159352
449440,-756,296,448,7046,3176,522,1745190875982159352
449632,-745,265,631,7592,3234,593,1745190875982159352
449824,-739,239,672,7936,2993,709,1745190875982159352
450016,-748,209,571,8042,2681,557,1745190875982159352
450208,-795,191,459,7838,2397,545,1745190875982159352
450400,-822,165,445,7591,2121,584,1745190875982159352
450592,-837,133,502,7341,1955,536,1745190876048758847
450784,-853,126,569,7054,1913,486,1745190876048758847
450976,-852,141,616,6923,1855,458,1745190876048758847
451168,-837,159,632,6889,1797,441,1745190876048758847
451360,-797,176,644,6922,1733,396,1745190876048758847
451552,-744,184,667,7009,1684,383,1745190876048758847
451744,-689,181,698,7101,1535,477,1745190876048758847
451936,-634,167,735,7133,1324,565,1745190876048758847
452128,-585,155,779,7081,1252,665,1745190876048758847
452320,-559,154,817,6985,1427,748,1745190876048758847
452512,-562,166,844,6923,1726,811,1745190876048758847
452704,-575,186,858,6962,1993,843,1745190876048758847
452896,-582,205,866,7078,2066,791,1745190876098399279
453088,-580,215,875,7223,1930,680,1745190876098399279
453280,-576,218,889,7357,1686,493,1745190876098399279
453472,-586,214,911,7456,1477,289,1745190876098399279
453664,-606,206,930,7523,1544,243,1745190876098399279
453856,-629,197,937,7556,1929,274,1745190876098399279
454048,-643,193,932,7561,2395,269,1745190876098399279
454240,-619,196,926,7584,2751,274,1745190876098399279
454432,-561,207,923,7629,2999,276,1745190876098399279
454624,-492,227,928,7754,3036,175,1745190876098399279
454816,-433,242,937,7931,2930,89,1745190876098399279
455008,-396,252,939,8125,2778,-43,1745190876098399279
455200,-378,249,934,8327,2631,-233,1745190876162275675
455392,-396,258,943,8396,2517,-517,1745190876162275675
455584,-454,215,994,9034,2034,-85,1745190876162275675
455776,-419,92,919,9091,1819,-405,1745190876162275675
455968,-404,93,765,8531,1592,-464,1745190876162275675
456160,-487,124,690,8350,1349,-218,1745190876162275675
456352,-586,115,705,8435,1140,-174,1745190876162275675
456544,-671,83,741,8352,1077,-197,1745190876162275675
456736,-777,51,747,8314,1228,-117,1745190876162275675
456928,-856,27,724,8357,1669,67,1745190876162275675
457120,-870,8,693,8349,2245,231,1745190876162275675
457312,-818,-7,660,8337,2964,195,1745190876162275675
457504,-680,-1,644,8336,3786,310,1745190876218811929
457696,-473,22,658,8365,4318,584,1745190876218811929
457888,-216,30,687,8500,4284,710,1745190876218811929
458080,37,22,698,8668,3723,547,1745190876218811929
458272,242,1,685,8798,2854,320,1745190876218811929
458464,368,-26,650,8839,1994,120,1745190876218811929
458656,406,-59,610,8840,1241,-81,1745190876218811929
458848,386,-103,579,8760,701,-166,1745190876218811929
459040,351,-150,556,8594,361,-160,1745190876218811929
459232,322,-187,535,8387,120,-127,1745190876218811929
459424,287,-212,521,8209,-167,-241,1745190876218811929
459616,220,-243,513,8056,-573,-352,1745190876218811929
459808,124,-288,501,7964,-924,-417,1745190876279341741
460000,8,-329,476,7776,-868,-277,1745190876279341741
460192,-105,-351,448,7693,-494,-151,1745190876279341741
460384,-208,-381,429,7660,258,71,1745190876279341741
460576,-265,-400,415,7668,1028,234,1745190876279341741
460768,-249,-426,407,7659,1549,478,1745190876279341741
460960,-157,-447,414,7679,1718,550,1745190876279341741
461152,-18,-474,438,7721,1477,383,1745190876279341741
461344,128,-501,476,7712,942,44,1745190876279341741
461536,254,-537,521,7701,281,-226,1745190876279341741
461728,345,-585,564,7684,-309,-468,1745190876279341741
461920,397,-641,597,7634,-879,-708,1745190876279341741
462112,418,-702,625,7601,-1291,-896,1745190876352895757
462304,420,-762,641,7521,-1546,-951,1745190876352895757
462496,411,-820,644,7387,-1476,-721,1745190876352895757
462688,380,-870,635,7185,-1024,-318,1745190876352895757
462880,312,-901,613,6980,-417,-18,1745190876352895757
463072,216,-918,583,6839,-71,155,1745190876352895757
463264,114,-931,559,6758,-9,232,1745190876352895757
463456,18,-948,552,6770,-14,260,1745190876352895757
463648,-55,-949,578,6846,209,179,1745190876352895757
463840,-95,-935,640,6935,509,66,1745190876352895757
464032,-95,-928,707,7130,707,-158,1745190876352895757
464224,-43,-931,762,7306,757,-559,1745190876352895757
464416,43,-942,797,7523,650,-1041,1745190876394051578
464608,164,-964,809,7666,382,-1664,1745190876394051578
464800,291,-989,822,7768,-33,-2287,1745190876394051578
464992,419,-1034,834,7866,-417,-2678,1745190876394051578
465184,544,-1094,828,7785,-394,-2417,1745190876394051578
465376,618,-1140,788,7553,149,-1851,1745190876394051578
465568,624,-1150,712,7321,906,-1211,1745190876394051578
465760,585,-1129,613,7147,1599,-843,1745190876394051578
465952,537,-1080,522,7087,2042,-715,1745190876394051578
466144,496,-1026,468,7159,2180,-793,1745190876394051578
466336,466,-974,460,7338,2052,-1043,1745190876394051578
466528,435,-938,495,7611,1817,-1429,1745190876394051578
466720,391,-918,547,7945,1478,-1904,1745190876455837056
466912,329,-921,586,8311,1095,-2457,1745190876455837056
467104,247,-941,608,8669,767,-3040,1745190876455837056
467296,155,-970,616,8965,496,-3599,1745190876455837056
467488,73,-1012,616,9232,335,-4173,1745190876455837056
467680,16,-1062,606,9418,295,-4692,1745190876455837056
467872,-2,-1119,588,9536,408,-5194,1745190876455837056
468064,26,-1184,561,9552,614,-5555,1745190876455837056
468256,91,-1259,521,9497,828,-5731,1745190876455837056
468448,177,-1347,472,9325,1046,-5415,1745190876455837056
468640,255,-1436,422,9046,1283,-4966,1745190876455837056
468832,299,-1508,371,8756,1637,-4737,1745190876455837056
469024,299,-1553,332,8472,1976,-4549,1745190876511764462
469216,284,-1580,325,8261,2265,-4400,1745190876511764462
469408,289,-1603,354,8141,2582,-4323,1745190876511764462
469600,325,-1630,407,8090,2899,-4352,1745190876511764462
469792,385,-1663,466,8124,3195,-4364,1745190876511764462
469984,463,-1694,527,8248,3390,-4352,1745190876511764462
470176,554,-1731,593,8453,3459,-4365,1745190876511764462
470368,650,-1780,663,8728,3365,-4421,1745190876511764462
470560,731,-1854,726,9073,3242,-4540,1745190876511764462
470752,790,-1949,774,9388,3103,-4691,1745190876511764462
470944,828,-2055,810,9631,3099,-4872,1745190876511764462
471136,848,-2157,827,9846,3255,-5167,1745190876511764462
471328,852,-2250,835,10025,3410,-5401,1745190876572075265
471520,846,-2337,841,10257,3464,-5546,1745190876572075265
471712,839,-2422,850,10502,3474,-5664,1745190876572075265
471904,833,-2508,864,10779,3466,-5736,1745190876572075265
472096,816,-2594,880,11094,3489,-5846,1745190876572075265
472288,770,-2687,895,11443,3430,-5796,1745190876572075265
472480,697,-2787,910,11811,3270,-5593,1745190876572075265
472672,604,-2894,930,12124,3097,-5252,1745190876572075265
472864,499,-3023,944,12548,2899,-4823,1745190876572075265
473056,425,-3155,911,12774,2889,-4598,1745190876572075265
473248,347,-3264,848,12883,3059,-4386,1745190876572075265
473440,225,-3363,794,12904,3202,-4100,1745190876572075265
473632,103,-3478,724,13053,3166,-3921,1745190876631220974
473824,17,-3592,609,13153,3279,-3888,1745190876631220974
474016,-110,-3714,525,13286,3463,-3985,1745190876631220974
474208,-244,-3823,478,13197,3780,-4170,1745190876631220974
474400,-363,-3887,428,12763,4104,-4511,1745190876631220974
474592,-488,-3949,306,12671,4371,-4394,1745190876631220974
474784,-551,-3975,280,12785,4476,-4491,1745190876631220974
474976,-588,-3978,294,12771,4680,-4584,1745190876631220974
475168,-686,-4026,230,12915,4792,-4430,1745190876631220974
475360,-789,-4082,116,13019,4648,-4218,1745190876631220974
475552,-872,-4118,-23,12957,4527,-3975,1745190876631220974
475744,-926,-4151,-167,12803,4585,-3758,1745190876631220974
475936,-983,-4178,-314,12618,4687,-3726,1745190876687285202
476128,-1047,-4201,-449,12330,4751,-3771,1745190876687285202
476320,-1121,-4230,-540,12012,4816,-3799,1745190876687285202
476512,-1175,-4275,-592,11677,4834,-3743,1745190876687285202
476704,-1194,-4324,-638,11252,4745,-3608,1745190876687285202
476896,-1192,-4346,-706,10709,4663,-3463,1745190876687285202
477088,-1189,-4328,-798,10164,4655,-3410,1745190876687285202
477280,-1197,-4275,-908,9684,4644,-3454,1745190876687285202
477472,-1215,-4200,-1027,9264,4721,-3513,1745190876687285202
477664,-1233,-4111,-1141,8890,4877,-3664,1745190876687285202
477856,-1241,-4017,-1243,8542,5078,-3920,1745190876687285202
478048,-1237,-3919,-1332,8253,5324,-4125,1745190876687285202
478240,-1218,-3820,-1413,7990,5550,-4449,1745190876765939431
478432,-1185,-3720,-1486,7836,5634,-4630,1745190876765939431
478624,-1141,-3629,-1556,7697,5648,-4699,1745190876765939431
478816,-1093,-3551,-1619,7645,5479,-4676,1745190876765939431
479008,-1041,-3491,-1671,7593,5387,-4633,1745190876765939431
479200,-980,-3428,-1713,7441,5549,-4776,1745190876765939431
479392,-878,-3347,-1737,7217,6031,-4705,1745190876765939431
479584,-734,-3248,-1741,7115,6699,-4219,1745190876765939431
479776,-541,-3192,-1757,7152,7241,-3510,1745190876765939431
479968,-314,-3178,-1788,7144,7532,-3061,1745190876765939431
480160,-64,-3174,-1826,7014,7562,-2689,1745190876765939431
480352,178,-3154,-1876,6736,7429,-2471,1745190876765939431
480544,383,-3109,-1921,6397,7212,-2617,1745190876812233123
480928,629,-2956,-1969,5638,6649,-2842,1745190876812233123
481120,675,-2868,-1983,5362,6421,-3037,1745190876812233123
481312,686,-2786,-1995,5154,6306,-3210,1745190876812233123
481504,667,-2698,-2003,4950,6351,-3585,1745190876812233123
481696,648,-2601,-2015,4862,6650,-3895,1745190876812233123
481888,675,-2501,-2033,4818,7224,-3958,1745190876812233123
482080,782,-2405,-2054,4921,7880,-3569,1745190876812233123
482272,947,-2317,-2080,5130,8263,-3154,1745190876812233123
482464,1124,-2279,-2112,5300,8125,-3041,1745190876812233123
482656,1263,-2260,-2155,5326,7434,-2901,1745190876812233123
482848,1328,-2196,-2203,5121,6394,-2940,1745190876812233123
483040,1335,-2106,-2233,4797,5257,-3113,1745190876876951698
483232,1270,-2020,-2244,4353,4262,-3454,1745190876876951698
483424,1136,-1932,-2256,3895,3520,-3992,1745190876876951698
483616,956,-1803,-2282,3500,3035,-4423,1745190876876951698
483808,750,-1678,-2331,3227,2754,-4756,1745190876876951698
484000,547,-1570,-2404,3034,2743,-4969,1745190876876951698
484192,361,-1469,-2498,2941,2929,-5122,1745190876876951698
484384,194,-1376,-2593,3038,3181,-5049,1745190876876951698
484576,52,-1286,-2681,3167,3526,-4791,1745190876876951698
484768,-61,-1186,-2752,3231,3929,-4594,1745190876876951698
484960,-131,-1078,-2803,3274,4297,-4229,1745190876876951698
485152,-158,-964,-2843,3255,4525,-3882,1745190876876951698
485344,-157,-850,-2880,3189,4698,-3531,1745190876925613129
485536,-141,-736,-2911,3058,4713,-3217,1745190876925613129
485728,-128,-622,-2929,2874,4527,-2912,1745190876925613129
485920,-125,-501,-2929,2667,4221,-2698,1745190876925613129
486112,-120,-370,-2915,2453,3866,-2640,1745190876925613129
486304,-109,-232,-2894,2352,3490,-2712,1745190876925613129
486496,-88,-95,-2868,2259,3181,-2859,1745190876925613129
486688,-49,39,-2841,2231,2996,-3025,1745190876925613129
486880,13,167,-2822,2287,2936,-3310,1745190876925613129
487072,109,290,-2820,2349,2826,-3374,1745190876925613129
487264,235,405,-2830,2442,2630,-3595,1745190876925613129
487456,376,509,-2847,2480,2246,-3979,1745190876925613129
487648,505,609,-2858,2487,1795,-4493,1745190876985647945
487840,623,708,-2855,2459,1470,-5049,1745190876985647945
488032,742,806,-2835,2406,1411,-5256,1745190876985647945
488224,886,897,-2804,2358,1589,-5171,1745190876985647945
488416,1055,976,-2769,2315,1810,-4928,1745190876985647945
488608,1255,1047,-2732,2255,2046,-4785,1745190876985647945
488800,1473,1114,-2689,2190,2239,-4953,1745190876985647945
488992,1668,1178,-2626,2180,2122,-5224,1745190876985647945
489184,1825,1238,-2538,2293,1703,-5403,1745190876985647945
489376,1947,1277,-2417,2523,1042,-5582,1745190876985647945
489568,2005,1293,-2277,2804,-23,-5718,1745190876985647945
489760,1988,1297,-2121,3050,-1501,-5767,1745190876985647945
489952,1883,1287,-1955,3172,-3118,-5742,1745190877051739425
490144,1670,1263,-1791,3348,-4790,-5705,1745190877051739425
490336,1352,1240,-1640,3446,-5991,-5796,1745190877051739425
490528,959,1210,-1513,3379,-6586,-5980,1745190877051739425
490720,551,1189,-1414,3459,-6135,-6156,1745190877051739425
490912,202,1182,-1342,3501,-4928,-6286,1745190877051739425
491104,6,1185,-1275,3643,-3294,-6302,1745190877051739425
491296,23,1197,-1203,3818,-1773,-6273,1745190877051739425
491488,255,1219,-1108,4040,-1036,-6093,1745190877051739425
491680,622,1227,-985,4334,-1293,-6016,1745190877051739425
491872,966,1226,-869,4574,-2204,-6157,1745190877051739425
492064,1131,1221,-797,4707,-3279,-6342,1745190877051739425
492256,1069,1195,-764,4820,-4239,-6628,1745190877100715748
492448,823,1152,-759,4914,-4707,-6904,1745190877100715748
492640,460,1102,-753,4992,-4493,-6922,1745190877100715748
492832,58,1048,-719,5024,-3995,-6741,1745190877100715748
493024,-311,1001,-637,4905,-3939,-5792,1745190877100715748
493216,-610,962,-458,4692,-5138,-4132,1745190877100715748
493408,-853,906,-84,4783,-8404,-4237,1745190877100715748
493600,-1098,776,556,5415,-12866,-5970,1745190877100715748
493792,-1458,569,1321,6014,-16340,-8970,1745190877100715748
493984,-2057,343,1784,6555,-17183,-11282,1745190877100715748
494176,-2921,172,1850,7908,-14323,-11576,1745190877100715748
494368,-3955,116,1305,8078,-8968,-11874,1745190877100715748
494560,-4826,91,569,7638,-3600,-11505,1745190877171999576
494752,-4961,-79,137,7536,465,-13568,1745190877171999576
494944,-4248,-250,38,7460,3396,-10006,1745190877171999576
495136,-3053,-299,59,6581,4421,-7552,1745190877171999576
495328,-2080,-247,245,5580,1861,-9485,1745190877171999576
495520,-1644,-148,660,5942,-1261,-12654,1745190877171999576
495712,-1615,-197,861,6289,-2365,-12613,1745190877171999576
495904,-1951,-336,863,6662,-1289,-11651,1745190877171999576
496096,-2426,-423,663,6299,640,-10663,1745190877171999576
496288,-2673,-372,522,5844,2970,-9168,1745190877171999576
496480,-2603,-362,474,5488,4870,-7451,1745190877171999576
496672,-2311,-415,464,4694,5379,-6351,1745190877171999576
496864,-1933,-473,507,3859,4691,-5678,1745190877218686650
497056,-1514,-518,590,2655,3790,-5284,1745190877218686650
497248,-1156,-445,675,1511,2869,-5238,1745190877218686650
497440,-956,-318,737,837,2080,-5317,1745190877218686650
497632,-821,-201,741,345,1709,-5153,1745190877218686650
497824,-731,-70,730,118,1540,-5244,1745190877218686650
498016,-703,33,677,91,1590,-5592,1745190877218686650
498208,-693,114,594,60,1807,-6019,1745190877218686650
498400,-681,169,532,112,2210,-6622,1745190877218686650
498592,-654,237,490,389,3324,-6890,1745190877218686650
498784,-551,298,447,829,4928,-7415,1745190877218686650
498976,-383,324,419,1338,6399,-8229,1745190877218686650
499168,-187,318,389,1886,7553,-9373,1745190877276872472
499360,-7,293,324,2160,8377,-10281,1745190877276872472
499552,73,271,264,2505,8681,-11439,1745190877276872472
499744,36,226,196,2722,8484,-11957,1745190877276872472
499936,-10,143,133,2703,8091,-11887,1745190877276872472
500128,-24,37,81,2503,7268,-11726,1745190877276872472
500320,-64,-25,14,2193,6296,-11474,1745190877276872472
500512,-76,-62,-80,1627,5177,-10941,1745190877276872472
500704,-86,-98,-134,1327,4326,-10496,1745190877276872472
500896,-125,-141,-130,991,3534,-9829,1745190877276872472
501088,-156,-187,-108,599,2780,-9233,1745190877276872472
501280,-210,-208,-68,297,2043,-8762,1745190877276872472
501472,-276,-207,-16,293,1396,-8332,1745190877337160724
501664,-332,-188,43,411,1083,-7883,1745190877337160724
501856,-411,-186,80,834,848,-7456,1745190877337160724
502048,-498,-179,89,1041,1024,-7118,1745190877337160724
502240,-570,-158,130,1100,1343,-6846,1745190877337160724
502432,-622,-128,183,1057,1830,-6661,1745190877337160724
502624,-644,-104,239,1056,2417,-6618,1745190877337160724
502816,-655,-94,288,1064,2879,-6793,1745190877337160724
503008,-661,-82,294,958,3311,-6946,1745190877337160724
503200,-665,-54,263,1025,3580,-7046,1745190877337160724
503392,-674,-37,199,1243,3704,-7128,1745190877337160724
503584,-659,-22,127,1466,3799,-7212,1745190877337160724
503776,-635,-22,80,1760,3810,-7428,1745190877395352223
503968,-632,-20,68,1954,3807,-7528,1745190877395352223
504160,-637,-20,97,2054,3825,-7498,1745190877395352223
504352,-613,-28,132,2123,3877,-7499,1745190877395352223
504544,-552,-41,145,2147,3968,-7540,1745190877395352223
504736,-469,-57,140,2142,3956,-7552,1745190877395352223
504928,-397,-59,120,2156,3722,-7585,1745190877395352223
505120,-345,-62,92,2067,3646,-7503,1745190877395352223
505312,-308,-54,89,2010,3427,-7338,1745190877395352223
505504,-278,-48,71,1976,3351,-7115,1745190877395352223
505696,-245,-45,50,1886,3313,-7017,1745190877395352223
505888,-208,-39,29,1760,3288,-7001,1745190877395352223
506080,-177,-32,21,1631,3214,-6938,1745190877453077998
506272,-150,-27,29,1536,3081,-6978,1745190877453077998
506464,-122,-17,51,1489,3040,-7029,1745190877453077998
506656,-111,-3,82,1479,3078,-7056,1745190877453077998
506848,-104,9,110,1535,3232,-7130,1745190877453077998
507040,-76,14,122,1598,3555,-7224,1745190877453077998
507232,-50,15,117,1604,3813,-7191,1745190877453077998
507424,-14,12,109,1596,3883,-7250,1745190877453077998
507616,33,-9,101,1692,3966,-7404,1745190877453077998
507808,70,-15,74,1532,3869,-7566,1745190877453077998
508000,85,-18,-1,1281,3631,-7693,1745190877453077998
508192,87,0,-69,948,3676,-7749,1745190877453077998
508384,101,18,-37,834,3740,-7714,1745190877511908242
508576,125,20,54,956,3661,-7651,1745190877511908242
508768,148,6,122,1050,3554,-7606,1745190877511908242
508960,146,-4,139,1046,3404,-7571,1745190877511908242
509152,131,-2,119,970,3281,-7504,1745190877511908242
509344,118,10,96,912,3199,-7492,1745190877511908242
509536,112,20,96,898,3152,-7499,1745190877511908242
509728,103,20,119,936,3009,-7518,1745190877511908242
509920,81,10,143,957,2824,-7506,1745190877511908242
510112,56,-2,152,948,2699,-7551,1745190877511908242
510304,31,-9,144,937,2690,-7588,1745190877511908242
510496,-6,-16,131,966,2689,-7639,1745190877511908242
510688,-40,-27,117,1072,2701,-7671,1745190877583447328
510880,-68,-43,100,1211,2798,-7588,1745190877583447328
511072,-97,-63,83,1309,2878,-7460,1745190877583447328
511264,-124,-83,70,1438,2952,-7297,1745190877583447328
511456,-151,-110,57,1491,2996,-7192,1745190877583447328
511648,-173,-134,38,1418,3005,-7136,1745190877583447328
511840,-184,-139,17,1220,3053,-7098,1745190877583447328
512032,-176,-124,6,904,3116,-7024,1745190877583447328
512224,-156,-87,14,611,3166,-6932,1745190877583447328
512416,-127,-40,43,560,2891,-7182,1745190877583447328
512608,-173,41,-31,1642,80,-7264,1745190877583447328
512800,-180,68,-239,1285,-235,-7413,1745190877583447328
512992,-273,-2,-163,1066,1533,-7108,1745190877626900733
513184,-330,-73,34,758,3745,-6940,1745190877626900733
513376,-307,-91,201,733,4882,-6733,1745190877626900733
513568,-186,-50,237,909,4891,-6663,1745190877626900733
513760,-28,8,155,1127,4420,-6785,1745190877626900733
513952,93,41,34,1364,3952,-7031,1745190877626900733
514144,148,57,-53,1480,3629,-7221,1745190877626900733
514336,140,49,-85,1708,3436,-7316,1745190877626900733
514528,103,25,-101,1889,3425,-7369,1745190877626900733
514720,70,-5,-108,1913,3583,-7400,1745190877626900733
514912,57,-27,-101,1836,3759,-7343,1745190877626900733
515104,64,-43,-98,1719,3813,-7322,1745190877626900733
515296,86,-46,-101,1516,3767,-7317,1745190877688537201
515488,116,-37,-107,1319,3597,-7377,1745190877688537201
515680,133,-25,-97,986,3278,-7475,1745190877688537201
515872,121,-14,-29,751,2894,-7589,1745190877688537201
516064,98,7,49,776,2690,-7620,1745190877688537201
516256,81,36,68,1011,2728,-7660,1745190877688537201
516448,66,58,20,1310,2925,-7654,1745190877688537201
516640,50,60,-35,1559,3156,-7655,1745190877688537201
516832,29,47,-59,1622,3363,-7596,1745190877688537201
517024,18,26,-55,1624,3575,-7487,1745190877688537201
517216,19,12,-40,1474,3742,-7417,1745190877688537201
517408,33,6,-26,1252,3787,-7435,1745190877688537201
517600,43,12,-28,1064,3665,-7431,1745190877744410285
517792,52,26,-43,984,3551,-7420,1745190877744410285
517984,51,47,-47,1028,3500,-7163,1745190877744410285
518176,22,68,-33,1199,3377,-6985,1745190877744410285
518368,7,83,-19,1425,3305,-6932,1745190877744410285
518560,10,88,-16,1666,3336,-6904,1745190877744410285
518752,10,85,-36,1825,3352,-7027,1745190877744410285
518944,-8,79,-65,1847,3189,-6965,1745190877744410285
519136,-15,68,-70,1750,2987,-6779,1745190877744410285
519328,3,58,-47,1610,2951,-6654,1745190877744410285
519520,12,56,-14,1446,2912,-6669,1745190877744410285
519712,10,58,17,1364,2861,-6719,1745190877744410285
519904,2,65,29,1316,2870,-6732,1745190877804485205
520096,-3,72,21,1392,2888,-6746,1745190877804485205
520288,-7,69,5,1504,2978,-6549,1745190877804485205
520480,-13,70,-14,1408,3157,-6239,1745190877804485205
520672,-52,83,-47,1303,3227,-6500,1745190877804485205
520864,-91,96,-103,1130,3295,-6749,1745190877804485205
521056,-89,131,-193,2378,3526,-7062,1745190877804485205
521248,-22,148,-524,1779,3479,-7580,1745190877804485205
521440,-50,61,-477,1478,3130,-7702,1745190877804485205
521632,-62,29,-242,1264,2855,-7849,1745190877804485205
521824,-78,-8,-66,740,2545,-8247,1745190877804485205
522016,-143,-80,212,-790,2250,-8424,1745190877804485205
522208,-214,-107,650,-310,2853,-8591,1745190877862594101
522400,-257,-30,678,447,3351,-8192,1745190877862594101
522592,-210,56,381,1192,3753,-8291,1745190877862594101
522784,-168,95,42,1834,3877,-8462,1745190877862594101
522976,-153,69,-156,2088,3706,-8451,1745190877862594101
523168,-139,21,-166,2060,3502,-8239,1745190877862594101
523360,-136,-28,-58,1886,3441,-7957,1745190877862594101
523552,-141,-64,56,1649,3469,-7617,1745190877862594101
523744,-145,-92,98,1371,3500,-7354,1745190877862594101
523936,-142,-97,68,1040,3459,-7172,1745190877862594101
524128,-137,-78,12,821,3417,-7125,1745190877862594101
524320,-136,-44,-31,772,3429,-7121,1745190877862594101
524512,-138,-12,-46,872,3403,-7150,1745190877922104547
524704,-136,12,-41,1069,3402,-7218,1745190877922104547
524896,-124,31,-27,1275,3388,-7289,1745190877922104547
525088,-100,45,-16,1517,3394,-7330,1745190877922104547
525280,-67,57,-10,1700,3409,-7349,1745190877922104547
525472,-33,66,-7,1838,3406,-7343,1745190877922104547
525664,-3,70,-6,1928,3404,-7349,1745190877922104547
525856,16,72,-4,1952,3373,-7303,1745190877922104547
526048,32,73,8,1920,3411,-7248,1745190877922104547
526240,45,69,20,1840,3485,-7206,1745190877922104547
526432,57,62,24,1745,3540,-7177,1745190877922104547
526624,66,56,21,1622,3575,-7182,1745190877922104547
526816,74,52,11,1487,3530,-7187,1745190877993062440
527008,83,57,6,1360,3487,-7203,1745190877993062440
527200,91,64,11,1274,3438,-7239,1745190877993062440
527392,95,69,21,1226,3401,-7262,1745190877993062440
527584,94,72,28,1234,3381,-7241,1745190877993062440
527776,87,73,28,1249,3369,-7210,1745190877993062440
527968,74,74,26,1286,3316,-7211,1745190877993062440
528160,62,72,25,1338,3275,-7224,1745190877993062440
528352,49,67,21,1373,3272,-7249,1745190877993062440
528544,31,59,21,1396,3296,-7311,1745190877993062440
528736,13,50,22,1414,3288,-7311,1745190877993062440
528928,-3,41,19,1431,3306,-7329,1745190877993062440
529120,-15,33,18,1416,3284,-7300,1745190878036206994
529312,-48,16,-12,516,1665,-7264,1745190878036206994
529504,-208,31,-190,-70,317,-7360,1745190878036206994
529696,-419,87,-375,429,2094,-8217,1745190878036206994
529888,-495,212,-264,1293,5397,-6861,1745190878036206994
530080,-362,149,80,2267,6193,-6894,1745190878036206994
530272,-159,109,274,2289,5279,-7052,1745190878036206994
530464,0,57,243,2202,4746,-7142,1745190878036206994
530656,65,49,123,2433,4247,-7062,1745190878036206994
530848,170,-144,73,3686,4758,-7095,1745190878036206994
531040,186,-160,93,2053,2919,-7134,1745190878036206994
531232,41,-81,259,498,269,-7655,1745190878036206994
531424,-190,-24,496,585,966,-7625,1745190878098144032
531616,-307,-68,446,1092,3880,-7092,1745190878098144032
531808,-231,-120,106,1037,5292,-6875,1745190878098144032
532000,-77,-72,-196,730,4641,-6921,1745190878098144032
532192,22,46,-256,749,3452,-7058,1745190878098144032
532384,49,124,-106,1188,2589,-7129,1745190878098144032
532576,25,105,83,1659,2498,-7246,1745190878098144032
532768,-26,46,167,1956,2808,-7307,1745190878098144032
532960,-67,4,143,2056,3188,-7306,1745190878098144032
533152,-80,-3,69,2082,3513,-7201,1745190878098144032
533344,-103,-6,8,1948,3290,-6445,1745190878098144032
533536,-187,-48,-49,2073,2676,-6834,1745190878098144032
533728,-232,-110,-131,2539,3004,-6897,1745190878153048114
533920,-220,-190,-167,2425,3740,-7214,1745190878153048114
534112,-202,-188,-147,1472,3729,-7420,1745190878153048114
534304,-221,-135,-109,282,3241,-7458,1745190878153048114
534496,-229,-34,-96,-389,3164,-7268,1745190878153048114
534688,-200,44,-99,-269,3468,-7234,1745190878153048114
534880,-153,87,-98,198,3751,-7382,1745190878153048114
535072,-95,125,-97,644,4019,-7425,1745190878153048114
535264,-51,168,-87,1039,4262,-7439,1745190878153048114
535456,-6,212,-53,1517,4011,-7564,1745190878153048114
535648,-13,173,26,1937,3464,-7394,1745190878153048114
535840,6,191,111,1687,3548,-7422,1745190878153048114
536032,18,153,136,1572,3683,-7335,1745190878226035989
536224,45,185,94,1241,3852,-7267,1745190878226035989
536416,76,187,28,1057,3850,-7247,1745190878226035989
536608,94,189,-22,1139,3511,-7217,1745190878226035989
536800,101,164,-34,1361,3171,-7231,1745190878226035989
536992,93,133,-5,1536,3061,-7266,1745190878226035989
537184,79,118,39,1655,3092,-7246,1745190878226035989
537376,58,117,71,1702,3106,-7176,1745190878226035989
537568,27,116,81,1658,3094,-7138,1745190878226035989
537760,-11,110,69,1638,3134,-7121,1745190878226035989
537952,-55,99,48,1628,3159,-7156,1745190878226035989
538144,-104,94,18,1424,3196,-7116,1745190878226035989
538336,-129,103,-24,1325,3532,-7050,1745190878270350324
538528,-123,100,-62,1581,3763,-6991,1745190878270350324
538720,-108,70,-81,2050,3651,-7023,1745190878270350324
538912,-107,6,-82,2562,3422,-7093,1745190878270350324
539104,-115,-69,-84,2756,3401,-7123,1745190878270350324
539296,-101,-120,-79,2592,3616,-7130,1745190878270350324
539488,-75,-153,-57,2380,3655,-7152,1745190878270350324
539680,-58,-191,-14,2266,3671,-7119,1745190878270350324
539872,-26,-217,24,1875,3997,-7011,1745190878270350324
540064,29,-213,39,1439,4186,-7021,1745190878270350324
540256,73,-178,30,976,3969,-7106,1745190878270350324
540448,87,-127,7,719,3620,-7180,1745190878270350324
540640,78,-92,-13,834,3247,-7231,1745190878331027270
540832,48,-86,-19,1201,3013,-7279,1745190878331027270
541024,11,-91,-7,1481,3064,-7317,1745190878331027270
541216,-22,-92,13,1607,3275,-7304,1745190878331027270
541408,-39,-87,23,1576,3389,-7285,1745190878331027270
541600,-45,-82,14,1441,3387,-7276,1745190878331027270
541792,-55,-75,-9,1304,3226,-7242,1745190878331027270
541984,-75,-76,-28,1199,3199,-7194,1745190878331027270
542176,-88,-71,-27,1091,3344,-7151,1745190878331027270
542368,-92,-59,-11,1016,3457,-7141,1745190878331027270
542560,-98,-38,-2,1072,3421,-7161,1745190878331027270
542752,-119,-26,-12,1320,3222,-7213,1745190878331027270
587872,157,-293,41,1788,3725,-7061,1745190879531435054
588064,31,-224,58,1728,4129,-6858,1745190879531435054
588256,2,-226,57,1472,3890,-7032,1745190879531435054
588448,-33,-204,28,1305,3604,-6962,1745190879531435054
588640,-18,-230,0,1363,3855,-6874,1745190879531435054
588832,-2,-240,5,1602,4007,-6959,1745190879531435054
589024,-7,-262,28,1682,3668,-7125,1745190879531435054
589216,-42,-275,39,1401,3267,-7281,1745190879531435054
589408,-96,-252,31,1107,3250,-7367,1745190879531435054
589600,-130,-240,19,963,3482,-7409,1745190879531435054
589792,-157,-238,16,949,3640,-7475,1745190879531435054
589984,-196,-232,18,877,3528,-7562,1745190879531435054
590176,-244,-219,13,738,3353,-7578,1745190879589696188
590368,-295,-189,-1,700,3363,-7511,1745190879589696188
590560,-331,-158,-12,742,3604,-7451,1745190879589696188
590752,-342,-136,-11,760,3877,-7395,1745190879589696188
590944,-333,-108,-4,762,4051,-7340,1745190879589696188
591136,-311,-76,-3,810,4118,-7311,1745190879589696188
591328,-275,-55,-8,875,4200,-7305,1745190879589696188
591520,-223,-25,-13,999,4377,-7321,1745190879589696188
591712,-167,10,-8,925,4551,-7326,1745190879589696188
591904,-101,64,6,918,4799,-7332,1745190879589696188
592096,-3,114,14,852,4916,-7294,1745190879589696188
592288,107,159,-5,777,4657,-7322,1745190879589696188
592480,177,208,-25,783,4329,-7358,1745190879648311278
592672,213,252,-29,806,4099,-7346,1745190879648311278
592864,243,292,-19,868,4014,-7278,1745190879648311278
593056,278,333,-5,930,4068,-7249,1745190879648311278
593248,308,375,-1,1003,4140,-7229,1745190879648311278
593440,336,419,-7,1101,4183,-7212,1745190879648311278
593632,371,458,-19,1255,4272,-7146,1745190879648311278
593824,391,482,-31,1337,3411,-6907,1745190879648311278
594016,371,516,-45,1825,5652,-6990,1745190879648311278
594208,512,492,-12,1651,4169,-7153,1745190879648311278
594400,518,486,-18,1751,3796,-7041,1745190879648311278
594592,490,486,-16,1960,2971,-7090,1745190879648311278
594784,376,429,-1,2044,2994,-6758,1745190879706404133
594976,329,345,61,2061,3107,-6679,1745190879706404133
595168,288,283,99,2137,2398,-6956,1745190879706404133
595360,93,183,-18,3215,-612,-6961,1745190879706404133
595552,-134,41,-230,2640,657,-6984,1745190879706404133
595744,-261,-34,-294,1883,2670,-6836,1745190879706404133
595936,-301,-50,-226,1341,4284,-6680,1745190879706404133
596128,-228,-25,-119,971,5240,-6507,1745190879706404133
596320,-104,-6,-52,842,5593,-6478,1745190879706404133
596512,31,10,-51,801,5379,-6537,1745190879706404133
596704,133,33,-88,740,4925,-6722,1745190879706404133
596896,168,63,-109,893,4387,-6898,1745190879706404133
597088,144,85,-92,1183,3902,-6980,1745190879764470998
597280,100,86,-60,1490,3736,-6982,1745190879764470998
597472,47,70,-33,1742,3765,-7003,1745190879764470998
597664,-21,47,-12,1883,3866,-6995,1745190879764470998
597856,-78,21,-9,1938,4032,-6924,1745190879764470998
598048,-100,-3,-27,1865,4199,-6884,1745190879764470998
598240,-99,-26,-48,1716,4327,-6892,1745190879764470998
598432,-102,-46,-56,1538,4333,-6918,1745190879764470998
598624,-107,-56,-51,1409,4207,-6899,1745190879764470998
598816,-101,-57,-35,1342,4076,-6929,1745190879764470998
599008,-80,-55,-13,1312,4084,-6901,1745190879764470998
599200,-57,-56,-1,1345,4173,-6887,1745190879764470998
599392,-41,-60,5,1367,4082,-6898,1745190879824132849
599584,-24,-61,13,1406,3916,-6904,1745190879824132849
599776,-6,-60,23,1395,3763,-6869,1745190879824132849
599968,-4,-59,29,1417,3693,-6829,1745190879824132849
600160,-13,-58,28,1402,3725,-6818,1745190879824132849
600352,-29,-59,24,1417,3770,-6860,1745190879824132849
600544,-45,-60,22,1424,3759,-6951,1745190879824132849
600736,-66,-66,29,1458,3648,-7108,1745190879824132849
600928,-90,-68,41,1428,3565,-7022,1745190879824132849
601120,-113,-65,34,1428,3811,-6931,1745190879824132849
601312,-152,-60,5,1507,3976,-6875,1745190879824132849
601504,-171,-56,-18,1518,3992,-6833,1745190879824132849
601696,-161,-54,-12,1529,3906,-6852,1745190879880872226
601888,-138,-48,3,1542,3816,-6874,1745190879880872226
602080,-120,-40,10,1571,3771,-6924,1745190879880872226
602272,-111,-33,3,1604,3809,-6948,1745190879880872226
602464,-99,-29,-12,1595,3864,-6985,1745190879880872226
602656,-79,-26,-27,1575,3952,-7060,1745190879880872226
602848,-53,-21,-36,1549,3964,-7084,1745190879880872226
603040,-28,-16,-43,1533,3924,-7120,1745190879880872226
603232,-7,-9,-49,1479,3844,-7140,1745190879880872226
603424,11,-4,-54,1459,3771,-7177,1745190879880872226
603616,26,2,-60,1425,3767,-7164,1745190879880872226
603808,41,6,-64,1419,3794,-7123,1745190879880872226
604000,58,11,-70,1400,3818,-7081,1745190879942331405
604192,81,28,-75,1390,3891,-6353,1745190879942331405
604384,-26,80,-72,1403,3689,-5947,1745190879942331405
604576,-100,82,-37,1713,3184,-6401,1745190879942331405
604768,-53,90,-22,1845,3286,-6323,1745190879942331405
604960,-58,74,-36,1819,3739,-6556,1745190879942331405
605152,-113,54,-63,1811,3965,-6973,1745190879942331405
605344,-149,36,-84,1777,3932,-7076,1745190879942331405
605536,-98,22,-107,1662,3986,-7104,1745190879942331405
605728,-24,16,-123,1517,4169,-7251,1745190879942331405
605920,22,18,-122,1452,4223,-7367,1745190879942331405
606112,77,20,-112,1408,4157,-7410,1745190879942331405
606304,131,20,-98,1311,4070,-7427,1745190879997130852
606496,174,24,-82,1233,3930,-7332,1745190879997130852
606688,200,35,-67,1175,3735,-7192,1745190879997130852
606880,206,47,-51,1139,3446,-6925,1745190879997130852
607072,204,58,-28,1153,3207,-6904,1745190879997130852
607264,204,49,-2,1204,3052,-7266,1745190879997130852
607456,202,26,9,1243,3182,-7545,1745190879997130852
607648,172,0,-9,1197,3490,-7710,1745190879997130852
607840,117,-25,-44,1051,3850,-7715,1745190879997130852
608032,81,-37,-70,943,4131,-7729,1745190879997130852
608224,85,-45,-79,823,4261,-7737,1745190879997130852
608416,103,-50,-69,718,4312,-7805,1745190879997130852
608608,116,-53,-51,648,4297,-7826,1745190880061921718
608800,116,-52,-42,601,4207,-7739,1745190880061921718
608992,100,-48,-40,624,4136,-7698,1745190880061921718
609184,70,-41,-37,729,4058,-7643,1745190880061921718
609376,49,-29,-27,902,3950,-7519,1745190880061921718
609568,45,-25,-17,1126,3898,-7438,1745190880061921718
609760,46,-24,-5,1342,3867,-7407,1745190880061921718
609952,50,-30,4,1492,3893,-7391,1745190880061921718
610144,68,-43,8,1564,3956,-7273,1745190880061921718
610336,97,-52,10,1536,3974,-7166,1745190880061921718
610528,132,-57,13,1459,3927,-7091,1745190880061921718
610720,164,-51,16,1376,3819,-6977,1745190880061921718
610912,185,-38,18,1322,3702,-6905,1745190880114066554
611104,198,-23,21,1283,3618,-6858,1745190880114066554
611296,200,-5,25,1295,3552,-6826,1745190880114066554
611488,191,12,30,1379,3522,-6826,1745190880114066554
611680,177,26,35,1475,3533,-6842,1745190880114066554
611872,166,35,40,1569,3562,-6954,1745190880114066554
612064,157,39,41,1665,3648,-7130,1745190880114066554
612256,159,35,33,1717,3821,-7253,1745190880114066554
612448,176,26,25,1714,3967,-7375,1745190880114066554
612640,205,15,17,1662,4073,-7470,1745190880114066554
612832,238,4,11,1545,4154,-7636,1745190880114066554
613024,265,-3,9,1427,4200,-7722,1745190880114066554
613216,285,-5,11,1334,4194,-7756,1745190880174366472
613408,295,-10,14,1258,4200,-7767,1745190880174366472
613600,301,-13,23,1219,4245,-7721,1745190880174366472
613792,301,-20,34,1214,4299,-7715,1745190880174366472
613984,297,-31,44,1235,4431,-7764,1745190880174366472
614176,289,-41,49,1263,4564,-7769,1745190880174366472
614368,291,-45,45,1310,4605,-7676,1745190880174366472
614560,305,-49,32,1318,4476,-7566,1745190880174366472
614752,324,-49,18,1359,4253,-7425,1745190880174366472
614944,295,-32,16,1406,3817,-6952,1745190880174366472
615136,211,-24,43,1561,3091,-7048,1745190880174366472
615328,197,-24,86,1715,2539,-6913,1745190880174366472
615520,199,-40,116,1755,2380,-6829,1745190880241996115
615712,163,-63,115,1681,2187,-7009,1745190880241996115
615904,108,-73,100,1608,1871,-7157,1745190880241996115
616096,72,-79,89,1486,1673,-7273,1745190880241996115
616288,57,-80,80,1355,1790,-7348,1745190880241996115
616480,45,-83,67,1330,2202,-7381,1745190880241996115
616672,31,-88,48,1366,2699,-7416,1745190880241996115
616864,37,-94,28,1409,3066,-7408,1745190880241996115
617056,62,-95,22,1447,3323,-7393,1745190880241996115
617248,88,-92,28,1512,3439,-7407,1745190880241996115
617440,95,-94,41,1562,3429,-7531,1745190880241996115
617632,74,-106,51,1599,3240,-7980,1745190880241996115
617824,46,-122,55,1605,3079,-7850,1745190880289637867
618016,23,-141,55,1549,3144,-7734,1745190880289637867
618208,2,-156,48,1406,3303,-7536,1745190880289637867
618400,-13,-162,31,1257,3431,-7324,1745190880289637867
618592,-60,-151,19,1103,3450,-7016,1745190880289637867
618784,-115,-134,27,1087,3260,-6955,1745190880289637867
618976,-126,-120,39,1105,3370,-6746,1745190880289637867
619168,-126,-113,36,1102,3648,-6692,1745190880289637867
619360,-137,-103,21,1106,3775,-6681,1745190880289637867
619552,-158,-81,13,1093,3501,-6501,1745190880289637867
619744,-180,-57,16,1080,3117,-6456,1745190880289637867
619936,-211,-37,19,1076,2899,-6391,1745190880289637867
620128,-269,-28,15,1085,2822,-6404,1745190880348668474
620320,-337,-25,6,1062,2834,-6459,1745190880348668474
620512,-396,-22,-2,1033,2836,-6470,1745190880348668474
620704,-439,-14,-7,1003,2940,-6282,1745190880348668474
620896,-524,8,-8,1011,2904,-6094,1745190880348668474
621088,-607,17,3,1094,2627,-6270,1745190880348668474
621280,-620,21,12,1143,2651,-6315,1745190880348668474
621472,-609,10,3,1151,3007,-6402,1745190880348668474
621664,-599,5,-22,1121,3339,-6545,1745190880348668474
621856,-581,8,-45,1098,3451,-6646,1745190880348668474
622048,-531,14,-56,1089,3465,-6756,1745190880348668474
622240,-456,20,-53,1095,3526,-6871,1745190880348668474
622432,-387,27,-45,1133,3698,-6951,1745190880408478136
622624,-335,33,-38,1202,3835,-7066,1745190880408478136
622816,-293,40,-35,1282,3927,-7129,1745190880408478136
623008,-248,44,-38,1347,3930,-7162,1745190880408478136
623200,-203,42,-42,1374,3921,-7229,1745190880408478136
623392,-179,37,-39,1384,3873,-7349,1745190880408478136
623584,-175,26,-27,1361,3874,-7472,1745190880408478136
623776,-182,13,-11,1337,3949,-7518,1745190880408478136
623968,-194,-4,-4,1302,4043,-7494,1745190880408478136
624160,-198,-21,-11,1223,4152,-7474,1745190880408478136
624352,-199,-31,-24,1134,4269,-7435,1745190880408478136
624544,-195,-34,-36,1065,4348,-7377,1745190880408478136
624736,-189,-31,-40,1032,4387,-7299,1745190880466700312
624928,-183,-24,-39,1015,4383,-7181,1745190880466700312
625120,-181,-18,-32,1045,4323,-7111,1745190880466700312
625312,-187,-14,-22,1099,4244,-7076,1745190880466700312
625504,-198,-12,-11,1125,4135,-7048,1745190880466700312
625696,-209,-12,-3,1185,4050,-7009,1745190880466700312
625888,-219,-13,1,1211,3998,-6961,1745190880466700312
626080,-225,-15,1,1206,3940,-6935,1745190880466700312
626272,-225,-18,0,1213,3916,-6928,1745190880466700312
626464,-219,-21,-1,1183,3890,-6944,1745190880466700312
626656,-206,-22,2,1178,3865,-6945,1745190880466700312
626848,-188,-22,9,1167,3848,-6933,1745190880466700312
627040,-165,-19,16,1176,3862,-6950,1745190880536038325
627232,-143,-14,22,1206,3922,-6991,1745190880536038325
627424,-118,-11,23,1272,4116,-7185,1745190880536038325
627616,-81,-10,17,1381,4467,-7306,1745190880536038325
627808,-42,-12,1,1490,4754,-7378,1745190880536038325
628000,-8,-16,-16,1601,4880,-7440,1745190880536038325
628192,24,-21,-23,1706,4835,-7535,1745190880536038325
628384,51,-26,-18,1789,4653,-7484,1745190880536038325
628576,58,-41,0,1784,4295,-7438,1745190880536038325
628768,39,-56,27,1715,3850,-7321,1745190880536038325
628960,-6,-71,57,1549,3433,-7129,1745190880536038325
629152,-77,-83,84,1332,3097,-6919,1745190880536038325
629344,-178,-90,101,1099,2871,-6739,1745190880581734991
629536,-303,-96,102,909,2782,-6587,1745190880581734991
629728,-427,-99,89,732,2854,-6488,1745190880581734991
629920,-524,-98,68,644,3100,-6462,1745190880581734991
630112,-576,-90,44,577,3530,-6474,1745190880581734991
630304,-576,-74,19,584,3984,-6482,1745190880581734991
630496,-528,-55,-4,631,4399,-6542,1745190880581734991
630688,-448,-36,-23,722,4663,-6634,1745190880581734991
630880,-353,-18,-37,816,4760,-6767,1745190880581734991
631072,-250,-2,-41,935,4688,-6876,1745190880581734991
631264,-148,13,-35,1025,4553,-6966,1745190880581734991
631456,-61,25,-26,1159,4359,-7035,1745190880581734991
631648,0,35,-15,1266,4129,-7100,1745190880654543753
631840,34,37,-5,1393,3963,-7150,1745190880654543753
632032,50,34,-1,1483,3894,-7126,1745190880654543753
632224,54,26,-3,1539,3893,-7096,1745190880654543753
632416,46,21,-7,1537,3959,-7043,1745190880654543753
632608,30,15,-8,1532,4046,-6974,1745190880654543753
632800,14,5,-12,1539,4129,-6919,1745190880654543753
632992,-1,-6,-19,1530,4230,-6863,1745190880654543753
633184,-12,-19,-26,1463,4293,-6828,1745190880654543753
633376,-18,-28,-32,1400,4316,-6798,1745190880654543753
633568,-19,-35,-34,1303,4308,-6758,1745190880654543753
633760,-15,-38,-31,1236,4311,-6761,1745190880654543753
633952,-9,-38,-29,1168,4313,-6765,1745190880698722099
634144,0,-34,-29,1125,4290,-6732,1745190880698722099
634336,14,-30,-30,1082,4276,-6746,1745190880698722099
634528,29,-25,-31,1059,4233,-6765,1745190880698722099
634720,39,-19,-31,1075,4205,-6818,1745190880698722099
634912,45,-17,-29,1072,4123,-6880,1745190880698722099
635104,49,-16,-28,1093,4078,-6954,1745190880698722099
635296,54,-16,-26,1105,4073,-7004,1745190880698722099
635488,58,-16,-27,1135,4083,-7075,1745190880698722099
635680,60,-19,-30,1138,4117,-7139,1745190880698722099
635872,64,-18,-31,1122,4139,-7140,1745190880698722099
636064,72,-19,-31,1134,4177,-7138,1745190880698722099
636256,82,-17,-30,1118,4201,-7160,1745190880758538584
636448,94,-15,-33,1128,4183,-7180,1745190880758538584
636640,107,-13,-34,1129,4156,-7191,1745190880758538584
636832,124,-13,-34,1125,4145,-7168,1745190880758538584
637024,137,-11,-33,1133,4127,-7140,1745190880758538584
637216,146,-8,-32,1152,4121,-7111,1745190880758538584
637408,151,-6,-34,1187,4066,-7065,1745190880758538584
637600,157,-7,-36,1217,4014,-7049,1745190880758538584
637792,165,-9,-38,1241,3946,-7058,1745190880758538584
637984,173,-14,-40,1239,3889,-7090,1745190880758538584
638176,181,-21,-39,1252,3798,-7108,1745190880758538584
638368,188,-29,-37,1236,3731,-7104,1745190880758538584
638560,194,-36,-36,1209,3674,-7134,1745190880815410512
638752,192,-42,-36,1236,3563,-7475,1745190880815410512
638944,172,-51,-36,1294,3368,-7536,1745190880815410512
639136,155,-54,-35,1331,3253,-7468,1745190880815410512
639328,138,-64,-29,1362,3281,-7379,1745190880815410512
639520,119,-71,-24,1363,3332,-7295,1745190880815410512
639712,94,-77,-23,1365,3383,-7252,1745190880815410512
639904,64,-87,-24,1345,3413,-7269,1745190880815410512
640096,28,-96,-25,1302,3456,-7222,1745190880815410512
640288,-15,-100,-24,1282,3488,-7131,1745190880815410512
640480,-61,-103,-23,1266,3537,-7113,1745190880815410512
640672,-106,-101,-22,1295,3546,-7059,1745190880815410512
640864,-137,-93,-20,1338,3519,-6956,1745190880875802096
641056,-149,-88,-10,1368,3484,-6880,1745190880875802096
641248,-151,-86,3,1357,3486,-6822,1745190880875802096
641440,-157,-89,10,1362,3569,-6869,1745190880875802096
641632,-180,-94,-1,1352,3698,-6982,1745190880875802096
641824,-221,-102,-23,1348,3811,-7046,1745190880875802096
642016,-262,-107,-46,1302,3944,-6983,1745190880875802096
642208,-283,-109,-65,1246,4017,-6874,1745190880875802096
642400,-284,-106,-74,1193,4038,-6801,1745190880875802096
642592,-281,-97,-74,1162,4015,-6767,1745190880875802096
642784,-292,-86,-71,1087,3923,-6781,1745190880875802096
642976,-330,-74,-71,1065,3823,-6793,1745190880875802096
643168,-395,-64,-77,1056,3671,-6822,1745190880941124103
643360,-488,-57,-83,1059,3473,-6819,1745190880941124103
643552,-596,-59,-92,1071,3311,-6879,1745190880941124103
643744,-702,-68,-103,1129,3281,-6880,1745190880941124103
643936,-798,-83,-115,1162,3337,-6906,1745190880941124103
644128,-870,-104,-123,1204,3572,-6960,1745190880941124103
644320,-919,-121,-129,1201,3961,-6907,1745190880941124103
644512,-948,-133,-138,1159,4368,-6910,1745190880941124103
644704,-949,-144,-153,1102,4745,-6883,1745190880941124103
644896,-920,-149,-173,1049,5101,-6826,1745190880941124103
645088,-865,-150,-184,971,5348,-6748,1745190880941124103
645280,-786,-146,-187,908,5520,-6789,1745190880941124103
645472,-697,-133,-178,890,5658,-6675,1745190880990930263
645664,-648,-106,-145,920,5507,-6564,1745190880990930263
645856,-609,-85,-105,979,5055,-6629,1745190880990930263
646048,-530,-82,-74,1061,4656,-6891,1745190880990930263
646240,-433,-87,-56,1142,4580,-7091,1745190880990930263
646432,-394,-92,-53,1174,4656,-7161,1745190880990930263
646624,-417,-89,-52,1235,4571,-7208,1745190880990930263
646816,-459,-83,-47,1320,4276,-7228,1745190880990930263
647008,-482,-88,-42,1371,3927,-7329,1745190880990930263
647200,-496,-110,-37,1428,3611,-7477,1745190880990930263
647392,-538,-137,-34,1449,3516,-7622,1745190880990930263
647584,-619,-158,-44,1477,3534,-7652,1745190880990930263
647776,-730,-176,-64,1529,3542,-7626,1745190881070588494
647968,-838,-194,-84,1579,3573,-7568,1745190881070588494
648160,-921,-213,-97,1663,3648,-7536,1745190881070588494
648352,-1000,-230,-97,1748,3686,-7450,1745190881070588494
648544,-1099,-248,-86,1876,3623,-7514,1745190881070588494
648736,-1177,-278,-75,1996,3654,-7556,1745190881070588494
648928,-1212,-315,-61,2141,3927,-7594,1745190881070588494
649120,-1235,-352,-58,2245,4271,-7629,1745190881070588494
649312,-1284,-386,-66,2334,4489,-7662,1745190881070588494
649504,-1355,-417,-71,2427,4377,-7693,1745190881070588494
649696,-1423,-447,-72,2483,4085,-7691,1745190881070588494
649888,-1482,-481,-64,2538,3815,-7630,1745190881070588494
650080,-1526,-514,-43,2591,3727,-7595,1745190881108164296
650272,-1585,-546,-18,2650,3753,-7591,1745190881108164296
650464,-1678,-573,0,2731,3787,-7571,1745190881108164296
650656,-1802,-604,1,2817,3700,-7439,1745190881108164296
650848,-1935,-646,-12,2875,3588,-7439,1745190881108164296
651040,-2063,-691,-25,2919,3558,-7420,1745190881108164296
651232,-2188,-737,-37,2955,3676,-7403,1745190881108164296
651424,-2316,-782,-45,2968,3887,-7323,1745190881108164296
651616,-2426,-825,-38,2990,4164,-7151,1745190881108164296
651808,-2519,-871,-28,2998,4516,-7225,1745190881108164296
652000,-2609,-925,-21,3024,4794,-7033,1745190881108164296
652192,-2677,-971,-15,3029,4874,-6672,1745190881108164296
652384,-2705,-1005,-8,3031,4843,-6235,1745190881167571566
652576,-2717,-1025,6,3018,4718,-5854,1745190881167571566
652768,-2757,-1056,39,2963,4554,-5588,1745190881167571566
652960,-2840,-1097,85,2869,4484,-5318,1745190881167571566
653152,-2973,-1134,133,2721,4566,-5080,1745190881167571566
653344,-3136,-1148,171,2610,4764,-4802,1745190881167571566
653536,-3299,-1158,196,2480,5045,-4606,1745190881167571566
653728,-3425,-1151,216,2374,5414,-4404,1745190881167571566
653920,-3477,-1141,233,2331,5876,-4255,1745190881167571566
654112,-3433,-1137,234,2324,6550,-4276,1745190881167571566
654304,-3294,-1140,225,2364,7318,-4186,1745190881167571566
654496,-3057,-1141,212,2383,8071,-4324,1745190881167571566
654688,-2744,-1149,212,2327,8581,-4490,1745190881227026908
654880,-2359,-1151,244,2252,8713,-4525,1745190881227026908
655072,-1901,-1149,320,2201,8516,-4770,1745190881227026908
655264,-1365,-1147,448,2225,7966,-4845,1745190881227026908
655456,-816,-1136,623,2272,6693,-4826,1745190881227026908
655648,-344,-1138,842,2466,4705,-5176,1745190881227026908
655840,-15,-1155,1078,2682,2500,-5438,1745190881227026908
656032,158,-1176,1320,2959,665,-5554,1745190881227026908
656224,252,-1205,1562,3109,-456,-5393,1745190881227026908
656416,236,-1216,1788,3355,-952,-5062,1745190881227026908
656608,125,-1209,1961,3592,-1060,-4680,1745190881227026908
656800,-63,-1183,2064,3847,-812,-4175,1745190881227026908
656992,-314,-1151,2103,3996,-202,-3674,1745190881285438198
657184,-587,-1130,2095,4157,626,-3336,1745190881285438198
657376,-824,-1113,2071,4251,1506,-3090,1745190881285438198
657568,-982,-1109,2061,4434,2439,-2870,1745190881285438198
657760,-1032,-1117,2067,4530,3317,-2700,1745190881285438198
657952,-991,-1125,2098,4565,4067,-2499,1745190881285438198
658144,-885,-1128,2161,4668,4765,-2485,1745190881285438198
658336,-731,-1110,2250,4859,5367,-2695,1745190881285438198
658528,-511,-1078,2360,5062,5806,-2889,1745190881285438198
658720,-232,-1038,2492,5246,6090,-2991,1745190881285438198
658912,57,-995,2650,5453,6210,-2935,1745190881285438198
659104,309,-946,2817,5709,6084,-2837,1745190881285438198
659296,487,-888,2980,5993,5746,-2756,1745190881343684541
659488,578,-830,3136,6365,5242,-2837,1745190881343684541
659680,596,-775,3273,6739,4725,-2876,1745190881343684541
659872,554,-721,3393,7101,4330,-2922,1745190881343684541
660064,463,-672,3499,7428,4125,-2943,1745190881343684541
660256,327,-649,3591,7710,4120,-2868,1745190881343684541
660448,163,-631,3670,7956,4328,-2736,1745190881343684541
660640,-8,-608,3739,8164,4637,-2488,1745190881343684541
660832,-159,-573,3788,8256,4995,-2095,1745190881343684541
661024,-277,-519,3836,8304,5305,-1359,1745190881343684541
661216,-369,-450,3881,8370,5510,-494,1745190881343684541
661408,-386,-398,3923,8310,5782,683,1745190881343684541
661600,-279,-345,4008,8519,6290,1536,1745190881402073955
661792,-150,-276,4090,8640,6805,1756,1745190881402073955
661984,-57,-155,4178,8836,7037,2145,1745190881402073955
662176,25,-52,4242,9090,6967,2230,1745190881402073955
662368,171,30,4316,9360,6842,1831,1745190881402073955
662560,376,131,4424,9731,6806,1065,1745190881402073955
662752,564,239,4540,10041,6857,246,1745190881402073955
662944,684,354,4653,10390,7000,-737,1745190881402073955
663136,706,462,4723,10715,7077,-1389,1745190881402073955
663328,687,553,4729,10921,7076,-1733,1745190881402073955
663520,687,662,4698,10877,7122,-1756,1745190881402073955
663712,695,802,4641,10577,7250,-1031,1745190881402073955
663904,600,984,4669,10961,6765,-497,1745190881474742718
664096,613,1068,4637,10844,6505,698,1745190881474742718
664288,658,1196,4618,10427,6625,1677,1745190881474742718
664480,738,1284,4678,9989,6747,2929,1745190881474742718
664672,852,1343,4755,9752,6875,3720,1745190881474742718
664864,1039,1394,4763,9607,6839,4284,1745190881474742718
665056,1171,1493,4761,9859,6114,4247,1745190881474742718
665248,1383,1596,4757,9500,6141,4763,1745190881474742718
665440,1570,1764,4786,9270,6543,5193,1745190881474742718
665632,1697,1933,4774,9157,6717,5969,1745190881474742718
665824,1822,2131,4692,9132,6747,6601,1745190881474742718
666016,1954,2358,4595,9215,6711,7086,1745190881474742718
666208,2043,2582,4502,9562,6400,7382,1745190881519419029
666400,2106,2746,4372,10182,5967,7354,1745190881519419029
666592,2220,2817,4149,10575,5690,6991,1745190881519419029
666784,2442,2767,3736,10353,5589,6506,1745190881519419029
666976,2697,2913,3438,10294,5926,5373,1745190881519419029
667168,2882,3534,3715,11843,6488,4460,1745190881519419029
667360,2920,3982,3874,13139,6572,5456,1745190881519419029
667552,2960,3966,3751,13818,6063,5647,1745190881519419029
667744,3005,3864,3616,14054,5414,4974,1745190881519419029
667936,2954,3827,3490,13677,4329,4373,1745190881519419029
668128,2826,3872,3278,12785,3181,3972,1745190881519419029
668320,2620,3941,3003,12295,2028,3541,1745190881519419029
668512,2319,4003,2737,12543,1261,3071,1745190881578671092
668704,1954,4034,2560,12929,1541,2601,1745190881578671092
668896,1637,4050,2550,13517,3167,2296,1745190881578671092
669088,1358,3981,2673,14045,4487,2465,1745190881578671092
669280,1156,3809,2760,14171,4835,2368,1745190881578671092
669472,1019,3612,2677,13715,4317,2141,1745190881578671092
669664,886,3487,2506,12928,3526,2178,1745190881578671092
669856,710,3431,2331,12193,2913,2221,1745190881578671092
670048,504,3397,2173,11723,2752,2302,1745190881578671092
670240,276,3396,2042,11407,2968,2411,1745190881578671092
670432,31,3448,1888,11229,3357,2442,1745190881578671092
670624,-225,3521,1660,11296,3660,2624,1745190881578671092
670816,-448,3581,1428,11156,3968,2559,1745190881634615425
671008,-661,3658,1163,11570,3744,3215,1745190881634615425
671200,-819,3515,976,12557,4618,3457,1745190881634615425
671392,-924,3330,944,12586,5976,3139,1745190881634615425
671584,-978,3272,900,11748,6440,2371,1745190881634615425
671776,-1056,3455,494,9337,5936,2198,1745190881634615425
671968,-1093,3616,47,8737,5556,2775,1745190881634615425
672160,-1189,3458,-258,10786,4684,2954,1745190881634615425
672352,-1385,3175,-347,12622,4654,2744,1745190881634615425
672544,-1525,3010,-122,12695,7003,1861,1745190881634615425
672736,-1518,2861,269,12640,8950,1739,1745190881634615425
672928,-1381,2637,306,11764,9314,1202,1745190881634615425
673120,-1128,2487,170,11075,8843,772,1745190881694917218
673312,-940,2414,-111,10885,6339,368,1745190881694917218
673504,-958,2458,-575,9818,4358,337,1745190881694917218
673696,-1092,2597,-746,8659,4002,364,1745190881694917218
673888,-1259,2664,-614,8354,4262,584,1745190881694917218
674080,-1404,2641,-452,8324,5165,625,1745190881694917218
674272,-1474,2625,-327,8663,5807,387,1745190881694917218
674464,-1473,2627,-355,9053,5833,272,1745190881694917218
674656,-1448,2618,-516,9440,5498,-25,1745190881694917218
674848,-1446,2618,-690,9777,4931,-282,1745190881694917218
675040,-1479,2589,-830,10055,4264,-362,1745190881694917218
675232,-1542,2509,-927,10279,3767,-146,1745190881694917218
675424,-1619,2374,-974,10479,3487,-75,1745190881757008786
675616,-1706,2229,-1005,10522,3276,134,1745190881757008786
675808,-1790,2080,-1048,10471,3112,238,1745190881757008786
676000,-1858,1935,-1110,10182,2993,185,1745190881757008786
676192,-1908,1826,-1173,9705,2891,132,1745190881757008786
676384,-1935,1753,-1221,9160,2860,148,1745190881757008786
676576,-1950,1704,-1254,8650,2770,-67,1745190881757008786
676768,-1959,1703,-1293,8213,2648,-337,1745190881757008786
676960,-1972,1724,-1355,7817,2548,-447,1745190881757008786
677152,-1994,1735,-1416,7576,2413,-657,1745190881757008786
677344,-2011,1736,-1453,7465,2328,-745,1745190881757008786
677536,-2011,1709,-1447,7525,2348,-884,1745190881757008786
677728,-1996,1665,-1393,7697,2528,-1017,1745190881811127458
677920,-1956,1617,-1318,7895,2779,-1032,1745190881811127458
678112,-1891,1563,-1252,8117,3011,-841,1745190881811127458
678304,-1800,1503,-1194,8346,3059,-672,1745190881811127458
678496,-1679,1450,-1145,8597,2927,-631,1745190881811127458
678688,-1541,1387,-1117,8888,2773,-635,1745190881811127458
678880,-1410,1286,-1106,9234,2619,-771,1745190881811127458
679072,-1303,1150,-1097,9634,2407,-680,1745190881811127458
679264,-1225,990,-1079,9715,2238,-553,1745190881811127458
679456,-1117,806,-976,9413,2536,-720,1745190881811127458
679648,-1058,667,-975,9702,983,-1307,1745190881811127458
679840,-1106,660,-1236,9830,-96,-1102,1745190881811127458
