timestamp,gyr_x,gyr_y,gyr_z,acc_x,acc_y,acc_z,pkt_time_ns
105953,150,-191,-3,1229,1053,-7920,1745156217701308873
106145,132,-255,-13,1103,767,-7662,1745156217701308873
106337,119,-228,-56,1086,495,-8146,1745156217701308873
106529,143,-235,-80,1085,896,-8070,1745156217701308873
106721,185,-277,-68,1056,996,-8131,1745156217701308873
106913,187,-288,-55,968,849,-8234,1745156217701308873
107105,182,-291,-54,846,774,-8283,1745156217701308873
107297,184,-305,-57,683,730,-8340,1745156217701308873
107489,174,-296,-63,544,644,-8402,1745156217701308873
107681,171,-279,-67,419,568,-8446,1745156217701308873
107873,165,-265,-66,347,524,-8465,1745156217701308873
108065,152,-238,-57,279,523,-8491,1745156217701308873
108257,138,-214,-45,243,467,-8539,1745156217771501617
108449,113,-187,-33,191,388,-8553,1745156217771501617
108641,83,-146,-28,142,324,-8544,1745156217771501617
108833,59,-107,-25,85,274,-8542,1745156217771501617
109025,39,-65,-16,99,332,-8488,1745156217771501617
109217,27,-23,-8,174,347,-8413,1745156217771501617
109409,8,3,2,319,281,-8385,1745156217771501617
109601,-15,29,15,406,378,-8316,1745156217771501617
109793,-31,41,21,574,465,-8271,1745156217771501617
109985,-49,46,17,704,493,-8198,1745156217771501617
110177,-64,48,7,729,482,-8155,1745156217771501617
110369,-77,44,-3,741,487,-8126,1745156217771501617
110561,-89,39,-8,776,460,-8124,1745156217814024666
110753,-100,33,-8,768,521,-8089,1745156217814024666
110945,-103,29,0,719,634,-8088,1745156217814024666
111137,-101,30,8,703,702,-8107,1745156217814024666
111329,-99,33,10,724,701,-8089,1745156217814024666
111521,-97,36,6,731,668,-8118,1745156217814024666
111713,-96,37,1,777,680,-8114,1745156217814024666
111905,-92,37,0,827,712,-8119,1745156217814024666
112097,-87,34,6,831,706,-8129,1745156217814024666
112289,-85,36,12,790,727,-8131,1745156217814024666
112481,-84,42,15,735,752,-8104,1745156217814024666
112673,-80,49,13,707,762,-8070,1745156217814024666
112865,-73,54,10,759,868,-8058,1745156217872290748
113057,-69,57,10,715,789,-8052,1745156217872290748
113249,-79,70,7,660,668,-8032,1745156217872290748
113441,-87,79,5,622,641,-7982,1745156217872290748
113633,-87,89,11,651,709,-7931,1745156217872290748
113825,-116,62,22,629,-3,-7728,1745156217872290748
114017,-176,92,16,729,649,-8277,1745156217872290748
114209,-73,51,48,821,1686,-7608,1745156217872290748
114401,-39,72,73,654,1357,-7908,1745156217872290748
114593,-50,76,40,686,810,-8018,1745156217872290748
114785,-60,67,-7,724,547,-7966,1745156217872290748
114977,-60,75,-21,690,594,-7971,1745156217872290748
115169,-45,61,-3,642,697,-7916,1745156217939653049
115361,-33,62,26,661,768,-7984,1745156217939653049
115553,-34,57,37,698,809,-8000,1745156217939653049
115745,-33,51,31,734,845,-8006,1745156217939653049
115937,-23,45,23,768,851,-8031,1745156217939653049
116129,-9,39,17,798,841,-8048,1745156217939653049
116321,4,33,16,869,858,-8093,1745156217939653049
116513,15,18,20,928,894,-8151,1745156217939653049
116705,25,0,25,963,914,-8183,1745156217939653049
116897,32,-18,29,958,895,-8205,1745156217939653049
117089,33,-32,30,924,862,-8189,1745156217939653049
117281,41,-45,26,841,814,-8179,1745156217939653049
117473,52,-55,22,772,797,-8158,1745156217993107665
117665,60,-59,20,683,777,-8147,1745156217993107665
117857,-96,12,5,-208,-224,-8426,1745156217993107665
118049,-204,136,-23,-787,-557,-7651,1745156217993107665
118241,-153,192,-28,-829,-154,-8002,1745156217993107665
118433,-186,304,-3,-606,319,-7915,1745156217993107665
118625,-189,357,37,-113,755,-7889,1745156217993107665
118817,-172,378,77,556,1038,-7899,1745156217993107665
119009,-146,381,90,1176,1129,-7978,1745156217993107665
119201,-110,361,69,1586,1337,-7948,1745156217993107665
119393,-76,303,51,1875,1346,-7919,1745156217993107665
119585,-40,217,29,2025,1280,-7974,1745156217993107665
119777,-7,127,8,2028,1187,-7999,1745156218048326796
119969,16,44,-7,1884,1069,-8027,1745156218048326796
120161,31,-27,-13,1608,924,-8022,1745156218048326796
120353,36,-72,-15,1260,831,-8014,1745156218048326796
120545,38,-91,-16,924,760,-8015,1745156218048326796
120737,35,-85,-16,639,692,-8036,1745156218048326796
120929,27,-61,-14,438,675,-8054,1745156218048326796
121121,19,-30,-12,361,649,-8047,1745156218048326796
121313,14,4,-7,398,614,-8059,1745156218048326796
121505,8,33,-3,537,613,-8042,1745156218048326796
121697,-2,52,-1,700,613,-8034,1745156218048326796
121889,-11,57,0,863,644,-8045,1745156218048326796
122081,-15,51,-2,1000,680,-8057,1745156218109017284
122273,-16,39,-4,1078,729,-8060,1745156218109017284
122465,-13,23,-7,1078,792,-8054,1745156218109017284
122657,-10,6,-10,1012,856,-8057,1745156218109017284
122849,-9,-6,-11,932,872,-8035,1745156218109017284
123041,-8,-11,-8,854,882,-8023,1745156218109017284
123233,-3,-11,-4,751,856,-8019,1745156218109017284
123425,4,-7,0,730,867,-8015,1745156218109017284
123617,10,0,1,731,873,-8027,1745156218109017284
123809,10,7,-2,770,880,-8039,1745156218109017284
124001,9,12,-3,793,867,-8020,1745156218109017284
124193,12,16,0,846,831,-8025,1745156218109017284
124385,16,16,5,897,818,-8022,1745156218168446168
124577,20,13,8,916,781,-8040,1745156218168446168
124769,21,10,7,940,739,-8064,1745156218168446168
124961,18,7,2,906,686,-8069,1745156218168446168
125153,11,5,-1,908,633,-8080,1745156218168446168
125345,2,4,0,891,595,-8096,1745156218168446168
125537,-7,3,2,855,581,-8088,1745156218168446168
125729,-14,3,2,846,613,-8110,1745156218168446168
125921,-22,4,-1,809,661,-8101,1745156218168446168
126113,-28,4,-3,800,732,-8103,1745156218168446168
126305,-31,6,-4,774,804,-8076,1745156218168446168
126497,-28,8,-2,755,872,-8065,1745156218168446168
126689,-20,13,0,764,915,-8033,1745156218232613186
126881,-8,14,1,785,933,-8039,1745156218232613186
127073,0,15,-1,807,916,-8023,1745156218232613186
127265,4,14,-5,807,889,-8045,1745156218232613186
127457,6,14,-6,802,847,-8048,1745156218232613186
127649,8,13,-5,807,811,-8016,1745156218232613186
127841,11,14,-3,784,778,-8040,1745156218232613186
128033,11,17,-2,782,724,-8048,1745156218232613186
128225,11,18,-1,786,725,-8062,1745156218232613186
128417,10,20,-3,801,706,-8039,1745156218232613186
128609,7,18,-6,838,698,-8013,1745156218232613186
128801,3,17,-6,848,712,-7994,1745156218232613186
128993,1,16,-7,859,715,-7992,1745156218281184200
129185,-2,15,-8,871,706,-7988,1745156218281184200
129377,-2,13,-9,857,717,-8028,1745156218281184200
129569,-2,14,-11,868,727,-8089,1745156218281184200
129761,-7,16,-16,881,700,-8126,1745156218281184200
129953,-17,18,-18,918,705,-8151,1745156218281184200
130145,-26,19,-19,938,685,-8154,1745156218281184200
130337,-32,20,-19,960,693,-8195,1745156218281184200
130529,-36,20,-21,986,703,-8244,1745156218281184200
130721,-42,21,-22,1004,679,-8288,1745156218281184200
130913,-49,23,-26,1016,653,-8349,1745156218281184200
131105,-58,28,-30,1043,607,-8429,1745156218281184200
131297,-70,33,-41,1095,547,-8477,1745156218343890659
131489,-85,33,-60,1182,486,-8503,1745156218343890659
131681,-99,26,-84,1307,412,-8419,1745156218343890659
131873,-106,11,-106,1396,322,-8314,1745156218343890659
132065,-112,-1,-125,1462,245,-8324,1745156218343890659
132257,-125,-9,-151,1501,159,-8401,1745156218343890659
132449,-143,-17,-185,1558,68,-8463,1745156218343890659
132641,-160,-18,-231,1626,-5,-8471,1745156218343890659
132833,-176,-22,-292,1704,-123,-8534,1745156218343890659
133025,-196,-36,-344,1811,-320,-8487,1745156218343890659
133217,-216,-49,-376,1940,-451,-8413,1745156218343890659
133409,-255,-41,-398,2110,-482,-8425,1745156218343890659
133601,-316,-24,-426,2307,-414,-8508,1745156218399804211
133793,-379,-12,-462,2521,-339,-8618,1745156218399804211
133985,-427,-9,-490,2704,-279,-8817,1745156218399804211
134177,-452,-23,-504,2928,-175,-8721,1745156218399804211
134369,-452,-41,-517,3078,99,-8745,1745156218399804211
134561,-431,-57,-547,3158,536,-8806,1745156218399804211
134753,-392,-52,-586,3204,938,-8637,1745156218399804211
134945,-341,-41,-609,3238,1103,-8490,1745156218399804211
135137,-273,-63,-612,3277,952,-8408,1745156218399804211
135329,-196,-98,-605,3396,630,-8571,1745156218399804211
135521,-130,-135,-599,3529,286,-8765,1745156218399804211
135713,-92,-156,-595,3629,144,-8936,1745156218399804211
135905,-87,-154,-611,3662,179,-9303,1745156218462066558
136097,-114,-161,-645,3688,234,-9540,1745156218462066558
136289,-170,-187,-680,3840,316,-9835,1745156218462066558
136481,-243,-235,-702,4224,282,-9542,1745156218462066558
136673,-326,-358,-710,4732,74,-9273,1745156218462066558
136865,-433,-558,-703,5255,-393,-9607,1745156218462066558
137057,-494,-829,-708,5685,-554,-10449,1745156218462066558
137249,-544,-1022,-747,5786,-185,-11275,1745156218462066558
137441,-601,-1089,-786,5524,729,-11873,1745156218462066558
137633,-647,-1116,-795,4916,1360,-11350,1745156218462066558
137825,-578,-1215,-769,4211,966,-9550,1745156218462066558
138017,-428,-1366,-673,3763,-210,-8087,1745156218462066558
138209,-405,-1322,-245,5150,-46,-8708,1745156218517149024
138401,-782,-1180,459,6169,127,-9253,1745156218517149024
138593,-850,-1475,558,6030,989,-10107,1745156218517149024
138785,-633,-1908,188,5067,2385,-9843,1745156218517149024
138977,-375,-2087,-205,3779,3395,-9405,1745156218517149024
139169,-187,-2092,-378,2576,3487,-8734,1745156218517149024
139361,-76,-2037,-295,1648,2455,-8050,1745156218517149024
139553,41,-1999,-41,1320,841,-7903,1745156218517149024
139745,161,-1966,278,1434,-652,-8236,1745156218517149024
139937,226,-1960,558,1694,-1595,-8735,1745156218517149024
140129,176,-1939,738,1896,-2074,-9046,1745156218517149024
140321,27,-1897,827,1906,-2143,-9029,1745156218517149024
140513,-137,-1846,878,1763,-1941,-8753,1745156218573871579
140705,-265,-1788,933,1521,-1568,-8389,1745156218573871579
140897,-351,-1713,999,1240,-1207,-8110,1745156218573871579
141089,-400,-1626,1069,990,-869,-7918,1745156218573871579
141281,-429,-1537,1142,844,-656,-7782,1745156218573871579
141473,-442,-1442,1210,734,-536,-7665,1745156218573871579
141665,-442,-1347,1277,677,-527,-7494,1745156218573871579
141857,-432,-1249,1342,674,-552,-7381,1745156218573871579
142049,-426,-1143,1408,551,-492,-7129,1745156218573871579
142241,-403,-1048,1484,496,-458,-6986,1745156218573871579
142433,-381,-933,1559,397,-408,-6812,1745156218573871579
142625,-356,-820,1634,339,-308,-6724,1745156218573871579
142817,-330,-706,1706,286,-208,-6620,1745156218634003477
143009,-300,-591,1773,258,-75,-6516,1745156218634003477
143201,-270,-477,1832,260,24,-6310,1745156218634003477
143393,-240,-362,1885,302,100,-6015,1745156218634003477
143585,-208,-251,1929,372,165,-5847,1745156218634003477
143777,-176,-151,1968,494,217,-5734,1745156218634003477
143969,-153,-52,2008,608,272,-5468,1745156218634003477
144161,-128,26,2044,637,313,-5192,1745156218634003477
144353,-83,79,2076,687,503,-5175,1745156218634003477
144545,-42,150,2112,748,749,-5177,1745156218634003477
144737,-24,234,2150,693,997,-4878,1745156218634003477
144929,14,289,2188,718,1252,-4551,1745156218634003477
145121,68,343,2232,739,1534,-4375,1745156218699255069
145313,115,417,2283,756,1727,-4176,1745156218699255069
145505,170,490,2339,774,1844,-4011,1745156218699255069
145697,227,564,2399,780,1856,-3842,1745156218699255069
145889,290,639,2458,789,1854,-3688,1745156218699255069
146081,348,724,2515,783,1856,-3599,1745156218699255069
146273,394,819,2573,778,1873,-3557,1745156218699255069
146465,427,929,2633,763,2011,-3630,1745156218699255069
146657,452,1056,2694,800,2220,-3759,1745156218699255069
146849,470,1191,2752,915,2568,-3913,1745156218699255069
147041,475,1336,2799,1084,3004,-4050,1745156218699255069
147233,466,1477,2832,1299,3427,-4048,1745156218699255069
147425,454,1607,2855,1515,3833,-3940,1745156218748789668
147617,451,1718,2872,1736,4186,-3804,1745156218748789668
147809,459,1799,2881,1964,4453,-3752,1745156218748789668
148001,482,1854,2876,2216,4596,-3774,1745156218748789668
148193,502,1894,2856,2447,4653,-3802,1745156218748789668
148385,505,1924,2815,2575,4605,-3754,1745156218748789668
148577,495,1952,2758,2609,4565,-3639,1745156218748789668
148769,474,1988,2691,2536,4530,-3487,1745156218748789668
148961,438,2037,2618,2443,4511,-3329,1745156218748789668
149153,381,2102,2545,2365,4535,-3147,1745156218748789668
149345,303,2180,2482,2287,4552,-2954,1745156218748789668
149537,212,2267,2431,2261,4565,-2726,1745156218748789668
149729,101,2361,2387,2280,4577,-2538,1745156218805146393
149921,-27,2461,2349,2365,4565,-2444,1745156218805146393
150113,-169,2567,2321,2434,4558,-2427,1745156218805146393
150305,-308,2688,2306,2525,4655,-2526,1745156218805146393
150497,-427,2824,2300,2606,4908,-2689,1745156218805146393
150689,-522,2980,2299,2713,5290,-2935,1745156218805146393
150881,-584,3145,2295,2838,5812,-3256,1745156218805146393
151073,-600,3314,2280,3014,6415,-3570,1745156218805146393
151265,-566,3485,2254,3132,7073,-3866,1745156218805146393
151457,-479,3661,2214,3243,7761,-4216,1745156218805146393
151649,-363,3847,2162,3305,8376,-4484,1745156218805146393
151841,-208,3994,2100,3266,8793,-4104,1745156218805146393
152033,11,4127,2030,3910,9401,-5527,1745156218868008683
152225,121,4389,1963,3929,9280,-4653,1745156218868008683
152417,318,4521,1910,4271,9120,-4500,1745156218868008683
152609,504,4622,1861,4649,8690,-4018,1745156218868008683
152801,679,4735,1803,4942,8079,-3600,1745156218868008683
152993,852,4838,1721,5181,7469,-3228,1745156218868008683
153185,1015,4938,1614,5347,6870,-2851,1745156218868008683
153377,1163,5038,1481,5488,6451,-2584,1745156218868008683
153569,1293,5146,1320,5643,6233,-2514,1745156218868008683
153761,1397,5251,1135,5890,6169,-2439,1745156218868008683
153953,1480,5344,937,6240,6306,-2357,1745156218868008683
154145,1545,5433,724,6647,6540,-2437,1745156218868008683
154337,1607,5519,505,7071,6870,-2417,1745156218920757368
154529,1685,5608,287,7466,7265,-2603,1745156218920757368
154721,1765,5693,70,7919,7625,-2980,1745156218920757368
154913,1836,5749,-147,8449,7874,-3270,1745156218920757368
155105,1894,5762,-361,9021,7930,-3470,1745156218920757368
155297,1934,5714,-573,9669,7837,-3488,1745156218920757368
155489,1971,5620,-761,10331,7578,-3384,1745156218920757368
155681,1992,5497,-919,10917,7267,-3257,1745156218920757368
155873,1992,5370,-1051,11415,6973,-3261,1745156218920757368
156065,1939,5270,-1173,11558,6685,-3038,1745156218920757368
156257,1882,5107,-1294,11678,6178,-2206,1745156218920757368
156449,1929,4923,-1422,11697,5996,-2891,1745156218920757368
156641,1861,4803,-1535,11650,5576,-2876,1745156218985893961
156833,1786,4674,-1635,11577,5160,-2939,1745156218985893961
157025,1707,4569,-1723,11536,4827,-2965,1745156218985893961
157217,1615,4463,-1786,11591,4552,-2983,1745156218985893961
157409,1516,4355,-1843,11752,4328,-3036,1745156218985893961
157601,1417,4237,-1903,11992,4110,-3006,1745156218985893961
157793,1338,4114,-1972,12246,3937,-3093,1745156218985893961
157985,1275,3996,-2054,12373,3842,-3294,1745156218985893961
158177,1228,3864,-2134,12446,3818,-3530,1745156218985893961
158369,1192,3726,-2208,12440,3783,-3846,1745156218985893961
158561,1147,3579,-2282,12418,3705,-4017,1745156218985893961
158753,1088,3432,-2371,12374,3534,-4113,1745156218985893961
158945,1010,3299,-2463,12233,3325,-4198,1745156219056578419
159137,916,3179,-2535,12022,3181,-4294,1745156219056578419
159329,815,3074,-2585,11784,3064,-4327,1745156219056578419
159521,713,2987,-2615,11597,3012,-4212,1745156219056578419
159713,634,2901,-2641,11509,2959,-4045,1745156219056578419
159905,576,2811,-2659,11509,2912,-3916,1745156219056578419
160097,522,2713,-2669,11557,2829,-3818,1745156219056578419
160289,456,2603,-2670,11602,2753,-3712,1745156219056578419
160481,383,2492,-2665,11630,2641,-3558,1745156219056578419
160673,307,2374,-2659,11604,2507,-3421,1745156219056578419
160865,242,2251,-2647,11500,2434,-3405,1745156219056578419
161057,175,2134,-2629,11400,2420,-3436,1745156219056578419
161249,97,2015,-2609,11297,2503,-3495,1745156219100197760
161441,16,1899,-2593,11199,2608,-3477,1745156219100197760
161633,-48,1777,-2578,11145,2760,-3402,1745156219100197760
161825,-95,1643,-2563,11152,2850,-3372,1745156219100197760
162017,-146,1507,-2556,11232,2928,-3431,1745156219100197760
162209,-217,1374,-2558,11284,2872,-3403,1745156219100197760
162401,-291,1240,-2555,11244,2789,-3322,1745156219100197760
162593,-355,1110,-2543,11133,2692,-3275,1745156219100197760
162785,-429,981,-2517,10864,2674,-3173,1745156219100197760
162977,-499,870,-2490,10570,2717,-3000,1745156219100197760
163169,-565,775,-2471,10261,2792,-2859,1745156219100197760
163361,-626,690,-2447,9976,2875,-2710,1745156219100197760
163553,-672,611,-2406,9756,2963,-2612,1745156219164104208
163745,-717,545,-2359,9574,3021,-2572,1745156219164104208
163937,-753,487,-2312,9430,3102,-2554,1745156219164104208
164129,-769,430,-2261,9319,3188,-2433,1745156219164104208
164321,-760,369,-2209,9234,3411,-2367,1745156219164104208
164513,-753,307,-2160,9140,3666,-2230,1745156219164104208
164705,-746,242,-2116,9016,3904,-2005,1745156219164104208
164897,-724,174,-2091,9106,3876,-1767,1745156219164104208
165089,-687,125,-2099,8550,4301,-1345,1745156219164104208
165281,-625,56,-2017,8472,4561,-1258,1745156219164104208
165473,-564,0,-1972,8478,4557,-1156,1745156219164104208
165665,-517,-45,-1984,8421,4409,-1130,1745156219164104208
165857,-485,-95,-1985,8401,4218,-1126,1745156219215761809
166049,-454,-145,-1976,8329,4164,-1003,1745156219215761809
166241,-437,-187,-1944,8242,4168,-863,1745156219215761809
166433,-431,-209,-1929,8124,4143,-793,1745156219215761809
166625,-427,-230,-1914,7970,4218,-666,1745156219215761809
166817,-417,-256,-1875,7878,4249,-528,1745156219215761809
167009,-405,-271,-1843,7710,4296,-378,1745156219215761809
167201,-400,-289,-1811,7538,4407,-183,1745156219215761809
167393,-401,-303,-1775,7372,4573,-32,1745156219215761809
167585,-411,-305,-1744,7230,4705,48,1745156219215761809
167777,-427,-303,-1718,7119,4791,189,1745156219215761809
167969,-434,-303,-1690,7001,4923,317,1745156219215761809
168161,-425,-306,-1645,6912,5081,400,1745156219282945310
168353,-409,-308,-1610,6861,5064,414,1745156219282945310
168545,-400,-306,-1609,6799,4947,476,1745156219282945310
168737,-393,-301,-1592,6646,5119,602,1745156219282945310
168929,-380,-286,-1535,6616,5207,696,1745156219282945310
169121,-355,-267,-1505,6646,5211,686,1745156219282945310
169313,-335,-249,-1522,6535,5302,605,1745156219282945310
169505,-291,-243,-1497,6548,5558,522,1745156219282945310
169697,-250,-236,-1436,6731,5701,468,1745156219282945310
169889,-225,-244,-1419,6994,5494,397,1745156219282945310
170081,-212,-268,-1439,7103,5359,410,1745156219282945310
170273,-213,-303,-1436,7002,5215,543,1745156219282945310
170465,-229,-315,-1417,6702,5292,676,1745156219335701807
170657,-247,-327,-1373,6478,5421,805,1745156219335701807
170849,-258,-323,-1344,6343,5461,900,1745156219335701807
171041,-259,-326,-1327,6260,5366,958,1745156219335701807
171233,-256,-326,-1322,6248,5193,954,1745156219335701807
171425,-260,-336,-1312,6247,5028,968,1745156219335701807
171617,-275,-340,-1299,6300,4864,902,1745156219335701807
171809,-300,-352,-1299,6333,4769,929,1745156219335701807
172001,-330,-372,-1304,6256,4753,960,1745156219335701807
172193,-356,-395,-1287,6134,4875,972,1745156219335701807
172385,-375,-415,-1248,5978,5098,1011,1745156219335701807
172577,-382,-427,-1202,5828,5306,1053,1745156219335701807
172769,-377,-424,-1156,5657,5513,1031,1745156219391767232
172961,-363,-417,-1114,5627,5671,1023,1745156219391767232
173153,-341,-408,-1078,5604,5719,1004,1745156219391767232
173345,-312,-401,-1038,5685,5673,942,1745156219391767232
173537,-286,-402,-996,5819,5488,800,1745156219391767232
173729,-275,-420,-949,5839,5383,841,1745156219391767232
173921,-265,-424,-909,5757,5387,858,1745156219391767232
174113,-261,-427,-878,5564,5606,984,1745156219391767232
174305,-252,-417,-853,5488,5854,995,1745156219391767232
174497,-237,-413,-834,5518,5948,1054,1745156219391767232
174689,-206,-407,-817,5567,5905,1056,1745156219391767232
174881,-184,-415,-782,5566,5728,1170,1745156219391767232
175073,-167,-408,-746,5541,5639,1161,1745156219453885623
175265,-155,-418,-718,5549,5524,1234,1745156219453885623
175457,-148,-428,-688,5507,5402,1295,1745156219453885623
175649,-143,-435,-653,5452,5390,1381,1745156219453885623
175841,-138,-432,-628,5348,5503,1450,1745156219453885623
176033,-137,-434,-615,5269,5487,1455,1745156219453885623
176225,-136,-435,-596,5215,5481,1453,1745156219453885623
176417,-143,-434,-573,5132,5399,1432,1745156219453885623
176609,-144,-418,-542,4741,6030,1966,1745156219453885623
176801,-17,-261,-608,3844,6975,1541,1745156219453885623
176993,-43,-341,-566,4660,5802,1467,1745156219453885623
177185,-79,-302,-467,5033,5073,1318,1745156219453885623
177377,-100,-305,-413,5268,5023,1310,1745156219524244199
177569,-145,-331,-380,5371,5440,1230,1745156219524244199
177761,-171,-367,-358,4883,5977,1476,1745156219524244199
177953,-149,-358,-340,4316,6453,1482,1745156219524244199
178145,-101,-343,-312,4013,6524,1491,1745156219524244199
178337,-59,-327,-282,4230,6253,1364,1745156219524244199
178529,-27,-317,-250,4386,5979,1338,1745156219524244199
178721,-3,-300,-214,4429,5930,1241,1745156219524244199
178913,13,-296,-181,4374,5997,1279,1745156219524244199
179105,30,-299,-157,4354,6107,1316,1745156219524244199
179297,48,-294,-135,4334,6229,1398,1745156219524244199
179489,64,-286,-112,4351,6329,1490,1745156219524244199
179681,70,-269,-92,4337,6400,1580,1745156219592598002
179873,67,-257,-84,4423,6462,1658,1745156219592598002
180065,61,-251,-76,4453,6502,1759,1745156219592598002
180257,47,-249,-59,4396,6550,1809,1745156219592598002
180449,18,-233,-41,4328,6564,1759,1745156219592598002
180641,-19,-211,-31,4354,6666,1797,1745156219592598002
180833,-46,-183,-34,4353,6795,1878,1745156219592598002
181025,-59,-154,-36,4342,6937,1846,1745156219592598002
181217,-64,-142,-41,4513,7055,1824,1745156219592598002
181409,-61,-132,-45,4568,7117,1739,1745156219592598002
181601,-58,-132,-41,4607,7125,1676,1745156219592598002
181793,-52,-134,-29,4452,6958,1654,1745156219592598002
181985,-54,-129,9,4369,6957,1602,1745156219633723824
182177,-60,-116,15,4399,7163,1664,1745156219633723824
182369,-53,-110,4,4312,7328,1708,1745156219633723824
182561,-39,-110,15,4290,7439,1813,1745156219633723824
182753,-25,-103,34,4230,7452,1848,1745156219633723824
182945,-11,-95,53,4154,7331,1906,1745156219633723824
183137,9,-83,70,4074,7251,1958,1745156219633723824
183329,28,-68,74,4068,7246,1936,1745156219633723824
183521,43,-60,75,4128,7240,1965,1745156219633723824
183713,52,-53,79,4142,7295,1998,1745156219633723824
183905,57,-44,80,4140,7328,1992,1745156219633723824
184097,64,-33,79,4070,7354,1958,1745156219633723824
184289,76,-20,70,4041,7395,1849,1745156219692082822
184481,77,-7,59,3995,7343,1745,1745156219692082822
184673,66,9,53,3942,7308,1705,1745156219692082822
184865,48,31,63,3828,7207,1617,1745156219692082822
185057,28,56,69,3917,7339,1574,1745156219692082822
185249,13,71,53,3989,7407,1547,1745156219692082822
185441,1,80,47,4019,7447,1551,1745156219692082822
185633,-11,91,50,4003,7447,1535,1745156219692082822
185825,-22,97,60,3993,7417,1552,1745156219692082822
186017,-28,98,66,3988,7416,1599,1745156219692082822
186209,-27,97,70,3978,7435,1634,1745156219692082822
186401,-18,90,80,4037,7437,1612,1745156219692082822
186593,-7,77,86,4071,7391,1593,1745156219758238468
186785,-2,63,93,4148,7406,1599,1745156219758238468
186977,5,45,97,4212,7432,1600,1745156219758238468
187169,24,25,94,4209,7389,1563,1745156219758238468
187361,39,9,84,4141,7338,1520,1745156219758238468
187553,48,-1,77,4076,7292,1486,1745156219758238468
187745,54,-5,74,4003,7262,1456,1745156219758238468
187937,56,-2,72,3951,7240,1352,1745156219758238468
188129,56,-2,71,3943,7176,1281,1745156219758238468
188321,51,-4,67,3998,7094,1226,1745156219758238468
188513,37,-6,59,3997,7022,1179,1745156219758238468
188705,13,-2,59,4006,6977,1121,1745156219758238468
188897,-15,4,62,3999,7026,1136,1745156219808143116
189089,-39,16,62,3958,7098,1150,1745156219808143116
189281,-50,29,60,3913,7151,1169,1745156219808143116
189473,-46,39,60,3923,7165,1208,1745156219808143116
189665,-36,46,61,3943,7123,1188,1745156219808143116
189857,-29,49,64,4020,7006,1193,1745156219808143116
190049,-19,52,70,4017,6991,1278,1745156219808143116
190241,-6,61,78,3977,7060,1298,1745156219808143116
190433,15,71,88,3978,7103,1315,1745156219808143116
190625,46,76,94,4045,7098,1333,1745156219808143116
190817,81,75,99,4112,6992,1341,1745156219808143116
191009,110,76,114,4206,6854,1334,1745156219808143116
191201,129,71,133,4312,6698,1295,1745156219864047137
191393,144,72,154,4364,6608,1270,1745156219864047137
191585,162,69,176,4382,6628,1316,1745156219864047137
191777,185,74,194,4382,6678,1311,1745156219864047137
191969,210,78,212,4430,6685,1336,1745156219864047137
192161,235,84,233,4501,6648,1333,1745156219864047137
192353,264,89,261,4633,6583,1349,1745156219864047137
192545,299,95,290,4752,6468,1291,1745156219864047137
192737,337,92,314,4864,6354,1231,1745156219864047137
192929,372,86,338,4942,6167,1188,1745156219864047137
193121,402,81,364,4988,6012,1136,1745156219864047137
193313,428,80,396,5010,5901,1083,1745156219864047137
193505,453,86,433,5008,5856,1102,1745156219917272848
193697,485,95,473,5034,5882,1111,1745156219917272848
193889,519,111,515,5069,5902,1112,1745156219917272848
194081,562,134,561,5153,5940,1030,1745156219917272848
194273,614,160,616,5294,5933,989,1745156219917272848
194465,676,181,676,5495,5859,923,1745156219917272848
194657,743,191,740,5760,5711,833,1745156219917272848
194849,811,185,805,5998,5464,773,1745156219917272848
195041,876,171,872,6188,5191,741,1745156219917272848
195233,935,151,941,6304,4924,751,1745156219917272848
195425,977,131,1010,6382,4697,738,1745156219917272848
195617,1000,113,1076,6440,4409,702,1745156219917272848
195809,1010,98,1141,6488,4071,670,1745156219988672769
196001,1005,84,1205,6582,3701,567,1745156219988672769
196193,981,69,1269,6688,3307,470,1745156219988672769
196385,935,50,1334,6818,2927,374,1745156219988672769
196577,869,33,1404,6903,2662,326,1745156219988672769
196769,786,23,1474,6972,2514,295,1745156219988672769
196961,695,20,1539,7005,2443,208,1745156219988672769
197153,612,23,1600,7087,2389,158,1745156219988672769
197345,541,21,1659,7232,2413,120,1745156219988672769
197537,468,19,1708,7434,2427,119,1745156219988672769
197729,387,15,1757,7584,2468,156,1745156219988672769
197921,304,13,1812,7657,2639,177,1745156219988672769
198113,231,14,1862,7743,2875,131,1745156220038940539
198305,178,11,1902,7807,3057,14,1745156220038940539
198497,148,3,1936,7920,3219,-147,1745156220038940539
198689,131,-3,1967,8030,3343,-347,1745156220038940539
198881,124,-5,2003,8183,3476,-605,1745156220038940539
199073,132,-15,2040,8359,3575,-863,1745156220038940539
199265,154,-31,2090,8301,3720,-1137,1745156220038940539
199457,172,-66,2157,8837,3485,-1483,1745156220038940539
199649,193,-114,2160,9045,3365,-1672,1745156220038940539
199841,208,-172,2194,9075,3418,-1865,1745156220038940539
200033,212,-225,2265,8997,3575,-1999,1745156220038940539
200225,209,-269,2341,8931,3667,-2147,1745156220038940539
200417,209,-310,2407,8919,3700,-2275,1745156220099427382
200609,209,-352,2466,8857,3749,-2282,1745156220099427382
200801,212,-383,2533,8889,3939,-2138,1745156220099427382
200993,209,-407,2584,9015,4095,-2023,1745156220099427382
201185,206,-423,2604,9073,4189,-2023,1745156220099427382
201377,212,-457,2622,9302,4183,-2199,1745156220099427382
201569,222,-512,2633,9531,4029,-2387,1745156220099427382
201761,232,-582,2631,9682,3879,-2638,1745156220099427382
201953,243,-638,2631,9593,3972,-2919,1745156220099427382
202145,253,-678,2646,9493,4116,-3250,1745156220099427382
202337,269,-723,2662,9480,4175,-3510,1745156220099427382
202529,290,-768,2687,9580,4121,-3704,1745156220099427382
202721,308,-829,2715,9676,4095,-3772,1745156220155566661
202913,320,-903,2707,9733,4166,-3844,1745156220155566661
203105,314,-952,2689,9620,4256,-3975,1745156220155566661
203297,308,-1005,2685,9610,4425,-4132,1745156220155566661
203489,317,-1062,2695,9668,4366,-4265,1745156220155566661
203681,310,-1132,2714,9889,3998,-4488,1745156220155566661
203873,279,-1219,2722,10016,3652,-4638,1745156220155566661
204065,225,-1304,2747,10011,3581,-4701,1745156220155566661
204257,159,-1383,2787,9997,3819,-4847,1745156220155566661
204449,104,-1466,2795,9964,4088,-4836,1745156220155566661
204641,62,-1528,2809,9947,4286,-5019,1745156220155566661
204833,51,-1594,2835,9933,4637,-5146,1745156220155566661
205025,66,-1663,2861,10098,5034,-5143,1745156220219500973
205217,106,-1752,2864,10365,5440,-5103,1745156220219500973
205409,173,-1853,2835,10662,5754,-4987,1745156220219500973
205601,252,-1983,2787,10869,5970,-4792,1745156220219500973
205793,327,-2119,2731,10849,6148,-4632,1745156220219500973
205985,387,-2238,2666,10684,6197,-4571,1745156220219500973
206177,421,-2339,2586,10429,6165,-4550,1745156220219500973
206369,426,-2433,2507,10312,5975,-4562,1745156220219500973
206561,400,-2515,2427,10202,5760,-4630,1745156220219500973
206753,347,-2581,2349,10052,5559,-4798,1745156220219500973
206945,272,-2642,2272,9966,5411,-4939,1745156220219500973
207137,188,-2701,2198,9930,5313,-5095,1745156220219500973
207329,104,-2755,2117,9822,5314,-5229,1745156220272650435
207521,24,-2806,2025,9705,5446,-5399,1745156220272650435
207713,-46,-2855,1926,9568,5764,-5520,1745156220272650435
207905,-109,-2897,1820,9386,6133,-5656,1745156220272650435
208097,-119,-2906,1701,9069,6744,-5607,1745156220272650435
208289,-83,-2993,1665,9163,7632,-5550,1745156220272650435
208481,-45,-3070,1635,9312,7758,-5463,1745156220272650435
208673,13,-3140,1530,9289,7866,-5276,1745156220272650435
208865,68,-3233,1401,9156,7984,-5087,1745156220272650435
209057,128,-3309,1308,8889,8141,-4836,1745156220272650435
209249,190,-3377,1249,8713,8326,-4520,1745156220272650435
209441,245,-3426,1168,8611,8260,-4153,1745156220272650435
209633,289,-3472,1056,8575,8174,-4048,1745156220334916637
209825,327,-3515,929,8581,8198,-4059,1745156220334916637
210017,377,-3567,795,8628,8308,-3953,1745156220334916637
210209,425,-3611,656,8422,8108,-4059,1745156220334916637
210401,473,-3629,500,8393,7722,-4292,1745156220334916637
210593,520,-3665,335,8393,7286,-4362,1745156220334916637
210785,557,-3706,200,8317,6915,-4469,1745156220334916637
210977,571,-3732,95,8154,6662,-4658,1745156220334916637
211169,556,-3734,-8,7964,6425,-4754,1745156220334916637
211361,510,-3735,-149,7840,6035,-4829,1745156220334916637
211553,438,-3728,-333,7529,6062,-4761,1745156220334916637
211745,373,-3735,-453,7419,5858,-4613,1745156220334916637
211937,313,-3725,-547,7035,5908,-4509,1745156220394635571
212129,249,-3690,-604,6914,5758,-4452,1745156220394635571
212321,217,-3678,-655,6774,5634,-4428,1745156220394635571
212513,191,-3667,-699,6618,5625,-4377,1745156220394635571
212705,182,-3661,-750,6546,5546,-4395,1745156220394635571
212897,189,-3659,-812,6452,5519,-4369,1745156220394635571
213089,210,-3657,-864,6356,5540,-4371,1745156220394635571
213281,235,-3650,-912,6317,5455,-4381,1745156220394635571
213473,261,-3646,-965,6261,5312,-4381,1745156220394635571
213665,284,-3642,-1016,6202,5096,-4394,1745156220394635571
213857,308,-3637,-1056,6047,4802,-4502,1745156220394635571
214049,335,-3640,-1091,5969,4506,-4629,1745156220394635571
214241,362,-3651,-1137,5934,4159,-4798,1745156220447829668
214433,386,-3644,-1194,5863,3892,-4896,1745156220447829668
214625,410,-3623,-1243,5680,3651,-4839,1745156220447829668
214817,442,-3590,-1287,5451,3477,-4702,1745156220447829668
215009,433,-3558,-1337,5183,3207,-4710,1745156220447829668
215201,435,-3531,-1386,4974,2914,-4763,1745156220447829668
215393,432,-3511,-1435,4731,2637,-4856,1745156220447829668
215585,424,-3468,-1477,4427,2443,-4978,1745156220447829668
215777,406,-3416,-1512,4157,2309,-5036,1745156220447829668
215969,374,-3373,-1550,4070,2176,-5093,1745156220447829668
216161,322,-3333,-1591,3950,2041,-5099,1745156220447829668
216353,263,-3299,-1616,3857,1921,-4924,1745156220447829668
216545,226,-3268,-1625,3652,1904,-4807,1745156220512164810
216737,206,-3208,-1628,3289,2014,-4891,1745156220512164810
216929,193,-3126,-1643,3020,2093,-5187,1745156220512164810
217121,176,-3046,-1680,2893,2110,-5249,1745156220512164810
217313,156,-2992,-1710,2997,2060,-5122,1745156220512164810
217505,149,-2947,-1713,3077,2067,-5117,1745156220512164810
217697,134,-2908,-1689,3075,1922,-4960,1745156220512164810
217889,150,-2857,-1662,2839,1905,-4765,1745156220512164810
218081,145,-2757,-1669,2797,1655,-5138,1745156220512164810
218273,174,-2762,-1672,2605,1635,-4917,1745156220512164810
218465,187,-2728,-1679,2474,1590,-5905,1745156220512164810
218657,122,-2554,-1698,1951,1229,-5505,1745156220512164810
218849,127,-2450,-1713,1592,1052,-5790,1745156220564565373
219041,124,-2341,-1711,1296,932,-5950,1745156220564565373
219233,122,-2224,-1698,1069,796,-6052,1745156220564565373
219425,117,-2109,-1678,884,735,-6093,1745156220564565373
219617,105,-1999,-1659,753,666,-6044,1745156220564565373
219809,100,-1894,-1643,703,524,-5988,1745156220564565373
220001,94,-1802,-1621,656,355,-5883,1745156220564565373
220193,96,-1710,-1589,570,195,-5757,1745156220564565373
220385,110,-1611,-1549,393,51,-5777,1745156220564565373
220577,135,-1515,-1502,267,-28,-5803,1745156220564565373
220769,159,-1414,-1452,171,-24,-5743,1745156220564565373
220961,174,-1305,-1403,77,-2,-5636,1745156220564565373
221153,188,-1194,-1357,12,-96,-5630,1745156220622861403
221345,221,-1098,-1311,-4,-211,-5666,1745156220622861403
221537,259,-1016,-1263,6,-279,-5702,1745156220622861403
221729,291,-930,-1209,-43,-328,-5801,1745156220622861403
221921,313,-832,-1148,-127,-336,-5985,1745156220622861403
222113,332,-729,-1086,-159,-313,-6204,1745156220622861403
222305,344,-634,-1030,-107,-344,-6354,1745156220622861403
222497,350,-544,-978,-64,-391,-6483,1745156220622861403
222689,340,-458,-929,-38,-512,-6617,1745156220622861403
222881,323,-379,-883,-42,-652,-6748,1745156220622861403
223073,298,-307,-832,-24,-832,-6852,1745156220622861403
223265,269,-242,-776,5,-967,-6962,1745156220622861403
223457,235,-180,-724,-9,-1026,-6962,1745156220681279151
223649,203,-120,-675,-56,-977,-6914,1745156220681279151
223841,171,-60,-629,-76,-933,-6805,1745156220681279151
224033,141,-5,-588,-23,-914,-6664,1745156220681279151
224225,117,41,-550,50,-899,-6648,1745156220681279151
224417,99,84,-514,98,-893,-6808,1745156220681279151
224609,78,132,-482,143,-812,-6957,1745156220681279151
224801,53,175,-448,204,-744,-7041,1745156220681279151
224993,29,212,-413,328,-644,-7114,1745156220681279151
225185,8,242,-377,445,-551,-7203,1745156220681279151
225377,-2,268,-339,555,-446,-7270,1745156220681279151
225569,0,290,-303,649,-282,-7460,1745156220681279151
225761,9,312,-271,746,-140,-7553,1745156220750608934
225953,26,327,-244,894,-28,-7582,1745156220750608934
226145,45,336,-217,991,-9,-7603,1745156220750608934
226337,69,339,-188,1057,-69,-7647,1745156220750608934
226529,89,347,-162,1083,-150,-7812,1745156220750608934
226721,104,360,-146,1103,-297,-7993,1745156220750608934
226913,109,361,-137,1156,-469,-8156,1745156220750608934
227105,97,360,-128,1163,-621,-8222,1745156220750608934
227297,67,395,-111,1126,-680,-8213,1745156220750608934
227489,32,417,-82,1071,-610,-8197,1745156220750608934
227681,2,449,-52,988,-478,-8174,1745156220750608934
227873,-29,494,-37,917,-358,-8110,1745156220750608934
228065,-55,546,-30,880,-301,-8061,1745156220857534259
228257,-71,594,-15,901,-276,-7982,1745156220857534259
228449,-85,632,6,1045,-318,-7963,1745156220857534259
228641,-101,650,24,1209,-366,-7927,1745156220857534259
228833,-117,690,36,1431,-380,-7907,1745156220857534259
229025,-129,696,47,1647,-332,-7950,1745156220857534259
229217,-137,675,55,1852,-290,-7798,1745156220857534259
229409,-142,661,58,2032,-190,-7747,1745156220857534259
229601,-142,633,53,2159,-54,-7796,1745156220857534259
229793,-138,606,48,2197,79,-7873,1745156220857534259
229985,-124,575,43,2266,203,-7985,1745156220857534259
230177,-108,542,32,2317,283,-8111,1745156220857534259
230369,-90,511,20,2329,295,-8199,1745156220866789175
230561,-71,481,7,2313,303,-8317,1745156220866789175
230753,-51,454,6,2252,367,-8460,1745156220866789175
230945,-33,439,19,2162,460,-8463,1745156220866789175
231137,-6,413,31,2160,627,-8631,1745156220866789175
231329,-4,426,27,2038,720,-8507,1745156220866789175
231521,3,428,33,1924,713,-8400,1745156220866789175
231713,8,432,46,1855,525,-8245,1745156220866789175
231905,2,449,58,1747,240,-8062,1745156220866789175
232097,-1,459,83,1635,-4,-7933,1745156220866789175
232289,-10,468,130,1592,-208,-7746,1745156220866789175
232481,-33,470,178,1573,-363,-7609,1745156220866789175
232673,-66,469,212,1533,-377,-7482,1745156220914883319
232865,-109,485,223,1546,-360,-7377,1745156220914883319
233057,-149,498,211,1491,-275,-7312,1745156220914883319
233249,-179,496,194,1334,-121,-7218,1745156220914883319
233441,-206,532,197,1233,-26,-7021,1745156220914883319
233633,-192,529,209,1407,29,-7007,1745156220914883319
233825,-190,520,199,1502,-90,-6831,1745156220914883319
234017,-159,477,192,1481,85,-7161,1745156220914883319
234209,-200,572,216,886,151,-6965,1745156220914883319
234401,-188,723,293,706,461,-7510,1745156220914883319
234593,-195,776,365,757,14,-5994,1745156220914883319
234785,-90,560,313,1905,-42,-7249,1745156220914883319
234977,-165,562,200,2158,-285,-7269,1745156220973466117
235169,-250,640,112,2157,-311,-6826,1745156220973466117
235361,-269,633,134,2021,-92,-6885,1745156220973466117
235553,-283,611,242,1836,174,-6820,1745156220973466117
235745,-266,607,390,1458,597,-6913,1745156220973466117
235937,-231,607,529,1197,850,-7241,1745156220973466117
236129,-155,610,585,1121,881,-7733,1745156220973466117
236321,-41,561,550,1301,882,-8377,1745156220973466117
236513,83,478,462,1679,873,-9027,1745156220973466117
236705,172,364,353,2308,673,-9570,1745156220973466117
236897,197,180,227,3124,257,-9988,1745156220973466117
237089,168,-22,95,3901,-214,-10223,1745156220973466117
237281,110,-208,-21,4379,-548,-10171,1745156221063314827
237473,24,-368,-115,4469,-512,-9909,1745156221063314827
237665,-88,-474,-174,4108,-107,-9492,1745156221063314827
237857,-205,-532,-189,3529,488,-9116,1745156221063314827
238049,-298,-562,-161,2799,1116,-8899,1745156221063314827
238241,-338,-574,-96,2046,1624,-8745,1745156221063314827
238433,-322,-572,-25,1351,1882,-8599,1745156221063314827
238625,-267,-545,27,692,1888,-8498,1745156221063314827
238817,-192,-487,61,193,1793,-8496,1745156221063314827
239009,-121,-417,67,-88,1708,-8761,1745156221063314827
239201,-72,-327,56,-244,1673,-9074,1745156221063314827
239393,-52,-224,40,-279,1689,-9144,1745156221063314827
239585,-55,-108,25,-213,1751,-8948,1745156221088951885
239777,-34,1,18,-67,1921,-8899,1745156221088951885
239969,26,76,16,234,2063,-8958,1745156221088951885
240161,110,95,4,633,1974,-9121,1745156221088951885
240353,190,72,-18,991,1592,-9237,1745156221088951885
240545,247,21,-32,1225,984,-9250,1745156221088951885
240737,269,-28,-24,1328,317,-9112,1745156221088951885
240929,253,-62,9,1258,-238,-8876,1745156221088951885
241121,213,-82,50,1004,-583,-8625,1745156221088951885
241313,156,-90,82,692,-730,-8403,1745156221088951885
241505,91,-87,94,377,-731,-8307,1745156221088951885
241697,23,-73,85,99,-590,-8253,1745156221088951885
241889,-44,-49,61,-77,-334,-8226,1745156221156185437
242081,-102,-14,32,-101,-20,-8176,1745156221156185437
242273,-143,23,6,-10,370,-8112,1745156221156185437
242465,-162,54,-9,203,768,-8023,1745156221156185437
242657,-152,76,-9,443,1122,-7908,1745156221156185437
242849,-115,87,-2,706,1392,-7832,1745156221156185437
243041,-64,86,7,912,1534,-7759,1745156221156185437
243233,-6,74,15,1092,1562,-7736,1745156221156185437
243425,50,52,19,1161,1435,-7797,1745156221156185437
243617,93,24,22,1153,1226,-7868,1745156221156185437
243809,120,-2,18,1102,948,-7918,1745156221156185437
244001,131,-26,10,997,692,-7931,1745156221156185437
244193,125,-42,4,873,465,-7950,1745156221212978252
244385,107,-47,0,727,338,-8000,1745156221212978252
244577,80,-43,-1,614,232,-8055,1745156221212978252
244769,49,-33,-1,533,175,-8090,1745156221212978252
244961,20,-24,-1,494,131,-8145,1745156221212978252
245153,-5,-17,-6,511,129,-8177,1745156221212978252
245345,-25,-12,-12,494,159,-8242,1745156221212978252
245537,-37,-9,-14,530,249,-8282,1745156221212978252
245729,-48,-7,-15,560,364,-8311,1745156221212978252
245921,-57,-6,-15,573,474,-8344,1745156221212978252
246113,-60,-9,-13,577,601,-8333,1745156221212978252
246305,-57,-14,-8,554,699,-8325,1745156221212978252
246497,-51,-18,-3,543,782,-8288,1745156221268066134
246689,-44,-19,0,522,821,-8253,1745156221268066134
246881,-34,-18,2,496,855,-8177,1745156221268066134
247073,-23,-19,3,465,903,-8126,1745156221268066134
247265,-15,-20,4,459,908,-8055,1745156221268066134
247457,-12,-19,5,457,900,-8021,1745156221268066134
247649,-10,-18,5,468,857,-7973,1745156221268066134
247841,-9,-15,4,485,779,-7954,1745156221268066134
248033,-7,-15,4,497,707,-7951,1745156221268066134
248225,-3,-16,4,521,619,-7952,1745156221268066134
248417,1,-16,4,537,573,-7954,1745156221268066134
248609,1,-14,4,522,545,-7988,1745156221268066134
248801,0,-14,5,531,533,-8021,1745156221324017550
248993,-1,-15,7,536,521,-8076,1745156221324017550
249185,-1,-14,8,517,544,-8157,1745156221324017550
249377,-1,-14,6,534,551,-8208,1745156221324017550
249569,-3,-13,1,554,565,-8273,1745156221324017550
249761,-5,-12,-2,544,588,-8280,1745156221324017550
249953,-7,-12,-5,539,599,-8242,1745156221324017550
250145,-12,-11,-4,532,611,-8227,1745156221324017550
250337,-21,-6,-4,531,652,-8184,1745156221324017550
250529,-26,1,-3,538,665,-8128,1745156221324017550
250721,-22,5,-3,551,618,-8102,1745156221324017550
250913,-12,3,-7,547,577,-8133,1745156221324017550
251105,-4,-4,-11,528,536,-8136,1745156221384959129
251297,2,-8,-16,496,520,-8133,1745156221384959129
251489,4,-8,-18,439,535,-8115,1745156221384959129
251681,0,-1,-18,403,580,-8108,1745156221384959129
251873,-8,9,-17,392,639,-8115,1745156221384959129
252065,-15,16,-14,417,665,-8108,1745156221384959129
252257,-16,20,-15,445,722,-8080,1745156221384959129
252449,-11,23,-17,482,740,-8083,1745156221384959129
252641,-5,24,-22,516,743,-8096,1745156221384959129
252833,-4,23,-24,541,715,-8105,1745156221384959129
253025,-5,21,-23,536,696,-8122,1745156221384959129
253217,-7,18,-21,530,659,-8143,1745156221384959129
253409,-9,17,-21,515,592,-8077,1745156221440697109
253601,3,-2,-7,-916,217,-5471,1745156221440697109
253793,-606,146,5,-1929,-6328,-9408,1745156221440697109
253985,-1345,410,-278,-401,-8193,-8941,1745156221440697109
254177,-1110,192,-314,708,-783,-7013,1745156221440697109
254369,-800,274,-94,-617,4289,-6077,1745156221440697109
254561,-521,394,70,-532,4676,-6920,1745156221440697109
254753,-412,425,-4,1009,3417,-7456,1745156221440697109
254945,-381,403,-154,2056,2868,-7647,1745156221440697109
255137,-252,223,-203,2623,2540,-7649,1745156221440697109
255329,-58,40,-166,2973,2220,-7813,1745156221440697109
255521,129,-77,-103,2703,1951,-7826,1745156221440697109
256097,453,-254,20,734,2994,-8932,1745156222647216921
300449,-111,84,8,430,555,-7546,1745156222647216921
300641,-34,-18,-5,396,433,-8354,1745156222647216921
300833,-10,-24,-4,362,786,-7970,1745156222647216921
301025,8,-2,9,380,732,-8141,1745156222647216921
301217,-4,-21,9,397,709,-8103,1745156222647216921
301409,6,-5,8,403,697,-8044,1745156222647216921
301601,10,-6,5,353,682,-8063,1745156222647216921
301793,10,-7,4,349,703,-8025,1745156222647216921
301985,18,7,8,346,701,-8022,1745156222647216921
302177,19,2,10,349,724,-8042,1745156222647216921
302369,22,4,11,385,758,-8073,1745156222647216921
302561,24,5,11,415,758,-8076,1745156222698092133
302753,21,-2,10,453,721,-8072,1745156222698092133
302945,25,-4,9,478,723,-8052,1745156222698092133
303137,26,-10,9,484,712,-8062,1745156222698092133
303329,27,-17,11,467,685,-8087,1745156222698092133
303521,26,-19,10,443,635,-8114,1745156222698092133
303713,22,-23,9,412,658,-8139,1745156222698092133
303905,23,-26,9,394,699,-8158,1745156222698092133
304097,25,-26,9,418,698,-8177,1745156222698092133
304289,28,-28,9,426,671,-8207,1745156222698092133
304481,28,-28,9,397,656,-8243,1745156222698092133
304673,26,-20,7,330,664,-8286,1745156222698092133
304865,28,-8,5,260,715,-8289,1745156222754970312
305057,35,3,5,318,777,-8280,1745156222754970312
305249,44,6,7,414,854,-8302,1745156222754970312
305441,47,3,8,484,724,-8317,1745156222754970312
305633,41,1,2,509,815,-8315,1745156222754970312
305825,53,-3,1,479,906,-8279,1745156222754970312
306017,66,2,5,376,929,-8266,1745156222754970312
306209,83,9,6,318,907,-8258,1745156222754970312
306401,94,18,8,281,771,-8284,1745156222754970312
306593,94,28,8,339,707,-8278,1745156222754970312
306785,106,32,6,404,775,-8205,1745156222754970312
306977,125,-10,3,277,-39,-8255,1745156222754970312
307169,168,28,12,750,1718,-8213,1745156222806915774
307361,252,-9,73,624,1982,-7761,1745156222806915774
307553,297,10,95,563,1206,-8281,1745156222806915774
307745,331,14,59,612,398,-8137,1745156222806915774
307937,390,-7,6,513,329,-8123,1745156222806915774
308129,394,15,-15,363,93,-8327,1745156222806915774
308321,2,22,-25,555,-4154,-8734,1745156222806915774
308513,-645,44,-102,924,-5229,-8239,1745156222806915774
308705,-811,56,-149,809,-3630,-8341,1745156222806915774
308897,-974,40,-132,697,-1716,-8152,1745156222806915774
309089,-1020,74,-130,326,663,-7802,1745156222806915774
309281,-940,90,-130,182,2553,-7672,1745156222806915774
309473,-728,86,-162,331,3668,-7376,1745156222866514345
309665,-468,78,-199,592,4037,-7241,1745156222866514345
309857,-225,55,-200,907,3601,-7553,1745156222866514345
310049,-34,15,-167,1226,2697,-7979,1745156222866514345
310241,77,-24,-122,1413,1673,-8322,1745156222866514345
310433,102,-56,-86,1430,818,-8531,1745156222866514345
310625,68,-78,-70,1242,280,-8556,1745156222866514345
310817,-3,-75,-72,965,125,-8543,1745156222866514345
311009,-88,-62,-81,724,235,-8684,1745156222866514345
311201,-179,-45,-98,557,505,-8704,1745156222866514345
311393,-249,-30,-106,487,857,-8624,1745156222866514345
311585,-297,-22,-103,448,1118,-8644,1745156222866514345
311777,-324,-17,-96,430,1260,-8828,1745156222923989288
311969,-339,-13,-92,443,1259,-9085,1745156222923989288
312161,-349,-10,-91,485,1124,-9243,1745156222923989288
312353,-357,4,-91,518,1031,-9313,1745156222923989288
312545,-351,25,-82,493,1050,-9271,1745156222923989288
312737,-318,52,-65,481,1192,-9192,1745156222923989288
312929,-260,76,-44,515,1384,-9034,1745156222923989288
313121,-191,91,-24,614,1483,-8949,1745156222923989288
313313,-112,97,-15,735,1442,-9055,1745156222923989288
313505,-29,88,-22,905,1311,-9083,1745156222923989288
313697,45,74,-40,1111,1095,-8975,1745156222923989288
313889,103,59,-68,1300,849,-8811,1745156222923989288
314081,146,55,-95,1444,595,-8616,1745156223003014452
314273,171,58,-116,1467,379,-8518,1745156223003014452
314465,186,68,-131,1424,251,-8627,1745156223003014452
314657,203,83,-144,1403,279,-8760,1745156223003014452
314849,225,114,-177,1395,412,-8963,1745156223003014452
315041,246,146,-223,1380,594,-8971,1745156223003014452
315233,287,176,-265,1374,739,-9002,1745156223003014452
315425,339,202,-289,1455,808,-9182,1745156223003014452
315617,390,219,-289,1581,830,-9245,1745156223003014452
315809,422,238,-278,1699,851,-9420,1745156223003014452
316001,422,239,-263,2000,772,-9412,1745156223003014452
316193,413,207,-257,2231,651,-9513,1745156223003014452
316385,414,149,-255,2476,564,-9848,1745156223053467585
316577,429,67,-258,2734,477,-9869,1745156223053467585
316769,455,-22,-275,2945,315,-9639,1745156223053467585
316961,480,-94,-287,3080,24,-9343,1745156223053467585
317153,494,-171,-293,3185,-315,-9225,1745156223053467585
317345,452,-243,-301,3269,-760,-9213,1745156223053467585
317537,375,-298,-299,3447,-1050,-9384,1745156223053467585
317729,264,-356,-288,3616,-1247,-9493,1745156223053467585
317921,104,-436,-269,3859,-1275,-9645,1745156223053467585
318113,-107,-500,-242,4121,-1044,-9433,1745156223053467585
318305,-293,-576,-275,4090,-561,-9081,1745156223053467585
318497,-437,-625,-287,4256,181,-8708,1745156223053467585
318689,-544,-659,-227,4342,852,-8469,1745156223099960181
318881,-487,-784,-169,4292,1289,-8260,1745156223099960181
319073,-289,-981,-132,4158,1315,-7949,1745156223099960181
319265,-68,-1163,-103,4000,876,-7997,1745156223099960181
319457,93,-1313,-88,3847,-5,-8271,1745156223099960181
319649,187,-1439,-72,3747,-1038,-8603,1745156223099960181
319841,236,-1553,-24,3626,-1853,-9004,1745156223099960181
320033,238,-1664,49,3424,-2313,-8946,1745156223099960181
320225,232,-1751,102,3201,-2338,-8578,1745156223099960181
320417,235,-1805,104,2862,-2048,-8264,1745156223099960181
320609,238,-1855,77,2557,-1776,-7923,1745156223099960181
320801,231,-1895,69,2292,-1771,-7752,1745156223099960181
320993,204,-1921,103,2010,-1978,-7739,1745156223161176132
321185,150,-1934,186,1793,-2379,-7729,1745156223161176132
321377,85,-1930,283,1589,-2652,-7832,1745156223161176132
321569,-1,-1906,380,1449,-2759,-7766,1745156223161176132
321761,-76,-1875,464,1253,-2608,-7702,1745156223161176132
321953,-125,-1816,530,1047,-2207,-7730,1745156223161176132
322145,-160,-1724,596,878,-1741,-7631,1745156223161176132
322337,-178,-1636,650,781,-1354,-7445,1745156223161176132
322529,-182,-1556,711,694,-1100,-7155,1745156223161176132
322721,-164,-1480,787,708,-1097,-7051,1745156223161176132
322913,-142,-1397,868,642,-1195,-6886,1745156223161176132
323105,-116,-1311,955,514,-1381,-6735,1745156223161176132
323297,-101,-1216,1044,358,-1597,-6663,1745156223240032808
323489,-110,-1113,1128,121,-1822,-6454,1745156223240032808
323681,-125,-1023,1203,-133,-2001,-6395,1745156223240032808
323873,-152,-935,1269,-339,-2100,-6349,1745156223240032808
324065,-192,-835,1337,-559,-2114,-6257,1745156223240032808
324257,-237,-726,1412,-744,-2067,-6113,1745156223240032808
324449,-272,-610,1490,-883,-1897,-5963,1745156223240032808
324641,-301,-487,1574,-956,-1709,-5717,1745156223240032808
324833,-320,-363,1663,-1000,-1463,-5469,1745156223240032808
325025,-323,-241,1752,-988,-1254,-5276,1745156223240032808
325217,-314,-114,1833,-950,-1072,-5171,1745156223240032808
325409,-295,9,1908,-819,-953,-5082,1745156223240032808
325601,-277,126,1974,-723,-876,-4893,1745156223271011327
325793,-257,222,2033,-568,-796,-4764,1745156223271011327
325985,-247,312,2088,-461,-706,-4569,1745156223271011327
326177,-238,397,2142,-442,-619,-4374,1745156223271011327
326369,-220,478,2193,-474,-500,-4253,1745156223271011327
326561,-191,558,2240,-553,-358,-4160,1745156223271011327
326753,-153,641,2287,-683,-204,-4173,1745156223271011327
326945,-105,729,2333,-818,-33,-4255,1745156223271011327
327137,-46,831,2383,-940,175,-4411,1745156223271011327
327329,23,948,2438,-998,424,-4676,1745156223271011327
327521,102,1082,2496,-1034,746,-4923,1745156223271011327
327713,184,1226,2558,-966,1108,-5033,1745156223271011327
327905,259,1371,2621,-794,1420,-5007,1745156223335740162
328097,321,1509,2680,-541,1657,-4912,1745156223335740162
328289,369,1636,2735,-305,1838,-4853,1745156223335740162
328481,416,1748,2787,-95,1988,-4821,1745156223335740162
328673,464,1851,2838,38,2112,-4786,1745156223335740162
328865,524,1938,2883,167,2288,-4894,1745156223335740162
329057,567,2037,2925,295,2487,-5035,1745156223335740162
329249,583,2154,2964,354,2666,-5009,1745156223335740162
329441,589,2268,2997,359,2805,-4957,1745156223335740162
329633,605,2379,3030,455,3098,-5494,1745156223335740162
329825,591,2535,3070,391,3254,-5461,1745156223335740162
330017,599,2663,3105,483,3503,-5442,1745156223335740162
330209,592,2778,3136,593,3688,-5221,1745156223392545581
330401,565,2892,3160,728,3703,-4945,1745156223392545581
330593,538,2997,3178,911,3573,-4754,1745156223392545581
330785,527,3101,3182,1068,3384,-4716,1745156223392545581
330977,526,3210,3170,1230,3236,-4660,1745156223392545581
331169,536,3314,3133,1471,3107,-4579,1745156223392545581
331361,537,3405,3067,1779,2951,-4455,1745156223392545581
331553,527,3481,2973,2189,2741,-4297,1745156223392545581
331745,531,3539,2856,2633,2556,-4172,1745156223392545581
331937,571,3583,2722,3043,2510,-4132,1745156223392545581
332129,652,3627,2573,3454,2639,-4174,1745156223392545581
332321,754,3679,2408,3877,2984,-4276,1745156223392545581
332513,862,3729,2226,4332,3465,-4352,1745156223467363804
332705,963,3759,2027,4802,4023,-4370,1745156223467363804
332897,1048,3781,1824,5203,4593,-4511,1745156223467363804
333089,1132,3803,1639,5552,5191,-4740,1745156223467363804
333281,1220,3816,1487,5943,5737,-4919,1745156223467363804
333473,1304,3811,1362,6403,6146,-5013,1745156223467363804
333665,1376,3777,1255,6875,6335,-5097,1745156223467363804
333857,1432,3711,1167,7323,6267,-5159,1745156223467363804
334049,1480,3617,1098,7693,5926,-5181,1745156223467363804
334241,1531,3525,1049,7944,5443,-5265,1745156223467363804
334433,1581,3430,1008,8008,4931,-5431,1745156223467363804
334625,1618,3339,958,7943,4430,-5594,1745156223467363804
334817,1623,3271,887,7737,3958,-5681,1745156223508208118
335009,1588,3222,790,7503,3479,-5723,1745156223508208118
335201,1521,3190,675,7277,3032,-5729,1745156223508208118
335393,1429,3178,558,7056,2667,-5694,1745156223508208118
335585,1319,3184,447,6898,2392,-5631,1745156223508208118
335777,1192,3211,338,6813,2256,-5572,1745156223508208118
335969,1052,3248,226,6905,2219,-5515,1745156223508208118
336161,901,3288,108,7092,2256,-5383,1745156223508208118
336353,750,3323,-6,7380,2332,-5189,1745156223508208118
336545,612,3350,-113,7679,2465,-5037,1745156223508208118
336737,497,3369,-208,7994,2663,-5099,1745156223508208118
336929,405,3377,-295,8281,2941,-5302,1745156223508208118
337121,335,3377,-375,8542,3308,-5500,1745156223567161590
337313,278,3365,-451,8778,3659,-5527,1745156223567161590
337505,232,3342,-525,9025,3910,-5422,1745156223567161590
337697,202,3309,-596,9229,4011,-5330,1745156223567161590
337889,195,3269,-665,9404,4003,-5293,1745156223567161590
338081,200,3226,-731,9525,3908,-5311,1745156223567161590
338273,214,3180,-794,9601,3777,-5341,1745156223567161590
338465,237,3128,-861,9687,3591,-5338,1745156223567161590
338657,264,3070,-934,9739,3391,-5222,1745156223567161590
338849,303,3001,-1008,9815,3167,-5096,1745156223567161590
339041,349,2928,-1084,9906,2953,-4986,1745156223567161590
339233,387,2853,-1168,10041,2789,-4905,1745156223567161590
339425,406,2777,-1259,10129,2651,-4846,1745156223625718920
339617,415,2702,-1345,10169,2586,-4821,1745156223625718920
339809,415,2629,-1422,10213,2554,-4817,1745156223625718920
340001,398,2578,-1490,10214,2585,-4892,1745156223625718920
340193,349,2555,-1550,10094,2594,-4624,1745156223625718920
340385,314,2501,-1595,10057,2623,-4572,1745156223625718920
340577,278,2436,-1627,10048,2558,-4492,1745156223625718920
340769,252,2376,-1644,10111,2437,-4667,1745156223625718920
340961,214,2332,-1645,10120,2247,-4639,1745156223625718920
341153,173,2292,-1643,10130,2061,-4596,1745156223625718920
341345,125,2255,-1645,10082,1886,-4594,1745156223625718920
341537,61,2228,-1654,10018,1707,-4518,1745156223625718920
341729,-3,2208,-1673,9939,1549,-4467,1745156223685437593
341921,-56,2185,-1697,9801,1428,-4465,1745156223685437593
342113,-87,2156,-1713,9679,1355,-4418,1745156223685437593
342305,-105,2127,-1726,9602,1382,-4388,1745156223685437593
342497,-125,2105,-1746,9556,1459,-4329,1745156223685437593
342689,-152,2088,-1775,9548,1612,-4244,1745156223685437593
342881,-177,2072,-1808,9547,1751,-4132,1745156223685437593
343073,-190,2056,-1835,9526,1966,-4002,1745156223685437593
343265,-191,2039,-1858,9543,2238,-3888,1745156223685437593
343457,-193,2017,-1882,9564,2505,-3705,1745156223685437593
343649,-197,1995,-1909,9580,2734,-3537,1745156223685437593
343841,-200,1967,-1928,9574,2855,-3381,1745156223685437593
344033,-191,1935,-1937,9569,2861,-3286,1745156223772964918
344225,-175,1900,-1940,9582,2753,-3167,1745156223772964918
344417,-154,1869,-1940,9586,2624,-3114,1745156223772964918
344609,-137,1854,-1941,9494,2615,-3135,1745156223772964918
344801,-134,1854,-1941,9401,2627,-3090,1745156223772964918
344993,-141,1850,-1939,9338,2650,-3143,1745156223772964918
345185,-154,1845,-1938,9310,2630,-3171,1745156223772964918
345377,-160,1826,-1942,9337,2608,-3118,1745156223772964918
345569,-156,1802,-1955,9371,2550,-3092,1745156223772964918
345761,-149,1785,-1980,9400,2514,-3122,1745156223772964918
345953,-143,1762,-2014,9416,2470,-3104,1745156223772964918
346145,-134,1732,-2041,9364,2461,-2899,1745156223772964918
346337,-111,1705,-2063,9285,2540,-2709,1745156223799220929
346529,-88,1697,-2076,9194,2720,-2608,1745156223799220929
346721,-79,1696,-2073,9143,2918,-2462,1745156223799220929
346913,-74,1696,-2070,9148,3125,-2303,1745156223799220929
347105,-59,1679,-2075,9229,3284,-2122,1745156223799220929
347297,-37,1647,-2096,9336,3338,-1917,1745156223799220929
347489,-9,1604,-2122,9397,3286,-1703,1745156223799220929
347681,25,1557,-2129,9422,3223,-1684,1745156223799220929
347873,25,1514,-2121,9392,3091,-1711,1745156223799220929
348065,15,1477,-2115,9351,2943,-1636,1745156223799220929
348257,9,1442,-2114,9182,2792,-1521,1745156223799220929
348449,14,1412,-2101,8950,2733,-1391,1745156223799220929
348641,34,1391,-2074,8702,2754,-1283,1745156223877735993
348833,62,1385,-2037,8468,2840,-1276,1745156223877735993
349025,96,1391,-1990,8279,2993,-1163,1745156223877735993
349217,137,1396,-1941,8218,3131,-1140,1745156223877735993
349409,165,1398,-1899,8257,3185,-1121,1745156223877735993
349601,186,1388,-1851,8371,3205,-949,1745156223877735993
349793,211,1363,-1795,8515,3264,-730,1745156223877735993
349985,237,1333,-1746,8610,3333,-580,1745156223877735993
350177,265,1294,-1712,8649,3470,-436,1745156223877735993
350369,288,1245,-1688,8646,3630,-324,1745156223877735993
350561,299,1187,-1671,8643,3689,-333,1745156223877735993
350753,287,1122,-1667,8665,3593,-363,1745156223877735993
350945,252,1044,-1685,8587,3442,-225,1745156223919400299
351137,215,983,-1679,8389,3466,-131,1745156223919400299
351329,159,925,-1645,8209,3450,15,1745156223919400299
351521,106,881,-1628,8033,3506,102,1745156223919400299
351713,67,839,-1638,7986,3460,144,1745156223919400299
351905,24,805,-1672,7691,3530,71,1745156223919400299
352097,-21,794,-1678,7664,3482,-98,1745156223919400299
352289,-70,766,-1664,7611,3460,-182,1745156223919400299
352481,-126,728,-1637,7587,3542,-216,1745156223919400299
352673,-184,688,-1613,7526,3717,-161,1745156223919400299
352865,-243,657,-1591,7403,4046,-108,1745156223919400299
353057,-296,636,-1569,7175,4457,-101,1745156223919400299
353249,-336,613,-1547,7072,4805,-156,1745156223993039418
353441,-366,579,-1538,7047,5070,-177,1745156223993039418
353633,-370,544,-1527,6974,5245,-169,1745156223993039418
353825,-351,499,-1509,6931,5388,-126,1745156223993039418
354017,-327,461,-1491,6884,5515,-67,1745156223993039418
354209,-305,432,-1470,6874,5637,-33,1745156223993039418
354401,-283,411,-1445,6866,5704,7,1745156223993039418
354593,-252,381,-1417,6868,5677,50,1745156223993039418
354785,-213,349,-1399,6869,5673,128,1745156223993039418
354977,-174,312,-1393,6890,5606,167,1745156223993039418
355169,-153,273,-1400,6886,5541,186,1745156223993039418
355361,-151,243,-1416,6900,5459,281,1745156223993039418
355553,-151,211,-1426,6874,5349,383,1745156224036822143
355745,-155,182,-1444,6788,5245,357,1745156224036822143
355937,-170,153,-1462,6705,5184,338,1745156224036822143
356129,-193,120,-1464,6660,5263,289,1745156224036822143
356321,-226,92,-1462,6639,5177,253,1745156224036822143
356513,-263,60,-1475,6590,5110,274,1745156224036822143
356705,-304,35,-1481,6437,5130,309,1745156224036822143
356897,-347,15,-1470,6232,5228,350,1745156224036822143
357089,-384,5,-1450,6044,5381,442,1745156224036822143
357281,-414,9,-1439,5920,5599,526,1745156224036822143
357473,-434,24,-1432,5777,5897,624,1745156224036822143
357665,-437,42,-1406,5687,6175,750,1745156224036822143
357857,-419,55,-1374,5680,6401,875,1745156224099224230
358049,-385,67,-1351,5707,6547,882,1745156224099224230
358241,-350,71,-1348,5796,6481,875,1745156224099224230
358433,-311,64,-1359,5841,6329,959,1745156224099224230
358625,-270,53,-1354,5817,6259,1018,1745156224099224230
358817,-239,52,-1334,5751,6283,1053,1745156224099224230
359009,-220,58,-1311,5716,6316,1049,1745156224099224230
359201,-207,57,-1298,5776,6310,1077,1745156224099224230
359393,-201,60,-1299,5841,6289,1082,1745156224099224230
359585,-204,70,-1300,5862,6295,1074,1745156224099224230
359777,-211,68,-1286,5865,6221,1130,1745156224099224230
359969,-197,60,-1262,5862,6243,1193,1745156224099224230
360161,-176,50,-1249,5831,6266,1240,1745156224155910431
360353,-155,34,-1245,5814,6264,1222,1745156224155910431
360545,-136,15,-1241,5773,6229,1223,1745156224155910431
360737,-125,-13,-1232,5738,6206,1227,1745156224155910431
360929,-119,-42,-1223,5607,6170,1220,1745156224155910431
361121,-113,-72,-1214,5461,6136,1187,1745156224155910431
361313,-106,-102,-1208,5313,6103,1177,1745156224155910431
361505,-111,-121,-1204,5140,6107,1131,1745156224155910431
361697,-140,-128,-1195,4984,6103,1127,1745156224155910431
361889,-165,-125,-1175,4895,6063,1143,1745156224155910431
362081,-190,-119,-1147,4908,6036,1164,1745156224155910431
362273,-222,-121,-1109,5034,5772,1050,1745156224155910431
362465,-269,-132,-1062,5066,5729,1118,1745156224212447570
362657,-270,-118,-1055,4969,6364,1249,1745156224212447570
362849,-267,-121,-1078,4884,6505,1299,1745156224212447570
363041,-265,-137,-1054,4943,6295,1293,1745156224212447570
363233,-271,-152,-989,5021,5970,1256,1745156224212447570
363425,-283,-153,-938,4997,6060,1244,1745156224212447570
363617,-286,-153,-938,4897,6440,1308,1745156224212447570
363809,-269,-145,-957,4697,6852,1406,1745156224212447570
364001,-217,-137,-962,4636,7026,1568,1745156224212447570
364193,-176,-146,-937,4744,6998,1776,1745156224212447570
364385,-128,-159,-908,4806,6820,1818,1745156224212447570
364577,-77,-177,-889,4802,6856,2049,1745156224212447570
364769,27,-163,-941,4580,7560,1903,1745156224280138306
364961,67,-225,-960,4604,6535,1770,1745156224280138306
365153,39,-263,-885,4649,5576,1744,1745156224280138306
365345,12,-265,-832,4433,5333,1640,1745156224280138306
365537,-47,-255,-814,4120,5427,1560,1745156224280138306
365729,-104,-246,-798,3977,5535,1600,1745156224280138306
365921,-147,-237,-765,3999,5555,1626,1745156224280138306
366113,-209,-238,-712,4164,5386,1549,1745156224280138306
366305,-262,-236,-656,4158,5510,1558,1745156224280138306
366497,-281,-241,-626,4107,5789,1601,1745156224280138306
366689,-282,-247,-607,3973,6159,1676,1745156224280138306
366881,-263,-239,-587,3809,6520,1680,1745156224280138306
367073,-218,-233,-554,3786,6780,1898,1745156224334132813
367265,-129,-201,-551,3755,6839,1534,1745156224334132813
367457,-106,-267,-498,4272,6095,1627,1745156224334132813
367649,-86,-287,-433,4390,5796,1654,1745156224334132813
367841,-47,-296,-402,4006,6179,1914,1745156224334132813
368033,-27,-299,-399,3794,6310,1713,1745156224334132813
368225,-25,-331,-364,3797,6150,1908,1745156224334132813
368417,-22,-328,-319,3800,5917,1844,1745156224334132813
368609,-30,-320,-281,3785,5914,1850,1745156224334132813
368801,-39,-303,-262,3714,6104,1890,1745156224334132813
368993,-47,-297,-247,3677,6333,1967,1745156224334132813
369185,-54,-287,-226,3700,6476,1978,1745156224334132813
369377,-54,-272,-204,3656,6599,1917,1745156224385548229
369569,-51,-261,-184,3652,6666,1844,1745156224385548229
369761,-42,-250,-169,3647,6698,1796,1745156224385548229
369953,-30,-247,-154,3675,6760,1908,1745156224385548229
370145,-20,-250,-139,3655,6910,2065,1745156224385548229
370337,-17,-241,-122,3572,7092,2119,1745156224385548229
370529,-14,-233,-100,3519,7207,2192,1745156224385548229
370721,-1,-226,-82,3487,7252,2264,1745156224385548229
370913,15,-217,-69,3406,7246,2329,1745156224385548229
371105,24,-202,-55,3352,7236,2320,1745156224385548229
371297,30,-187,-46,3286,7255,2323,1745156224385548229
371489,36,-167,-42,3279,7280,2304,1745156224385548229
371681,45,-147,-42,3296,7289,2309,1745156224445594191
371873,61,-132,-48,3305,7280,2278,1745156224445594191
372065,77,-120,-54,3322,7243,2222,1745156224445594191
372257,86,-116,-54,3348,7181,2230,1745156224445594191
372449,84,-112,-53,3318,7164,2200,1745156224445594191
372641,66,-103,-49,3278,7146,2110,1745156224445594191
372833,45,-98,-44,3279,7097,2095,1745156224445594191
373025,27,-99,-41,3258,7092,2149,1745156224445594191
373217,-2,-94,-37,3161,7150,2175,1745156224445594191
373409,-35,-81,-28,3066,7254,2188,1745156224445594191
373601,-53,-64,-18,2994,7375,2148,1745156224445594191
373793,-51,-43,-17,2953,7516,2075,1745156224445594191
373985,-43,-28,-17,2980,7562,2012,1745156224511581765
374177,-35,-17,-12,3048,7589,2010,1745156224511581765
374369,-26,-5,-6,3069,7660,2019,1745156224511581765
374561,-11,10,-1,3060,7763,1975,1745156224511581765
374753,16,20,5,3025,7823,1996,1745156224511581765
374945,50,29,13,3029,7834,2018,1745156224511581765
375137,87,33,20,3122,7784,1983,1745156224511581765
375329,116,30,24,3208,7635,1944,1745156224511581765
375521,125,21,29,3218,7499,1873,1745156224511581765
375713,110,21,39,3135,7337,1871,1745156224511581765
375905,95,18,50,3126,7338,1963,1745156224511581765
376097,88,13,46,3109,7393,1978,1745156224511581765
376289,76,8,40,3102,7369,1947,1745156224565715802
376481,59,0,39,3141,7296,1952,1745156224565715802
376673,29,-5,41,3129,7249,1922,1745156224565715802
376865,-15,2,44,3026,7196,1868,1745156224565715802
377057,-47,12,45,2980,7286,1826,1745156224565715802
377249,-53,22,35,3022,7447,1756,1745156224565715802
377441,-51,24,28,3069,7505,1646,1745156224565715802
377633,-48,27,31,3113,7509,1602,1745156224565715802
377825,-38,25,43,3188,7526,1618,1745156224565715802
378017,-23,18,53,3202,7617,1651,1745156224565715802
378209,-11,12,60,3176,7670,1657,1745156224565715802
378401,1,2,66,3153,7653,1744,1745156224565715802
378593,15,-9,72,3139,7670,1812,1745156224630669896
378785,26,-13,79,3108,7644,1787,1745156224630669896
378977,32,-17,81,3144,7640,1766,1745156224630669896
379169,35,-19,72,3167,7588,1697,1745156224630669896
379361,32,-20,65,3174,7550,1647,1745156224630669896
379553,31,-21,61,3239,7495,1601,1745156224630669896
379745,27,-25,55,3304,7461,1530,1745156224630669896
379937,18,-27,48,3343,7376,1482,1745156224630669896
380129,6,-32,43,3355,7337,1454,1745156224630669896
380321,-6,-37,42,3337,7322,1497,1745156224630669896
380513,-20,-38,42,3360,7342,1518,1745156224630669896
380705,-34,-38,49,3359,7362,1618,1745156224630669896
380897,-37,-36,60,3330,7369,1689,1745156224682983845
380897,-37,-36,60,3330,7369,1689,1745156224682983845
381089,-33,-32,72,3344,7314,1670,1745156224682983845
381281,-26,-24,86,3333,7263,1669,1745156224682983845
381473,-12,-14,98,3396,7282,1707,1745156224682983845
381665,1,-5,112,3511,7226,1685,1745156224682983845
381857,12,0,131,3622,7144,1658,1745156224682983845
382049,26,1,151,3741,6994,1644,1745156224682983845
382241,49,-2,167,3820,6920,1673,1745156224682983845
382433,75,-7,184,3888,6830,1663,1745156224682983845
382625,92,-17,214,3988,6623,1652,1745156224682983845
382817,105,-18,249,4008,6493,1715,1745156224682983845
383009,125,-10,275,4062,6365,1678,1745156224737186996
383201,141,-5,300,4102,6225,1737,1745156224737186996
383393,146,-7,332,4282,6010,1713,1745156224737186996
383585,142,-2,371,4352,5843,1714,1745156224737186996
383777,133,2,412,4515,5645,1697,1745156224737186996
383969,121,1,453,4579,5569,1737,1745156224737186996
384161,117,7,497,4654,5426,1668,1745156224737186996
384353,113,7,543,4688,5358,1653,1745156224737186996
384545,112,12,589,4772,5285,1593,1745156224737186996
384737,109,23,642,4845,5198,1487,1745156224737186996
384929,101,31,698,4988,5123,1487,1745156224737186996
385121,93,38,756,5115,5047,1552,1745156224737186996
385313,101,53,816,5155,5136,1562,1745156224821550965
385505,123,66,871,5249,5181,1503,1745156224821550965
385697,153,73,923,5413,5108,1446,1745156224821550965
385889,182,73,970,5608,4971,1343,1745156224821550965
386081,209,67,1022,5832,4767,1326,1745156224821550965
386273,242,55,1074,5979,4625,1270,1745156224821550965
386465,270,36,1121,5994,4583,1130,1745156224821550965
386657,294,16,1172,6027,4580,1094,1745156224821550965
386849,315,3,1219,6072,4626,1071,1745156224821550965
387041,326,-6,1271,6100,4667,993,1745156224821550965
387233,334,-14,1328,6173,4660,852,1745156224821550965
387425,343,-25,1385,6275,4600,624,1745156224821550965
387617,355,-42,1440,6431,4467,380,1745156224877782170
387809,360,-63,1496,6565,4320,73,1745156224877782170
388001,350,-84,1555,6745,4156,-210,1745156224877782170
388193,329,-109,1619,6918,3964,-446,1745156224877782170
388385,294,-143,1687,7121,3782,-631,1745156224877782170
388577,238,-177,1753,7309,3604,-843,1745156224877782170
388769,166,-207,1824,7445,3455,-987,1745156224877782170
388961,99,-228,1904,7523,3514,-1080,1745156224877782170
389153,55,-235,1988,7540,3862,-1228,1745156224877782170
389345,42,-239,2069,7642,4315,-1377,1745156224877782170
389537,57,-249,2137,7905,4707,-1475,1745156224877782170
389729,95,-272,2185,8215,4995,-1548,1745156224877782170
389921,137,-305,2236,8447,5149,-1627,1745156224909399641
390113,179,-346,2312,8613,5233,-1792,1745156224909399641
390305,214,-399,2395,8729,5249,-2009,1745156224909399641
390497,239,-454,2470,8808,5196,-2226,1745156224909399641
390689,257,-507,2532,8855,5053,-2369,1745156224909399641
390881,270,-564,2578,8771,4945,-2464,1745156224909399641
391073,285,-600,2658,8406,5235,-2527,1745156224909399641
391265,280,-638,2735,8939,4824,-2735,1745156224909399641
391457,244,-681,2694,9088,4688,-2814,1745156224909399641
391649,212,-735,2728,9030,4770,-2685,1745156224909399641
391841,175,-789,2796,9077,4890,-2542,1745156224909399641
392033,115,-844,2810,9118,4946,-2527,1745156224909399641
392225,48,-883,2795,9116,4965,-2635,1745156224974046134
392417,-21,-919,2797,9088,5048,-2698,1745156224974046134
392609,-74,-969,2820,9330,5054,-2844,1745156224974046134
392801,-125,-1014,2819,9607,5068,-3012,1745156224974046134
392993,-165,-1064,2800,9779,5203,-3245,1745156224974046134
393185,-182,-1120,2797,9925,5391,-3495,1745156224974046134
393377,-171,-1196,2801,10129,5580,-3717,1745156224974046134
393569,-141,-1288,2794,10304,5748,-3807,1745156224974046134
393761,-133,-1371,2787,10387,5829,-3785,1745156224974046134
393953,-171,-1470,2790,10419,5917,-3728,1745156224974046134
394145,-230,-1579,2830,10518,6249,-3775,1745156224974046134
394337,-117,-1743,2788,10406,7126,-3587,1745156224974046134
394529,31,-1855,2679,10018,7446,-3546,1745156225061019089
394721,97,-1902,2555,9636,7464,-3250,1745156225061019089
394913,149,-2000,2517,9428,7565,-2903,1745156225061019089
395105,224,-2076,2531,9382,7831,-2794,1745156225061019089
395297,298,-2141,2558,9504,8141,-2776,1745156225061019089
395489,370,-2213,2569,9715,8400,-2667,1745156225061019089
395681,450,-2293,2545,9961,8556,-2621,1745156225061019089
395873,551,-2392,2503,10228,8824,-2658,1745156225061019089
396065,662,-2518,2403,10271,9082,-2744,1745156225061019089
396257,792,-2626,2248,10233,8976,-2694,1745156225061019089
396449,952,-2709,2149,10247,8803,-2863,1745156225061019089
396641,1108,-2797,2089,10143,8664,-3143,1745156225061019089
396833,1224,-2868,2039,9990,8295,-3316,1745156225098694631
397025,1298,-2936,2006,9867,8114,-3613,1745156225098694631
397217,1358,-3012,1932,9615,7895,-3693,1745156225098694631
397409,1395,-3047,1875,9464,7702,-3837,1745156225098694631
397601,1396,-3115,1822,9391,7449,-3851,1745156225098694631
397793,1363,-3159,1738,9251,7203,-3884,1745156225098694631
397985,1306,-3201,1642,9115,7099,-3886,1745156225098694631
398177,1240,-3238,1554,8962,7030,-3849,1745156225098694631
398369,1169,-3280,1477,9055,7044,-3754,1745156225098694631
398561,1091,-3318,1397,9085,7142,-3637,1745156225098694631
398753,1010,-3348,1318,9067,7333,-3555,1745156225098694631
398945,937,-3376,1243,9094,7598,-3494,1745156225098694631
399137,880,-3409,1176,9238,7867,-3453,1745156225151138943
399329,845,-3451,1108,9249,7996,-3417,1745156225151138943
399521,826,-3500,1026,9507,7962,-3401,1745156225151138943
399713,829,-3570,945,9595,8030,-3334,1745156225151138943
399905,851,-3626,876,9666,7802,-3254,1745156225151138943
400097,883,-3698,796,9628,7560,-3236,1745156225151138943
400289,915,-3750,705,9604,7320,-3256,1745156225151138943
400481,947,-3801,618,9513,7098,-3326,1745156225151138943
400673,967,-3859,541,9307,6784,-3367,1745156225151138943
400865,974,-3906,472,8975,6485,-3443,1745156225151138943
401057,965,-3945,411,8629,6281,-3590,1745156225151138943
401249,937,-3949,352,8310,6065,-3735,1745156225151138943
401441,886,-3933,279,8044,5937,-3800,1745156225205919485
401633,820,-3915,206,7886,5847,-3843,1745156225205919485
401825,751,-3889,133,7762,5673,-3866,1745156225205919485
402017,692,-3873,54,7719,5612,-3842,1745156225205919485
402209,650,-3859,-16,7626,5568,-3731,1745156225205919485
402401,617,-3837,-75,7567,5490,-3661,1745156225205919485
402593,589,-3812,-132,7541,5447,-3720,1745156225205919485
402785,563,-3784,-186,7481,5418,-3812,1745156225205919485
402977,539,-3764,-237,7388,5390,-3895,1745156225205919485
403169,527,-3736,-289,7267,5404,-3917,1745156225205919485
403361,524,-3712,-336,7140,5350,-3962,1745156225205919485
403553,529,-3699,-392,6991,5251,-3966,1745156225205919485
403745,541,-3679,-455,6837,5152,-4064,1745156225287164472
403937,560,-3655,-515,6627,5052,-4133,1745156225287164472
404129,587,-3641,-570,6442,4917,-4161,1745156225287164472
404321,620,-3629,-611,6224,4751,-4162,1745156225287164472
404513,652,-3603,-654,5986,4471,-4183,1745156225287164472
404705,688,-3581,-707,5706,4255,-4188,1745156225287164472
404897,731,-3551,-755,5406,4054,-4215,1745156225287164472
405089,771,-3513,-800,5112,3868,-4325,1745156225287164472
405281,804,-3474,-844,4859,3672,-4401,1745156225287164472
405473,828,-3438,-881,4680,3433,-4500,1745156225287164472
405665,844,-3392,-917,4540,3231,-4588,1745156225287164472
405857,847,-3342,-954,4389,3070,-4668,1745156225287164472
406049,833,-3285,-995,4298,2888,-4679,1745156225317264457
406241,806,-3229,-1028,4220,2790,-4627,1745156225317264457
406433,776,-3163,-1049,4067,2600,-4623,1745156225317264457
406625,747,-3089,-1083,3846,2418,-4737,1745156225317264457
406817,724,-3010,-1127,3609,2323,-4837,1745156225317264457
407009,702,-2931,-1167,3387,2181,-4883,1745156225317264457
407201,675,-2855,-1212,3222,2065,-4932,1745156225317264457
407393,646,-2780,-1250,3050,1901,-4965,1745156225317264457
407585,618,-2708,-1284,2866,1777,-4985,1745156225317264457
407777,593,-2641,-1303,2723,1658,-5023,1745156225317264457
407969,573,-2578,-1320,2608,1580,-5038,1745156225317264457
408161,562,-2518,-1327,2443,1588,-4933,1745156225317264457
408353,551,-2474,-1328,2281,1580,-4867,1745156225380728825
408545,544,-2428,-1334,2140,1557,-4928,1745156225380728825
408737,529,-2370,-1360,1915,1579,-4958,1745156225380728825
408929,513,-2311,-1385,1715,1583,-4811,1745156225380728825
409121,496,-2237,-1400,1457,1612,-4750,1745156225380728825
409313,480,-2148,-1402,1221,1631,-4824,1745156225380728825
409505,469,-2059,-1405,1051,1580,-4956,1745156225380728825
409697,456,-1965,-1414,939,1548,-5065,1745156225380728825
409889,441,-1887,-1423,912,1483,-5159,1745156225380728825
410081,426,-1822,-1430,924,1356,-5122,1745156225380728825
410273,406,-1753,-1443,889,1213,-5107,1745156225380728825
410465,385,-1676,-1461,844,1057,-5130,1745156225380728825
410657,376,-1602,-1474,738,965,-5080,1745156225457025472
410849,373,-1484,-1483,634,952,-5146,1745156225457025472
411041,313,-1462,-1495,624,780,-5449,1745156225457025472
411233,274,-1371,-1545,388,583,-5406,1745156225457025472
411425,239,-1301,-1586,103,379,-5538,1745156225457025472
411617,228,-1230,-1580,-32,315,-5657,1745156225457025472
411809,228,-1159,-1515,-24,367,-5745,1745156225457025472
412001,225,-1106,-1418,9,420,-5821,1745156225457025472
412193,216,-1045,-1335,47,510,-5916,1745156225457025472
412385,203,-986,-1282,13,584,-5929,1745156225457025472
412577,198,-934,-1271,-46,648,-5972,1745156225457025472
412769,199,-864,-1293,-161,784,-6162,1745156225457025472
412961,191,-757,-1314,-397,956,-6209,1745156225511755076
413153,217,-673,-1303,-455,1268,-6399,1745156225511755076
413345,209,-554,-1257,-332,1421,-6777,1745156225511755076
413537,198,-428,-1203,-210,1469,-6731,1745156225511755076
413729,228,-369,-1137,57,1532,-6821,1745156225511755076
413921,252,-315,-1079,279,1403,-6826,1745156225511755076
414113,272,-265,-1049,443,1222,-6885,1745156225511755076
414305,285,-220,-1043,529,993,-7010,1745156225511755076
414497,285,-180,-1045,577,680,-7016,1745156225511755076
414689,280,-155,-1040,580,325,-7070,1745156225511755076
414881,259,-132,-1032,515,-41,-7080,1745156225511755076
415073,224,-109,-1019,374,-385,-7000,1745156225511755076
415265,179,-77,-1002,275,-652,-6958,1745156225562932838
415457,124,-38,-987,139,-848,-6911,1745156225562932838
415649,63,1,-979,38,-1016,-6826,1745156225562932838
415841,1,37,-977,-71,-1086,-6821,1745156225562932838
416033,-70,90,-971,-203,-1094,-6755,1745156225562932838
416225,-129,137,-960,-270,-947,-6697,1745156225562932838
416417,-183,194,-944,-275,-752,-6640,1745156225562932838
416609,-230,253,-926,-230,-524,-6658,1745156225562932838
416801,-262,311,-903,-106,-280,-6634,1745156225562932838
416993,-267,355,-870,45,-91,-6712,1745156225562932838
417185,-253,387,-830,206,-14,-6756,1745156225562932838
417377,-207,395,-795,495,27,-6943,1745156225562932838
417569,-174,402,-772,736,-75,-7030,1745156225615996364
417761,-139,406,-759,899,-162,-7204,1745156225615996364
417953,-121,410,-746,990,-312,-7288,1745156225615996364
418145,-98,408,-730,1041,-364,-7419,1745156225615996364
418337,-79,401,-700,1037,-403,-7477,1745156225615996364
418529,-69,407,-669,1034,-513,-7501,1745156225615996364
418721,-56,407,-644,1046,-587,-7654,1745156225615996364
418913,-60,423,-616,991,-735,-7785,1745156225615996364
419105,-71,449,-589,953,-865,-7948,1745156225615996364
419297,-94,469,-562,950,-977,-7987,1745156225615996364
419489,-125,480,-532,915,-1089,-8059,1745156225615996364
419681,-163,490,-496,877,-1137,-8123,1745156225615996364
419873,-198,513,-454,890,-1084,-7981,1745156225671325598
420065,-228,524,-400,910,-920,-7988,1745156225671325598
420257,-275,539,-352,878,-849,-7825,1745156225671325598
420449,-300,554,-319,876,-722,-7818,1745156225671325598
420641,-315,569,-287,883,-654,-7755,1745156225671325598
420833,-299,579,-254,893,-543,-7735,1745156225671325598
421025,-282,603,-222,913,-536,-7777,1745156225671325598
421217,-252,604,-204,1041,-532,-7734,1745156225671325598
421409,-221,595,-202,1161,-561,-7731,1745156225671325598
421601,-214,601,-212,1289,-686,-7641,1745156225671325598
421793,-199,589,-220,1381,-817,-7517,1745156225671325598
421985,-168,550,-222,1413,-802,-7612,1745156225671325598
422177,-175,549,-215,1404,-903,-7582,1745156225731551714
422369,-150,524,-213,1501,-877,-7604,1745156225731551714
422561,-138,494,-214,1529,-807,-7645,1745156225731551714
422753,-141,483,-221,1569,-814,-7647,1745156225731551714
422945,-137,454,-230,1586,-793,-7667,1745156225731551714
423137,-138,435,-230,1552,-777,-7575,1745156225731551714
423329,-122,402,-210,1569,-715,-7725,1745156225731551714
423521,-134,399,-192,1521,-722,-7744,1745156225731551714
423713,-144,405,-179,1400,-783,-7692,1745156225731551714
423905,-129,391,-164,1343,-742,-7784,1745156225731551714
424097,-130,388,-135,1295,-737,-7785,1745156225731551714
424289,-129,384,-94,1279,-715,-7808,1745156225731551714
424481,-132,394,-59,1213,-688,-7954,1745156225794108955
424673,-137,416,-43,1154,-637,-8137,1745156225794108955
424865,-147,445,-33,1119,-512,-8270,1745156225794108955
425057,-168,481,-19,1180,-378,-8355,1745156225794108955
425249,-192,513,0,1293,-254,-8359,1745156225794108955
425441,-214,542,22,1457,-157,-8352,1745156225794108955
425633,-232,565,42,1612,-55,-8344,1745156225794108955
425825,-245,577,61,1743,35,-8289,1745156225794108955
426017,-258,585,81,1843,100,-8245,1745156225794108955
426209,-268,580,100,1920,128,-8169,1745156225794108955
426401,-275,556,117,1965,67,-7992,1745156225794108955
426593,-280,556,128,1943,-31,-7905,1745156225794108955
426785,-284,529,140,1891,-167,-7770,1745156225850244744
426977,-292,505,154,1811,-272,-7654,1745156225850244744
427169,-308,498,166,1697,-349,-7564,1745156225850244744
427361,-325,492,175,1578,-353,-7451,1745156225850244744
427553,-344,497,184,1463,-261,-7339,1745156225850244744
427745,-359,505,194,1369,-141,-7210,1745156225850244744
427937,-363,513,208,1288,2,-7107,1745156225850244744
428129,-359,527,229,1256,93,-7066,1745156225850244744
428321,-351,548,259,1301,125,-7115,1745156225850244744
428513,-344,547,304,1431,16,-7337,1745156225850244744
428705,-338,508,359,1640,-177,-7732,1745156225850244744
428897,-315,430,409,1969,-377,-8373,1745156225850244744
429089,-265,303,416,2400,-462,-9195,1745156225907595314
429281,-175,125,352,2862,-238,-9815,1745156225907595314
429473,-56,-56,235,3280,216,-10021,1745156225907595314
429665,72,-220,110,3602,757,-10139,1745156225907595314
429857,175,-345,32,3803,1106,-9990,1745156225907595314
430049,234,-453,15,3771,1206,-9830,1745156225907595314
430241,235,-557,42,3499,1058,-9710,1745156225907595314
430433,173,-641,84,2977,740,-9618,1745156225907595314
430625,68,-684,129,2204,385,-9511,1745156225907595314
430817,-62,-673,182,1372,73,-9353,1745156225907595314
431009,-183,-617,239,661,-72,-9300,1745156225907595314
431201,-278,-537,289,107,68,-9268,1745156225907595314
431393,-342,-445,321,-246,408,-9214,1745156225969866621
431585,-375,-356,322,-371,897,-9146,1745156225969866621
431777,-379,-270,293,-340,1439,-9089,1745156225969866621
431969,-355,-195,242,-182,1951,-9030,1745156225969866621
432161,-306,-135,189,51,2361,-8961,1745156225969866621
432353,-234,-95,149,344,2636,-8882,1745156225969866621
432545,-147,-76,129,653,2725,-8812,1745156225969866621
432737,-55,-79,126,871,2624,-8764,1745156225969866621
432929,35,-91,136,975,2337,-8717,1745156225969866621
433121,110,-110,151,956,1948,-8682,1745156225969866621
433313,161,-129,164,851,1543,-8644,1745156225969866621
433505,184,-138,177,669,1124,-8542,1745156225969866621
433697,179,-134,186,493,725,-8524,1745156226026905058
433889,154,-121,191,301,402,-8554,1745156226026905058
434081,122,-104,190,183,223,-8650,1745156226026905058
434273,98,-87,180,123,93,-8733,1745156226026905058
434465,80,-63,165,141,91,-8798,1745156226026905058
434657,65,-30,149,226,88,-8787,1745156226026905058
434849,54,-3,144,371,56,-8720,1745156226026905058
435041,45,14,145,551,35,-8645,1745156226026905058
435233,37,16,153,711,18,-8540,1745156226026905058
435425,29,7,159,819,-9,-8450,1745156226026905058
435617,21,-5,158,884,23,-8324,1745156226026905058
435809,13,-19,147,892,92,-8207,1745156226026905058
436001,8,-31,131,873,127,-8050,1745156226087046696
436193,11,-42,112,823,225,-7947,1745156226087046696
436385,17,-47,96,787,323,-7907,1745156226087046696
436577,20,-49,80,760,422,-7828,1745156226087046696
436769,20,-49,67,763,537,-7761,1745156226087046696
436961,17,-46,61,765,674,-7693,1745156226087046696
437153,15,-41,58,808,795,-7679,1745156226087046696
437345,20,-34,56,845,900,-7687,1745156226087046696
437537,29,-27,54,874,1013,-7738,1745156226087046696
437729,38,-23,53,896,1095,-7858,1745156226087046696
437921,46,-24,53,907,1114,-7946,1745156226087046696
438113,59,-30,52,942,1078,-8078,1745156226087046696
438305,74,-34,50,927,1013,-8234,1745156226140791622
438497,81,-34,46,926,918,-8410,1745156226140791622
438689,76,-35,42,905,824,-8562,1745156226140791622
438881,62,-37,35,847,706,-8605,1745156226140791622
439073,50,-40,31,767,608,-8585,1745156226140791622
439265,41,-37,29,705,524,-8530,1745156226140791622
439457,39,-32,26,645,444,-8515,1745156226140791622
439649,34,-28,20,588,404,-8483,1745156226140791622
439841,25,-26,13,542,355,-8424,1745156226140791622
440033,11,-24,7,491,333,-8302,1745156226140791622
440225,-2,-22,3,457,316,-8205,1745156226140791622
440417,-12,-19,6,435,307,-8092,1745156226140791622
440609,-19,-17,10,410,342,-7966,1745156226242730013
440801,-21,-14,10,405,403,-7853,1745156226242730013
440993,-17,-14,4,433,499,-7734,1745156226242730013
441185,-10,-15,-4,425,561,-7680,1745156226242730013
441377,-2,-19,-9,429,630,-7676,1745156226242730013
441569,6,-25,-12,391,673,-7668,1745156226242730013
441761,17,-29,-12,399,699,-7688,1745156226242730013
441953,32,-31,-8,394,704,-7719,1745156226242730013
442145,44,-33,-6,399,701,-7824,1745156226242730013
442337,53,-36,-4,376,665,-7934,1745156226242730013
442529,58,-37,-5,391,625,-8025,1745156226242730013
442721,61,-35,-6,397,605,-8117,1745156226242730013
442913,65,-36,-6,366,602,-8185,1745156226278199585
443105,64,-35,-2,369,596,-8288,1745156226278199585
443297,58,-32,2,379,578,-8408,1745156226278199585
443489,46,-27,4,369,592,-8469,1745156226278199585
443681,32,-21,4,376,571,-8515,1745156226278199585
443873,17,-16,2,382,569,-8562,1745156226278199585
444065,3,-12,1,388,589,-8578,1745156226278199585
444257,-6,-7,1,424,607,-8535,1745156226278199585
444449,-13,-3,2,420,621,-8502,1745156226278199585
444641,-17,-3,3,431,624,-8444,1745156226278199585
444833,-15,-6,5,424,631,-8366,1745156226278199585
445025,-12,-8,6,404,623,-8265,1745156226278199585
445217,-9,-9,7,369,591,-8183,1745156226332541172
445409,-7,-8,6,353,535,-8104,1745156226332541172
445601,-8,-6,6,357,487,-8049,1745156226332541172
445793,-8,-6,8,331,425,-7982,1745156226332541172
445985,-7,-6,9,341,392,-7937,1745156226332541172
446177,-6,-5,8,365,414,-7883,1745156226332541172
446369,-5,-4,5,408,415,-7888,1745156226332541172
446561,-4,-4,3,423,472,-7915,1745156226332541172
446753,-2,-2,2,440,532,-7935,1745156226332541172
446945,1,-2,6,470,577,-7945,1745156226332541172
447137,7,-3,8,481,604,-7967,1745156226332541172
447329,12,-6,7,532,597,-8010,1745156226332541172
447521,17,-8,3,549,581,-8027,1745156226386542033
447713,17,-13,0,534,543,-8076,1745156226386542033
447905,13,-20,-3,515,531,-8116,1745156226386542033
448097,6,-22,-4,488,539,-8172,1745156226386542033
448289,-1,-21,-4,461,553,-8221,1745156226386542033
448481,-8,-18,-4,446,569,-8245,1745156226386542033
448673,-12,-13,-3,445,625,-8263,1745156226386542033
448865,-14,-9,1,454,678,-8245,1745156226386542033
449057,-13,-6,2,477,711,-8248,1745156226386542033
449249,-11,-2,3,478,743,-8250,1745156226386542033
449441,-9,0,3,493,714,-8230,1745156226386542033
449633,-6,0,2,475,656,-8229,1745156226386542033
449825,-4,0,3,457,567,-8204,1745156226437917762
450017,-3,1,4,440,486,-8203,1745156226437917762
450209,-5,1,5,425,431,-8196,1745156226437917762
450401,-12,2,5,408,392,-8178,1745156226437917762
450593,-22,2,3,412,393,-8168,1745156226437917762
450785,-31,4,2,378,437,-8128,1745156226437917762
450977,-37,7,2,391,467,-8084,1745156226437917762
451169,-35,10,1,403,509,-8060,1745156226437917762
451361,-28,13,-4,425,555,-8057,1745156226437917762
451553,-19,14,-9,427,577,-8037,1745156226437917762
451745,-9,14,-12,454,625,-8029,1745156226437917762
451937,1,14,-12,458,637,-8008,1745156226437917762
452129,9,13,-12,466,646,-7987,1745156226489396250
452321,16,12,-12,471,624,-7925,1745156226489396250
452513,-6,-23,-14,879,99,-7347,1745156226489396250
452705,-78,-108,-10,1253,-627,-7622,1745156226489396250
452897,-199,-159,-12,960,-1014,-8264,1745156226489396250
453089,-298,-138,-31,694,-481,-8108,1745156226489396250
453281,-362,-160,-26,748,-67,-7726,1745156226489396250
453473,-405,-196,-20,776,171,-7872,1745156226489396250
453665,-351,-216,-33,348,636,-7831,1745156226489396250
453857,-226,-228,4,167,1341,-7857,1745156226489396250
454049,-97,-247,42,283,1915,-7913,1745156226489396250
454241,-37,-231,39,378,2087,-8119,1745156226489396250
456545,100,91,-29,272,442,-8118,1745156228322965073
524129,77,-97,24,576,1444,-7829,1745156228322965073
524321,1,-124,20,699,36,-7989,1745156228322965073
524513,71,-122,-8,910,343,-7878,1745156228322965073
524705,91,-158,9,396,618,-7726,1745156228322965073
524897,89,-154,22,175,691,-7895,1745156228322965073
525089,106,-149,9,295,729,-7924,1745156228322965073
525281,97,-166,-6,366,706,-8000,1745156228322965073
525473,99,-176,-9,370,815,-7988,1745156228322965073
525665,116,-172,-3,339,951,-7973,1745156228322965073
525857,113,-172,2,300,1033,-8048,1745156228322965073
526049,112,-158,2,269,1004,-8120,1745156228322965073
526241,109,-152,5,147,925,-8206,1745156228376975361
526433,108,-141,12,54,819,-8284,1745156228376975361
526625,116,-121,21,-48,761,-8379,1745156228376975361
526817,118,-116,24,-100,640,-8414,1745156228376975361
527009,115,-87,22,-171,574,-8500,1745156228376975361
527201,102,-49,20,-303,565,-8600,1745156228376975361
527393,81,-11,20,-377,533,-8684,1745156228376975361
527585,60,31,17,-289,517,-8735,1745156228376975361
527777,40,63,21,-119,479,-8791,1745156228376975361
527969,24,83,28,-30,479,-8858,1745156228376975361
528161,12,103,34,-61,463,-8867,1745156228376975361
528353,-5,126,38,-101,448,-8957,1745156228376975361
528545,-21,147,39,-110,457,-9083,1745156228431580956
528737,-34,164,39,-40,418,-9168,1745156228431580956
528929,-47,177,39,86,472,-9214,1745156228431580956
529121,-54,186,44,224,575,-9200,1745156228431580956
529313,-56,194,50,356,701,-9207,1745156228431580956
529505,-43,192,51,510,823,-9148,1745156228431580956
529697,-15,185,45,742,948,-9194,1745156228431580956
529889,22,144,26,1276,861,-8482,1745156228431580956
530081,-171,-24,-20,1126,-518,-10313,1745156228431580956
530273,102,116,-58,1290,1925,-9071,1745156228431580956
530465,254,57,-72,1110,1710,-9173,1745156228431580956
530657,430,106,-165,1025,1003,-10223,1745156228431580956
530849,431,104,-222,1285,124,-10353,1745156228494517308
531041,124,9,-224,2894,-3384,-10834,1745156228494517308
531233,-508,-241,-224,4559,-6358,-10715,1745156228494517308
531425,-1001,-228,-261,4031,-5453,-10851,1745156228494517308
531617,-1354,-244,-235,3103,-3788,-9693,1745156228494517308
531809,-1485,-199,-261,2146,-1336,-9398,1745156228494517308
532001,-1497,-76,-351,969,1246,-8342,1745156228494517308
532193,-1253,232,-451,-2212,3811,-7039,1745156228494517308
532385,-1018,538,-467,-772,4505,-7481,1745156228494517308
532577,-849,387,-437,2458,3657,-6828,1745156228494517308
532769,-623,426,-386,3756,3275,-7178,1745156228494517308
532961,-391,368,-284,4231,2960,-7299,1745156228494517308
533153,-80,356,-232,4093,2721,-8261,1745156228546478291
533345,134,402,-272,3658,2303,-8838,1745156228546478291
533537,310,395,-370,3308,1865,-9117,1745156228546478291
533729,394,395,-465,3244,966,-8808,1745156228546478291
533921,377,373,-494,3380,-59,-8527,1745156228546478291
534113,425,260,-488,3524,-632,-8502,1745156228546478291
534305,554,61,-517,3480,-960,-7995,1745156228546478291
534497,672,-68,-575,3389,-1195,-7573,1745156228546478291
534689,691,-89,-613,3372,-1345,-7557,1745156228546478291
534881,594,-125,-608,3327,-1429,-7574,1745156228546478291
535073,395,-204,-584,3204,-1391,-7757,1745156228546478291
535265,129,-274,-559,3186,-1244,-7719,1745156228546478291
535457,-166,-287,-507,3499,-1050,-7767,1745156228614042883
535649,-436,-289,-403,4061,-656,-8218,1745156228614042883
535841,-669,-306,-240,4720,60,-8222,1745156228614042883
536033,-788,-412,-132,4986,968,-8608,1745156228614042883
536225,-676,-626,-143,5126,1748,-8459,1745156228614042883
536417,-380,-810,-198,5309,2156,-8504,1745156228614042883
536609,-77,-976,-212,5541,1945,-8963,1745156228614042883
536801,171,-1205,-161,5699,1116,-9200,1745156228614042883
536993,375,-1466,-62,5656,65,-9304,1745156228614042883
537185,532,-1707,53,5339,-817,-9327,1745156228614042883
537377,605,-1885,145,4688,-1453,-9200,1745156228614042883
537569,594,-1991,203,3741,-1760,-8996,1745156228614042883
537761,534,-2040,252,2729,-1855,-8663,1745156228687293620
537953,454,-2027,306,1842,-1793,-8290,1745156228687293620
538145,373,-1964,379,1135,-1716,-7864,1745156228687293620
538337,300,-1869,475,577,-1589,-7547,1745156228687293620
538529,235,-1741,573,222,-1427,-7325,1745156228687293620
538721,179,-1586,654,24,-1256,-7177,1745156228687293620
538913,130,-1420,710,-59,-1118,-7039,1745156228687293620
539105,84,-1261,758,-43,-1094,-6823,1745156228687293620
539297,41,-1102,802,42,-1174,-6611,1745156228687293620
539489,-3,-941,853,119,-1359,-6370,1745156228687293620
539681,-50,-794,914,167,-1597,-6234,1745156228687293620
539873,-109,-639,980,207,-1738,-6353,1745156228687293620
540065,-211,-439,1051,92,-1948,-6108,1745156228723511101
540257,-302,-278,1111,-87,-2021,-5807,1745156228723511101
540449,-374,-159,1166,-191,-1846,-5891,1745156228723511101
540641,-464,5,1230,-314,-1576,-5985,1745156228723511101
540833,-559,193,1297,-432,-1248,-5612,1745156228723511101
541025,-638,375,1363,-440,-875,-5505,1745156228723511101
541217,-708,567,1431,-411,-542,-5334,1745156228723511101
541409,-756,755,1501,-333,-206,-5147,1745156228723511101
541601,-781,928,1580,-157,118,-4965,1745156228723511101
541793,-778,1078,1669,14,407,-4735,1745156228723511101
541985,-747,1214,1769,195,720,-4329,1745156228723511101
542177,-702,1352,1869,311,1151,-4094,1745156228723511101
542369,-647,1488,1949,344,1536,-3862,1745156228797551571
542561,-583,1627,2003,358,1874,-3706,1745156228797551571
542753,-521,1765,2043,367,2119,-3545,1745156228797551571
542945,-454,1889,2082,431,2206,-3321,1745156228797551571
543137,-400,2001,2123,561,2137,-3153,1745156228797551571
543329,-364,2099,2163,697,1941,-3014,1745156228797551571
543521,-342,2189,2204,833,1733,-2924,1745156228797551571
543713,-344,2282,2238,943,1539,-2926,1745156228797551571
543905,-362,2376,2265,1027,1438,-2990,1745156228797551571
544097,-390,2481,2282,1081,1496,-3032,1745156228797551571
544289,-427,2602,2292,1167,1746,-3154,1745156228797551571
544481,-466,2742,2294,1303,2250,-3433,1745156228797551571
544673,-507,2896,2295,1503,2960,-3783,1745156228837519227
544865,-536,3044,2293,1845,3803,-3893,1745156228837519227
545057,-557,3180,2295,2278,4684,-3996,1745156228837519227
545249,-586,3306,2304,2679,5479,-4119,1745156228837519227
545441,-603,3408,2321,3107,6096,-4041,1745156228837519227
545633,-491,3482,2331,3507,6440,-3572,1745156228837519227
545825,-284,3554,2330,3741,6829,-3933,1745156228837519227
546017,-102,3612,2321,3890,6974,-4012,1745156228837519227
546209,112,3660,2293,4021,6977,-3974,1745156228837519227
546401,316,3704,2244,4037,6807,-3735,1745156228837519227
546593,481,3757,2177,4020,6422,-3585,1745156228837519227
546785,610,3805,2091,3945,5804,-3417,1745156228837519227
546977,729,3842,1989,4028,5304,-3811,1745156228907243173
547169,787,3952,1885,4130,5065,-4546,1745156228907243173
547361,766,4117,1769,4133,4888,-4468,1745156228907243173
547553,728,4231,1632,4386,4953,-4733,1745156228907243173
547745,642,4326,1482,4723,5055,-4799,1745156228907243173
547937,547,4394,1336,5089,5112,-4724,1745156228907243173
548129,474,4437,1210,5456,5205,-4625,1745156228907243173
548321,426,4461,1100,5858,5366,-4561,1745156228907243173
548513,385,4465,992,6236,5566,-4362,1745156228907243173
548705,329,4468,882,6491,5794,-4126,1745156228907243173
548897,272,4477,774,6682,5963,-3906,1745156228907243173
549089,223,4481,670,6795,6002,-3641,1745156228907243173
549281,201,4483,578,6886,5919,-3553,1745156228960948620
549473,204,4497,497,6943,5876,-3703,1745156228960948620
549665,219,4533,418,7042,5902,-3943,1745156228960948620
549857,226,4578,331,7223,5895,-4081,1745156228960948620
550049,218,4621,230,7574,5786,-4294,1745156228960948620
550241,199,4644,117,8048,5572,-4511,1745156228960948620
550433,176,4628,3,8649,5325,-4619,1745156228960948620
550625,151,4572,-100,9288,5053,-4624,1745156228960948620
550817,119,4490,-197,9846,4892,-4613,1745156228960948620
551009,74,4393,-304,10244,4947,-4539,1745156228960948620
551201,18,4287,-430,10483,5185,-4555,1745156228960948620
551393,-51,4176,-573,10528,5583,-4551,1745156228960948620
551585,-127,4064,-719,10468,6028,-4537,1745156229021194945
551777,-197,3964,-851,10316,6424,-4537,1745156229021194945
551969,-248,3867,-956,10205,6657,-4554,1745156229021194945
552161,-266,3773,-1027,10127,6682,-4650,1745156229021194945
552353,-261,3690,-1085,10148,6546,-4793,1745156229021194945
552545,-243,3621,-1138,10123,6297,-4912,1745156229021194945
552737,-215,3557,-1174,10118,5968,-4990,1745156229021194945
552929,-181,3508,-1206,10048,5730,-5200,1745156229021194945
553121,-157,3470,-1253,9955,5580,-5472,1745156229021194945
553313,-148,3442,-1310,9788,5529,-5584,1745156229021194945
553505,-140,3417,-1366,9675,5467,-5521,1745156229021194945
553697,-135,3393,-1419,9601,5418,-5578,1745156229021194945
553889,-133,3378,-1479,9555,5336,-5606,1745156229077845365
554081,-128,3362,-1540,9535,5206,-5612,1745156229077845365
554273,-114,3339,-1596,9537,5055,-5579,1745156229077845365
554465,-91,3303,-1645,9517,4845,-5468,1745156229077845365
554657,-63,3253,-1696,9531,4658,-5284,1745156229077845365
554849,-37,3195,-1758,9508,4462,-5168,1745156229077845365
555041,-36,3135,-1829,9508,4325,-5010,1745156229077845365
555233,-55,3063,-1910,9471,4230,-4814,1745156229077845365
555425,-87,2993,-1985,9410,4156,-4534,1745156229077845365
555617,-112,2917,-2040,9332,4111,-4208,1745156229077845365
555809,-118,2846,-2072,9271,4117,-4038,1745156229077845365
556001,-122,2776,-2084,9215,4115,-3843,1745156229077845365
556193,-114,2679,-2095,9228,4069,-3729,1745156229142475451
556385,-96,2557,-2105,9303,3993,-3706,1745156229142475451
556577,-98,2440,-2121,9363,3841,-3664,1745156229142475451
556769,-120,2325,-2152,9420,3622,-3682,1745156229142475451
556961,-160,2210,-2199,9450,3414,-3639,1745156229142475451
557153,-215,2102,-2245,9365,3224,-3646,1745156229142475451
557345,-301,1997,-2278,9207,3097,-3716,1745156229142475451
557537,-416,1899,-2292,9001,3041,-3637,1745156229142475451
557729,-518,1812,-2295,8824,3035,-3345,1745156229142475451
557921,-594,1728,-2295,8692,3074,-3107,1745156229142475451
558113,-662,1655,-2292,8594,3120,-2961,1745156229142475451
558305,-733,1596,-2281,8524,3177,-2865,1745156229142475451
558497,-816,1547,-2276,8573,3038,-2713,1745156229202106625
558689,-867,1480,-2268,8585,3289,-2728,1745156229202106625
558881,-910,1426,-2214,8578,3492,-2631,1745156229202106625
559073,-909,1355,-2164,8655,3720,-2444,1745156229202106625
559265,-873,1263,-2146,8735,3968,-2313,1745156229202106625
559457,-822,1176,-2152,8782,4302,-2412,1745156229202106625
559649,-777,1129,-2140,8556,4446,-1685,1745156229202106625
559841,-673,947,-2112,8724,4551,-1794,1745156229202106625
560033,-617,777,-2076,8742,4486,-1846,1745156229202106625
560225,-590,639,-2042,8697,4408,-1845,1745156229202106625
560417,-605,520,-2013,8535,4339,-1801,1745156229202106625
560609,-637,409,-1989,8339,4300,-1704,1745156229202106625
560801,-662,311,-1963,8095,4360,-1576,1745156229260225990
560993,-667,223,-1921,7831,4492,-1486,1745156229260225990
561185,-652,148,-1885,7561,4684,-1488,1745156229260225990
561377,-615,90,-1876,7289,5000,-1409,1745156229260225990
561569,-576,64,-1856,7222,4948,-1397,1745156229260225990
561761,-552,53,-1833,7265,4854,-1223,1745156229260225990
561953,-539,50,-1782,7461,4914,-1167,1745156229260225990
562145,-531,31,-1726,7710,5033,-1109,1745156229260225990
562337,-531,-3,-1682,8021,5182,-1048,1745156229260225990
562529,-533,-57,-1638,8175,5257,-857,1745156229260225990
562721,-530,-125,-1634,8173,5296,-645,1745156229260225990
562913,-524,-185,-1661,7929,5362,-428,1745156229260225990
563105,-509,-233,-1650,7671,5539,-244,1745156229314294923
563297,-497,-276,-1632,7508,5395,-166,1745156229314294923
563489,-492,-312,-1660,7281,5292,-35,1745156229314294923
563681,-508,-343,-1714,6931,5183,17,1745156229314294923
563873,-526,-373,-1688,6670,5453,32,1745156229314294923
564065,-550,-369,-1624,6513,5465,83,1745156229314294923
564257,-566,-372,-1651,6350,5419,207,1745156229314294923
564449,-569,-366,-1672,6107,5471,389,1745156229314294923
564641,-560,-357,-1648,5935,5612,530,1745156229314294923
564833,-541,-338,-1628,5832,5687,658,1745156229314294923
565025,-509,-309,-1671,5704,5594,730,1745156229314294923
565217,-506,-275,-1670,5769,5884,737,1745156229314294923
565409,-480,-259,-1577,5983,6237,739,1745156229383997984
565601,-423,-244,-1521,6189,6311,751,1745156229383997984
565793,-385,-254,-1536,6360,6287,717,1745156229383997984
565985,-341,-282,-1554,6386,6279,768,1745156229383997984
566177,-301,-306,-1541,6328,6285,832,1745156229383997984
566369,-275,-326,-1512,6248,6260,878,1745156229383997984
566561,-260,-341,-1496,6120,6166,894,1745156229383997984
566753,-256,-350,-1493,5924,6029,900,1745156229383997984
566945,-262,-346,-1489,5753,5830,824,1745156229383997984
567137,-273,-353,-1475,5737,5562,810,1745156229383997984
567329,-293,-361,-1453,5919,5264,759,1745156229383997984
567521,-341,-360,-1437,6024,5282,698,1745156229383997984
567713,-422,-374,-1412,6471,5179,528,1745156229429423663
567905,-507,-422,-1383,6647,5345,953,1745156229429423663
568097,-507,-362,-1399,5400,6431,883,1745156229429423663
568289,-487,-351,-1402,5482,6457,903,1745156229429423663
568481,-507,-361,-1360,6098,6003,824,1745156229429423663
568673,-521,-406,-1323,6789,5724,970,1745156229429423663
568865,-530,-433,-1318,6655,5882,1076,1745156229429423663
569057,-499,-435,-1319,5932,6359,1109,1745156229429423663
569249,-462,-459,-1316,5691,6410,1174,1745156229429423663
569441,-433,-477,-1304,5767,6108,1211,1745156229429423663
569633,-341,-387,-1316,4645,6914,1796,1745156229429423663
569825,-295,-346,-1321,4769,6576,1038,1745156229429423663
570017,-295,-346,-1274,5274,6109,1139,1745156229513433208
570209,-283,-324,-1256,5740,5829,955,1745156229513433208
570401,-280,-337,-1243,6032,5828,953,1745156229513433208
570593,-297,-360,-1228,6116,6016,897,1745156229513433208
570785,-322,-396,-1204,6340,5957,719,1745156229513433208
570977,-362,-459,-1158,6381,5944,1081,1745156229513433208
571169,-360,-470,-1134,5908,6321,1008,1745156229513433208
571361,-337,-496,-1125,5459,6660,1117,1745156229513433208
571553,-302,-494,-1126,4939,7024,1585,1745156229513433208
571745,-213,-390,-1152,3959,7658,1279,1745156229513433208
571937,-149,-375,-1123,4703,6621,1703,1745156229513433208
572129,-118,-295,-1061,5022,6031,1441,1745156229513433208
572321,-146,-333,-1017,5988,5462,1228,1745156229555226160
572513,-191,-342,-1001,5908,5710,1502,1745156229555226160
572705,-267,-413,-990,5828,5835,1450,1745156229555226160
572897,-251,-377,-987,4735,6807,1428,1745156229555226160
573089,-208,-378,-981,4015,7393,1731,1745156229555226160
573281,-147,-350,-952,4242,6986,1348,1745156229555226160
573473,-92,-324,-912,4391,6751,1521,1745156229555226160
573665,-63,-303,-894,4720,6523,1361,1745156229555226160
573857,-48,-268,-881,4714,6589,1078,1745156229555226160
574049,-63,-285,-846,5090,6289,1224,1745156229555226160
574241,-72,-276,-811,4794,6486,1279,1745156229555226160
574433,-75,-279,-782,4869,6347,1138,1745156229555226160
574625,-116,-320,-733,5256,5918,1266,1745156229608364372
574817,-155,-343,-685,5168,5833,1448,1745156229608364372
575009,-191,-352,-652,4618,6321,1797,1745156229608364372
575201,-210,-307,-652,3866,7220,1720,1745156229608364372
575393,-190,-294,-646,3943,7245,2097,1745156229608364372
575585,-117,-173,-656,3230,7753,1900,1745156229608364372
575777,-104,-175,-633,3943,7011,1737,1745156229608364372
575969,-121,-178,-572,5289,5839,1370,1745156229608364372
576161,-156,-236,-524,5578,5692,1494,1745156229608364372
576353,-191,-256,-517,4925,6286,1658,1745156229608364372
576545,-114,-192,-545,3117,8181,1993,1745156229608364372
576737,-88,-195,-549,3081,7896,1801,1745156229608364372
576929,-58,-182,-466,3955,6763,1722,1745156229662676428
577121,-62,-174,-377,4597,6086,1675,1745156229662676428
577313,-95,-180,-335,4735,6300,1616,1745156229662676428
577505,-121,-194,-328,4305,6920,1639,1745156229662676428
577697,-133,-212,-323,3839,7246,1724,1745156229662676428
577889,-114,-210,-301,3527,7252,1847,1745156229662676428
578081,-85,-188,-275,3410,7056,1783,1745156229662676428
578273,-66,-168,-251,3489,6783,1768,1745156229662676428
578465,-6,-133,-248,3052,7381,2150,1745156229662676428
578657,106,-51,-307,2794,7538,1495,1745156229662676428
578849,76,-110,-253,3652,6246,1709,1745156229662676428
579041,45,-101,-176,4029,5694,1617,1745156229662676428
579233,5,-117,-155,3847,5990,1711,1745156229726612928
579425,-50,-121,-159,3357,6561,1828,1745156229726612928
579617,-73,-123,-159,2953,7008,2006,1745156229726612928
579809,-81,-106,-146,2767,7193,2015,1745156229726612928
580001,-57,-82,-125,2875,7106,2033,1745156229726612928
580193,-39,-61,-106,3018,6950,2018,1745156229726612928
580385,-41,-47,-92,3108,6810,1926,1745156229726612928
580577,-48,-40,-83,3143,6737,1844,1745156229726612928
580769,-47,-45,-77,3139,6719,1876,1745156229726612928
580961,-39,-51,-72,3040,6820,1860,1745156229726612928
581153,-28,-50,-64,2921,6884,1924,1745156229726612928
581345,-4,-52,-53,2897,6934,1987,1745156229726612928
581537,25,-57,-43,2845,6968,2037,1745156229803429413
581729,45,-50,-31,2784,7076,2085,1745156229803429413
581921,59,-40,-15,2711,7154,2038,1745156229803429413
582113,68,-28,3,2664,7226,2004,1745156229803429413
582305,82,-18,15,2625,7265,1934,1745156229803429413
582497,97,-8,28,2626,7228,1815,1745156229803429413
582689,113,-2,42,2689,7098,1732,1745156229803429413
582881,123,-4,58,2795,6980,1673,1745156229803429413
583073,127,-10,70,2851,6981,1657,1745156229803429413
583265,125,-20,82,2849,7089,1644,1745156229803429413
583457,109,-27,96,2797,7278,1635,1745156229803429413
583649,78,-29,109,2734,7420,1706,1745156229803429413
583841,54,-27,122,2756,7573,1667,1745156229841923333
584033,28,-22,134,2799,7620,1713,1745156229841923333
584225,-1,-16,141,2642,7603,1690,1745156229841923333
584417,-4,-6,147,2804,7672,1657,1745156229841923333
584609,-1,-19,136,2972,7786,1679,1745156229841923333
584801,11,-35,115,2976,7909,1674,1745156229841923333
584993,3,-36,110,2687,7850,1769,1745156229841923333
585185,21,-43,115,2759,7995,1704,1745156229841923333
585377,35,-45,103,2870,8126,1718,1745156229841923333
585569,42,-54,89,2890,8091,1783,1745156229841923333
585761,46,-64,83,2936,8052,1738,1745156229841923333
585953,37,-70,80,2967,7974,1829,1745156229841923333
586145,35,-80,69,3069,8076,1728,1745156229917471497
586337,7,-87,53,3047,8028,1743,1745156229917471497
586529,-14,-93,44,3039,8023,1770,1745156229917471497
586721,-34,-92,32,2906,8040,1793,1745156229917471497
586913,-49,-87,12,2871,8113,1746,1745156229917471497
587105,-68,-78,-14,2830,8080,1765,1745156229917471497
587297,-70,-71,-37,2912,8116,1682,1745156229917471497
587489,-75,-63,-58,2963,8125,1666,1745156229917471497
587681,-69,-61,-72,3015,8104,1662,1745156229917471497
587873,-56,-59,-78,3064,8067,1734,1745156229917471497
588065,-35,-59,-79,3102,8014,1692,1745156229917471497
588257,-24,-62,-72,3091,7909,1712,1745156229917471497
588449,-10,-66,-61,3045,7819,1766,1745156229962816187
588641,-8,-60,-48,2981,7717,1810,1745156229962816187
588833,-9,-55,-36,2966,7636,1895,1745156229962816187
589025,-16,-51,-30,2975,7570,1985,1745156229962816187
589217,-23,-47,-33,2974,7525,2018,1745156229962816187
589409,-32,-40,-38,2986,7451,1996,1745156229962816187
589601,-35,-36,-47,3002,7348,1911,1745156229962816187
589793,-28,-36,-66,3026,7287,1849,1745156229962816187
589985,-19,-38,-87,3012,7213,1731,1745156229962816187
590177,-7,-39,-98,3015,7184,1647,1745156229962816187
590369,14,-45,-96,3056,7203,1527,1745156229962816187
590561,34,-55,-88,3054,7186,1451,1745156229962816187
590753,45,-59,-74,3030,7184,1400,1745156230022613453
590945,49,-56,-48,2935,7172,1374,1745156230022613453
591137,55,-51,-12,2926,7255,1387,1745156230022613453
591329,57,-46,15,2919,7424,1500,1745156230022613453
591521,52,-34,37,2928,7567,1592,1745156230022613453
591713,51,-29,59,2955,7591,1728,1745156230022613453
591905,61,-31,70,3010,7551,1818,1745156230022613453
592097,69,-33,67,3015,7504,1855,1745156230022613453
592289,78,-33,59,3003,7448,1884,1745156230022613453
592481,87,-31,48,2959,7437,1838,1745156230022613453
592673,90,-24,38,2928,7413,1797,1745156230022613453
592865,94,-14,35,2947,7362,1741,1745156230022613453
593057,95,-3,33,2982,7340,1671,1745156230068657616
593249,97,5,34,3007,7314,1653,1745156230068657616
593441,100,9,35,3030,7339,1622,1745156230068657616
593633,111,15,40,3036,7379,1749,1745156230068657616
593825,209,18,43,3040,7169,2607,1745156230068657616
594017,410,11,41,2915,7855,118,1745156230068657616
594209,77,27,74,3077,7424,1915,1745156230068657616
594401,71,24,74,3077,7449,1448,1745156230068657616
594593,75,24,77,3075,7472,1579,1745156230068657616
594785,85,24,82,3043,7552,1604,1745156230068657616
594977,71,23,85,3035,7448,1619,1745156230068657616
595169,68,25,91,3028,7388,1680,1745156230068657616
595361,67,26,96,3045,7362,1740,1745156230131981725
595553,65,26,95,3040,7415,1783,1745156230131981725
595745,51,28,96,3025,7454,1782,1745156230131981725
595937,32,35,106,3043,7445,1816,1745156230131981725
596129,20,43,120,3079,7454,1875,1745156230131981725
596321,20,45,126,3111,7494,1881,1745156230131981725
596513,12,45,129,3135,7488,1956,1745156230131981725
596705,7,49,136,3169,7511,1915,1745156230131981725
596897,2,45,146,3256,7481,2110,1745156230131981725
597089,18,48,145,3269,7560,1986,1745156230131981725
597281,13,51,142,3283,7503,1888,1745156230131981725
597473,9,56,146,3295,7364,1849,1745156230131981725
597665,12,61,151,3332,7209,1770,1745156230190862697
597857,15,66,155,3427,7087,1664,1745156230190862697
598049,2,72,164,3522,6958,1580,1745156230190862697
598241,-15,80,184,3601,6919,1640,1745156230190862697
598433,-14,86,207,3627,6961,1628,1745156230190862697
598625,-25,93,231,3638,6974,1686,1745156230190862697
598817,-25,109,255,3761,7016,1630,1745156230190862697
599009,-37,145,282,3791,7015,1930,1745156230190862697
599201,-27,111,309,4061,6922,1944,1745156230190862697
599393,-4,112,330,4181,6850,1839,1745156230190862697
599585,-17,107,350,4333,6710,1718,1745156230190862697
599777,-32,100,367,4373,6631,1813,1745156230190862697
599969,-20,91,377,4450,6617,1738,1745156230257473912
600161,-37,88,386,4476,6608,1705,1745156230257473912
600353,-68,82,406,4555,6490,1967,1745156230257473912
600545,9,82,423,4649,6526,1886,1745156230257473912
600737,48,99,439,4740,6507,1728,1745156230257473912
600929,54,100,463,4831,6416,1709,1745156230257473912
601121,60,103,490,4871,6292,1722,1745156230257473912
601313,60,110,520,4885,6183,1725,1745156230257473912
601505,51,126,552,4922,6108,1760,1745156230257473912
601697,47,145,589,4983,6106,1820,1745156230257473912
601889,52,165,629,5061,6034,1849,1745156230257473912
602081,63,182,673,5204,5969,1881,1745156230257473912
602273,79,193,716,5347,5869,1900,1745156230332313697
602465,92,199,761,5466,5727,1954,1745156230332313697
602657,98,205,811,5513,5567,2015,1745156230332313697
602849,103,213,863,5538,5411,2027,1745156230332313697
603041,110,222,915,5591,5279,2024,1745156230332313697
603233,118,232,966,5580,5125,2017,1745156230332313697
603425,127,246,1020,5580,4995,1985,1745156230332313697
603617,148,256,1078,5692,4822,1893,1745156230332313697
603809,166,261,1130,5823,4649,1753,1745156230332313697
604001,176,262,1185,5988,4484,1589,1745156230332313697
604193,185,257,1247,6155,4297,1454,1745156230332313697
604385,193,245,1315,6314,4135,1351,1745156230332313697
604577,208,221,1381,6422,4009,1299,1745156230384536709
604769,225,194,1447,6484,3999,1303,1745156230384536709
604961,232,165,1517,6523,4028,1378,1745156230384536709
605153,231,135,1594,6583,4059,1392,1745156230384536709
605345,228,106,1669,6637,4111,1355,1745156230384536709
605537,238,77,1744,6685,4180,1199,1745156230384536709
605729,256,43,1816,6855,4191,979,1745156230384536709
605921,270,8,1879,7101,4162,686,1745156230384536709
606113,271,-32,1940,7377,4112,385,1745156230384536709
606305,265,-76,2000,7656,4015,71,1745156230384536709
606497,259,-127,2053,7924,3887,-224,1745156230384536709
606689,244,-193,2102,8166,3758,-512,1745156230384536709
606881,228,-265,2145,8313,3714,-736,1745156230436052697
607073,214,-329,2186,8301,3779,-915,1745156230436052697
607265,214,-387,2242,8294,3901,-1056,1745156230436052697
607457,228,-452,2300,8370,4018,-1150,1745156230436052697
607649,241,-524,2345,8462,4143,-1171,1745156230436052697
607841,242,-591,2387,8395,4258,-1152,1745156230436052697
608033,227,-634,2475,8421,4515,-1092,1745156230436052697
608225,190,-715,2529,8945,4209,-1236,1745156230436052697
608417,161,-786,2521,8901,4230,-1255,1745156230436052697
608609,129,-879,2582,8915,4310,-1385,1745156230436052697
608801,74,-972,2651,8998,4321,-1648,1745156230436052697
608993,-4,-1053,2703,9045,4176,-1926,1745156230436052697
609185,-80,-1146,2735,9116,4127,-2050,1745156230483083830
609377,-119,-1246,2748,8886,4432,-2177,1745156230483083830
609569,-174,-1268,2753,8613,4776,-2407,1745156230483083830
609761,-256,-1230,2740,8361,5108,-2573,1745156230483083830
609953,-293,-1188,2753,8337,5702,-2764,1745156230483083830
610145,-269,-1177,2813,8679,6311,-3088,1745156230483083830
610337,-199,-1198,2851,9229,6829,-3498,1745156230483083830
610529,-102,-1256,2861,9701,7047,-3887,1745156230483083830
610721,14,-1345,2854,9917,7113,-4173,1745156230483083830
610913,150,-1461,2866,9846,6980,-4490,1745156230483083830
611105,271,-1540,2851,9492,6567,-4752,1745156230483083830
611297,355,-1591,2813,8971,6145,-4901,1745156230483083830
611489,410,-1632,2797,8647,5786,-4920,1745156230538830768
611681,436,-1664,2788,8539,5589,-4812,1745156230538830768
611873,422,-1689,2781,8669,5348,-4689,1745156230538830768
612065,382,-1734,2746,8838,5294,-4096,1745156230538830768
612257,312,-1809,2725,8980,5528,-3285,1745156230538830768
612449,173,-1847,2672,8862,5642,-2809,1745156230538830768
612641,-42,-1863,2572,8742,5770,-2467,1745156230538830768
612833,-263,-1925,2503,8778,5841,-2332,1745156230538830768
613025,-427,-1977,2442,8775,5967,-2481,1745156230538830768
613217,-492,-1985,2367,8544,6550,-2807,1745156230538830768
613409,-459,-1962,2291,8384,7343,-3027,1745156230538830768
613601,-363,-1958,2217,8516,8128,-3474,1745156230538830768
613793,-213,-2001,2113,8739,8723,-4107,1745156230608674193
613985,-16,-2075,1979,8767,9012,-4627,1745156230608674193
614177,214,-2148,1836,8504,9105,-5102,1745156230608674193
614369,447,-2194,1705,8103,8977,-5567,1745156230608674193
614561,648,-2230,1597,7702,8704,-5940,1745156230608674193
614753,821,-2268,1505,7424,8357,-6047,1745156230608674193
614945,963,-2286,1435,7323,8037,-5888,1745156230608674193
615137,1074,-2327,1380,7336,7870,-5396,1745156230608674193
615329,1146,-2384,1335,7411,7808,-4498,1745156230608674193
615521,1165,-2435,1286,7336,7965,-3508,1745156230608674193
615713,1124,-2465,1231,7106,8256,-2787,1745156230608674193
615905,1026,-2487,1170,6906,8414,-2391,1745156230608674193
616097,906,-2520,1100,6831,8375,-2274,1745156230653085610
616289,802,-2568,1011,6930,8165,-2370,1745156230653085610
616481,699,-2615,900,7049,7943,-2570,1745156230653085610
616673,606,-2640,771,7111,7867,-2851,1745156230653085610
616865,519,-2642,635,7134,7964,-3215,1745156230653085610
617057,450,-2626,488,7090,8170,-3758,1745156230653085610
617249,411,-2609,329,7027,8531,-4216,1745156230653085610
617441,409,-2590,171,7016,8927,-4575,1745156230653085610
617633,443,-2575,18,7085,9310,-4852,1745156230653085610
617825,506,-2576,-121,7176,9545,-4887,1745156230653085610
618017,600,-2588,-240,7222,9676,-4720,1745156230653085610
618209,709,-2608,-336,7232,9657,-4481,1745156230653085610
618401,818,-2635,-414,7169,9486,-4171,1745156230716649873
618593,923,-2668,-472,7075,9249,-3774,1745156230716649873
618785,1013,-2701,-524,6971,8971,-3336,1745156230716649873
618977,1069,-2727,-572,6873,8733,-3002,1745156230716649873
619169,1085,-2742,-614,6799,8503,-2771,1745156230716649873
619361,1071,-2751,-651,6770,8339,-2638,1745156230716649873
619553,1038,-2754,-685,6711,8230,-2576,1745156230716649873
619745,991,-2752,-717,6694,8149,-2591,1745156230716649873
619937,939,-2745,-753,6728,8105,-2715,1745156230716649873
620129,889,-2734,-803,6767,8032,-2922,1745156230716649873
620321,842,-2725,-868,6864,7862,-3184,1745156230716649873
620513,804,-2713,-945,6955,7624,-3454,1745156230716649873
620705,780,-2698,-1030,7037,7349,-3647,1745156230778452173
620897,766,-2685,-1119,7082,7050,-3764,1745156230778452173
621089,756,-2670,-1208,7060,6776,-3827,1745156230778452173
621281,741,-2657,-1290,6994,6550,-3732,1745156230778452173
621473,723,-2642,-1366,7006,6330,-3613,1745156230778452173
621665,701,-2638,-1443,7039,6069,-3454,1745156230778452173
621857,691,-2644,-1517,7018,5838,-3349,1745156230778452173
622049,690,-2649,-1584,6938,5717,-3295,1745156230778452173
622241,682,-2652,-1641,6806,5679,-3179,1745156230778452173
622433,656,-2654,-1684,6722,5590,-3069,1745156230778452173
622625,625,-2655,-1712,6651,5449,-3046,1745156230778452173
622817,605,-2656,-1725,6527,5322,-3122,1745156230778452173
623009,596,-2649,-1724,6386,5190,-3195,1745156230835126083
623201,580,-2625,-1716,6275,5035,-3328,1745156230835126083
623393,548,-2599,-1706,6268,4816,-3525,1745156230835126083
623585,510,-2586,-1691,6265,4553,-3740,1745156230835126083
623777,478,-2585,-1675,6241,4264,-3871,1745156230835126083
623969,457,-2601,-1656,6235,3983,-3890,1745156230835126083
624161,455,-2622,-1644,6116,3758,-3795,1745156230835126083
624353,478,-2627,-1638,5851,3631,-3735,1745156230835126083
624545,520,-2604,-1638,5456,3647,-3781,1745156230835126083
624737,569,-2549,-1654,5036,3795,-3963,1745156230835126083
624929,607,-2479,-1690,4698,3930,-4202,1745156230835126083
625121,624,-2420,-1737,4528,3967,-4349,1745156230835126083
625313,638,-2368,-1775,4387,3920,-4462,1745156230888564449
625505,666,-2318,-1791,4292,3809,-4590,1745156230888564449
625697,712,-2261,-1780,4272,3687,-4705,1745156230888564449
625889,765,-2200,-1751,4332,3603,-4775,1745156230888564449
626081,809,-2141,-1711,4435,3472,-4871,1745156230888564449
626273,848,-2090,-1672,4492,3363,-5034,1745156230888564449
626465,897,-2046,-1637,4448,3296,-5171,1745156230888564449
626657,955,-2014,-1603,4431,3259,-5266,1745156230888564449
626849,1011,-1998,-1575,4387,3153,-5303,1745156230888564449
627041,1054,-1986,-1551,4351,2963,-5297,1745156230888564449
627233,1083,-1985,-1530,4231,2689,-5195,1745156230888564449
627425,1105,-1980,-1510,3985,2381,-5047,1745156230888564449
627617,1118,-1955,-1493,3614,2170,-5080,1745156230956393725
627809,1118,-1911,-1483,3226,2066,-5233,1745156230956393725
628001,1094,-1858,-1478,2911,1973,-5332,1745156230956393725
628193,1050,-1798,-1469,2595,1947,-5344,1745156230956393725
628385,1015,-1729,-1440,2732,1769,-5114,1745156230956393725
628577,1016,-1829,-1429,2668,1738,-4734,1745156230956393725
628769,1018,-1766,-1425,2709,1902,-5841,1745156230956393725
628961,942,-1610,-1467,2289,1684,-5211,1745156230956393725
629153,947,-1533,-1523,1986,1721,-5175,1745156230956393725
629345,963,-1471,-1512,1874,1733,-5322,1745156230956393725
629537,989,-1427,-1464,1870,1729,-5458,1745156230956393725
629729,1014,-1417,-1401,1913,1729,-5574,1745156230956393725
629921,1022,-1415,-1338,1955,1585,-5612,1745156231008044763
630113,1020,-1407,-1309,1892,1382,-5757,1745156231008044763
630305,1004,-1381,-1329,1687,1205,-5950,1745156231008044763
630497,969,-1331,-1371,1377,1063,-6255,1745156231008044763
630689,922,-1257,-1389,1087,1059,-6506,1745156231008044763
630881,882,-1166,-1373,746,1323,-7156,1745156231008044763
631073,851,-1071,-1329,692,1671,-7384,1745156231008044763
631265,818,-967,-1283,801,2041,-7723,1745156231008044763
631457,798,-877,-1232,1127,2299,-7788,1745156231008044763
631649,801,-807,-1185,1403,2474,-7873,1745156231008044763
631841,817,-756,-1149,1589,2576,-7978,1745156231008044763
632033,839,-734,-1122,1675,2498,-7955,1745156231008044763
632225,861,-715,-1097,1628,2320,-7795,1745156231075817894
632417,876,-689,-1071,1465,2078,-7761,1745156231075817894
632609,868,-662,-1047,1307,1851,-7708,1745156231075817894
632801,832,-630,-1025,1112,1616,-7688,1745156231075817894
632993,778,-604,-996,1033,1393,-7652,1745156231075817894
633185,711,-584,-961,1073,1138,-7587,1745156231075817894
633377,634,-566,-921,1133,901,-7552,1745156231075817894
633569,557,-545,-881,1121,789,-7517,1745156231075817894
633761,481,-523,-845,1136,670,-7480,1745156231075817894
633953,411,-506,-826,1149,580,-7437,1745156231075817894
634145,350,-491,-814,1112,467,-7385,1745156231075817894
634337,301,-477,-804,1062,314,-7316,1745156231075817894
634529,265,-477,-796,1032,171,-7191,1745156231188712228
634721,254,-471,-798,958,150,-7449,1745156231188712228
634913,256,-455,-810,925,179,-7638,1745156231188712228
635105,238,-432,-820,845,131,-7613,1745156231188712228
635297,212,-396,-821,678,68,-7744,1745156231188712228
635489,205,-352,-813,418,230,-7867,1745156231188712228
635681,213,-289,-795,174,602,-8067,1745156231188712228
635873,217,-210,-774,134,946,-8111,1745156231188712228
