timestamp,gyr_x,gyr_y,gyr_z,acc_x,acc_y,acc_z,pkt_time_ns,series_id
44512,-90,35,-25,768,1209,-8515,1745153840875274307,0
44704,251,-48,8,467,894,-7463,1745153840875274307,0
44896,-87,9,-27,723,591,-8426,1745153840875274307,0
45088,-100,-48,-43,708,1118,-7893,1745153840875274307,0
45280,-125,-48,-15,609,1143,-7994,1745153840875274307,0
45472,-83,-83,0,603,990,-8043,1745153840875274307,0
45664,-111,-126,-3,599,1082,-8077,1745153840875274307,0
45856,-134,-131,-8,433,1088,-8146,1745153840875274307,0
46048,-146,-154,-2,263,1043,-8128,1745153840875274307,0
46240,-199,-158,17,51,1126,-8157,1745153840875274307,0
46432,-226,-154,40,-33,1182,-8235,1745153840875274307,0
46624,-220,-140,57,-171,1061,-8199,1745153840875274307,0
46816,-223,-101,56,-190,1124,-8251,1745153840924831407,0
47008,-207,-73,44,-192,1241,-8222,1745153840924831407,0
47200,-197,-48,33,-175,1303,-8254,1745153840924831407,0
47392,-175,-23,22,-97,1319,-8285,1745153840924831407,0
47584,-150,-6,17,-10,1323,-8278,1745153840924831407,0
47776,-137,4,17,80,1301,-8297,1745153840924831407,0
47968,-132,-2,21,165,1315,-8248,1745153840924831407,0
48160,-116,-5,26,216,1236,-8201,1745153840924831407,0
48352,-92,5,19,75,1156,-8220,1745153840924831407,0
48544,-69,28,1,-187,1125,-8233,1745153840924831407,0
48736,-58,61,-13,-345,1146,-8245,1745153840924831407,0
48928,-54,87,-20,-177,1145,-8262,1745153840924831407,0
49120,-57,93,-18,90,1153,-8277,1745153840974247622,0
49312,-69,92,-8,279,1132,-8284,1745153840974247622,0
49504,-81,91,4,329,1189,-8300,1745153840974247622,0
49696,-87,98,7,253,1310,-8335,1745153840974247622,0
49888,-83,112,2,126,1448,-8340,1745153840974247622,0
50080,-64,123,-4,165,1569,-8388,1745153840974247622,0
50272,-35,133,-29,308,1704,-8354,1745153840974247622,0
50464,-20,108,-54,386,1499,-7474,1745153840974247622,0
50656,-18,137,-44,550,1707,-9546,1745153840974247622,0
50848,74,75,-10,1067,2316,-7601,1745153840974247622,0
51040,175,29,-3,949,2398,-8098,1745153840974247622,0
51232,240,14,-6,796,2213,-8222,1745153840974247622,0
51424,296,8,-33,343,1822,-7798,1745153841032865524,0
51616,400,-26,-67,838,1318,-7838,1745153841032865524,0
51808,476,-91,-83,688,1100,-7692,1745153841032865524,0
52000,413,-42,-71,-1240,266,-7494,1745153841032865524,0
52192,285,196,-68,-2000,-349,-7666,1745153841032865524,0
52384,168,265,-70,-1360,-497,-7828,1745153841032865524,0
52576,73,361,-57,-515,-360,-7898,1745153841032865524,0
52768,-23,364,-26,318,-55,-8003,1745153841032865524,0
52960,-97,328,-1,1091,350,-8101,1745153841032865524,0
53152,-128,304,-7,1652,755,-8277,1745153841032865524,0
53344,-143,202,-35,1954,1048,-8353,1745153841032865524,0
53536,-118,96,-74,1982,1217,-8322,1745153841032865524,0
53728,-66,-22,-114,1773,1314,-8397,1745153841128160122,0
53920,-43,-93,-151,1378,1345,-8465,1745153841128160122,0
54112,-44,-131,-175,956,1343,-8546,1745153841128160122,0
54304,-56,-150,-177,610,1279,-8632,1745153841128160122,0
54496,-75,-147,-161,358,1175,-8619,1745153841128160122,0
54688,-95,-124,-139,203,1113,-8610,1745153841128160122,0
54880,-119,-94,-120,133,1043,-8671,1745153841128160122,0
55072,-144,-64,-111,189,972,-8694,1745153841128160122,0
55264,-171,-46,-114,327,921,-8564,1745153841128160122,0
55456,-208,-32,-132,460,920,-8474,1745153841128160122,0
55648,-259,-19,-156,550,888,-8539,1745153841128160122,0
55840,-300,-4,-172,592,905,-8625,1745153841128160122,0
56032,-325,7,-177,628,934,-8624,1745153841143253786,0
56224,-337,10,-175,664,957,-8503,1745153841143253786,0
56416,-342,13,-177,682,924,-8213,1745153841143253786,0
56608,-335,10,-186,712,803,-7961,1745153841143253786,0
56800,-321,-13,-200,848,626,-7947,1745153841143253786,0
56992,-323,-47,-220,940,525,-8021,1745153841143253786,0
57184,-357,-70,-241,994,488,-8037,1745153841143253786,0
57376,-427,-89,-260,945,411,-8076,1745153841143253786,0
57568,-486,-113,-273,890,292,-7963,1745153841143253786,0
57760,-499,-113,-283,784,207,-7935,1745153841143253786,0
57952,-493,-114,-317,768,361,-8351,1745153841143253786,0
58144,-481,-110,-377,736,723,-8511,1745153841143253786,0
58336,-506,-76,-427,744,978,-8450,1745153841206543260,0
58528,-517,-59,-463,749,1176,-8552,1745153841206543260,0
58720,-494,-47,-504,751,1400,-8622,1745153841206543260,0
58912,-509,-33,-545,778,1560,-8846,1745153841206543260,0
59104,-524,-22,-579,630,1889,-8790,1745153841206543260,0
59296,-471,65,-598,175,2562,-8956,1745153841206543260,0
59488,-409,186,-583,-172,2700,-9151,1745153841206543260,0
59680,-329,201,-555,-232,2422,-9807,1745153841206543260,0
59872,-206,219,-534,-154,2289,-9543,1745153841206543260,0
60064,-134,270,-502,114,2214,-9321,1745153841206543260,0
60256,-113,294,-469,532,2052,-9126,1745153841206543260,0
60448,-159,279,-440,1035,1681,-8953,1745153841206543260,0
60640,-275,208,-405,1546,929,-8846,1745153841285134886,0
60832,-404,74,-347,2005,92,-8694,1745153841285134886,0
61024,-514,-91,-280,2320,-391,-8531,1745153841285134886,0
61216,-651,-217,-236,2590,-610,-8938,1745153841285134886,0
61408,-856,-321,-255,2694,-662,-9727,1745153841285134886,0
61600,-1079,-483,-333,2519,-546,-10080,1745153841285134886,0
61792,-1239,-641,-396,2175,-389,-10271,1745153841285134886,0
61984,-1323,-694,-411,1869,139,-10825,1745153841285134886,0
62176,-1337,-704,-408,1681,770,-10703,1745153841285134886,0
62368,-1304,-734,-421,1566,1282,-10242,1745153841285134886,0
62560,-1226,-784,-444,1526,1556,-9822,1745153841285134886,0
62752,-1115,-837,-472,1557,1595,-9295,1745153841285134886,0
62944,-1020,-879,-479,1647,1493,-8881,1745153841323329173,0
63136,-959,-918,-467,1799,1349,-8602,1745153841323329173,0
63328,-942,-960,-443,1950,1280,-8290,1745153841323329173,0
63520,-977,-984,-382,2057,1228,-8110,1745153841323329173,0
63712,-1055,-1009,-301,2114,1120,-8035,1745153841323329173,0
63904,-1122,-1045,-217,2098,947,-7975,1745153841323329173,0
64096,-1159,-1084,-128,2070,960,-8063,1745153841323329173,0
64288,-1261,-1037,55,3450,2951,-8958,1745153841323329173,0
64480,-1559,-839,589,5734,3620,-8076,1745153841323329173,0
64672,-1466,-1108,1009,6751,3187,-8743,1745153841323329173,0
64864,-759,-1677,996,6295,3522,-9309,1745153841323329173,0
65056,18,-2054,703,4572,4019,-9346,1745153841323329173,0
65248,457,-2162,465,2558,3591,-8804,1745153841380320683,0
65440,654,-2095,406,1022,1992,-8137,1745153841380320683,0
65632,848,-1978,524,151,165,-7972,1745153841380320683,0
65824,1054,-1858,790,-150,-1142,-8078,1745153841380320683,0
66016,1158,-1752,1078,-120,-1930,-8231,1745153841380320683,0
66208,1142,-1654,1282,66,-2374,-8323,1745153841380320683,0
66400,1053,-1540,1400,200,-2649,-8293,1745153841380320683,0
66592,932,-1397,1465,485,-3148,-8035,1745153841380320683,0
66784,831,-1316,1424,671,-3306,-7629,1745153841380320683,0
66976,687,-1292,1380,807,-3355,-7749,1745153841380320683,0
67168,571,-1233,1413,883,-3340,-7702,1745153841380320683,0
67360,464,-1182,1468,860,-3170,-7718,1745153841380320683,0
67552,373,-1113,1539,714,-2817,-7869,1745153841437733648,0
67744,295,-1017,1649,563,-2491,-7905,1745153841437733648,0
67936,239,-953,1724,488,-2670,-7364,1745153841437733648,0
68128,247,-956,1701,320,-2236,-7583,1745153841437733648,0
68320,280,-895,1764,190,-2071,-7536,1745153841437733648,0
68512,311,-827,1838,116,-1993,-7411,1745153841437733648,0
68704,348,-751,1915,88,-1899,-7309,1745153841437733648,0
68896,388,-679,2001,93,-1785,-7208,1745153841437733648,0
69088,433,-620,2098,120,-1686,-7063,1745153841437733648,0
69280,490,-572,2202,168,-1532,-6995,1745153841437733648,0
69472,559,-530,2302,253,-1327,-6870,1745153841437733648,0
69664,636,-487,2389,314,-1114,-6808,1745153841437733648,0
69856,715,-434,2462,371,-891,-6802,1745153841497100398,0
70048,803,-386,2529,430,-690,-6829,1745153841497100398,0
70240,898,-345,2598,508,-555,-6888,1745153841497100398,0
70432,997,-311,2666,560,-436,-6987,1745153841497100398,0
70624,1089,-277,2732,592,-390,-7073,1745153841497100398,0
70816,1169,-237,2797,609,-301,-7170,1745153841497100398,0
71008,1240,-192,2868,620,-178,-7288,1745153841497100398,0
71200,1298,-137,2947,647,8,-7381,1745153841497100398,0
71392,1342,-77,3027,709,193,-7355,1745153841497100398,0
71584,1375,-17,3102,849,381,-7288,1745153841497100398,0
71776,1392,36,3169,1025,519,-7130,1745153841497100398,0
71968,1393,84,3229,1222,600,-6901,1745153841497100398,0
72160,1383,124,3282,1330,646,-6786,1745153841556475480,0
72352,1363,160,3328,1385,701,-6814,1745153841556475480,0
72544,1331,201,3371,1407,824,-6818,1745153841556475480,0
72736,1283,243,3406,1366,934,-6912,1745153841556475480,0
72928,1223,282,3443,1366,985,-7019,1745153841556475480,0
73120,1156,316,3484,1392,1010,-7012,1745153841556475480,0
73312,1094,354,3533,1388,1019,-7024,1745153841556475480,0
73504,1043,397,3590,1412,1053,-7104,1745153841556475480,0
73696,1003,441,3647,1476,1164,-7233,1745153841556475480,0
73888,976,480,3696,1517,1323,-7434,1745153841556475480,0
74080,962,529,3735,1559,1537,-7569,1745153841556475480,0
74272,967,591,3771,1611,1808,-7673,1745153841556475480,0
74464,989,657,3801,1704,2067,-7729,1745153841611154356,0
74656,1025,724,3830,1828,2337,-7681,1745153841611154356,0
74848,1072,788,3859,1983,2533,-7638,1745153841611154356,0
75040,1130,846,3890,2105,2692,-7698,1745153841611154356,0
75232,1201,904,3921,2201,2826,-7712,1745153841611154356,0
75424,1275,952,3943,2326,2936,-7740,1745153841611154356,0
75616,1351,999,3957,2446,3046,-7834,1745153841611154356,0
75808,1421,1051,3972,2596,2983,-7874,1745153841611154356,0
76000,1472,1090,3975,2856,2796,-7704,1745153841611154356,0
76192,1510,1102,3971,3166,2478,-7542,1745153841611154356,0
76384,1533,1126,3951,3295,2230,-7411,1745153841611154356,0
76576,1520,1154,3923,3378,1866,-7367,1745153841611154356,0
76768,1482,1172,3874,3460,1558,-7289,1745153841670233504,0
76960,1428,1177,3822,3480,1319,-7278,1745153841670233504,0
77152,1371,1195,3790,3493,1204,-7264,1745153841670233504,0
77344,1303,1217,3776,3592,1082,-7270,1745153841670233504,0
77536,1231,1241,3756,3715,987,-7304,1745153841670233504,0
77728,1158,1267,3727,3893,912,-7354,1745153841670233504,0
77920,1088,1281,3694,4096,902,-7479,1745153841670233504,0
78112,1014,1283,3664,4331,927,-7446,1745153841670233504,0
78304,931,1289,3641,4488,993,-7383,1745153841670233504,0
78496,844,1296,3620,4654,1078,-7349,1745153841670233504,0
78688,760,1311,3593,4757,1168,-7391,1745153841670233504,0
78880,680,1311,3566,4837,1332,-7490,1745153841670233504,0
79072,605,1312,3542,4897,1575,-7642,1745153841740214271,0
79264,543,1330,3515,4971,1817,-7800,1745153841740214271,0
79456,493,1347,3486,5100,2033,-7944,1745153841740214271,0
79648,458,1358,3457,5286,2135,-8047,1745153841740214271,0
79840,427,1358,3427,5450,2137,-8125,1745153841740214271,0
80032,398,1352,3398,5649,2041,-8195,1745153841740214271,0
80224,369,1339,3365,5789,1932,-8242,1745153841740214271,0
80416,335,1319,3332,5879,1859,-8295,1745153841740214271,0
80608,295,1293,3294,5911,1779,-8335,1745153841740214271,0
80800,254,1261,3249,5918,1742,-8354,1745153841740214271,0
80992,212,1234,3195,5883,1734,-8343,1745153841740214271,0
81184,171,1212,3137,5847,1752,-8357,1745153841740214271,0
81376,133,1192,3078,5822,1822,-8405,1745153841786629367,0
81568,96,1169,3020,5817,1911,-8409,1745153841786629367,0
81760,61,1147,2963,5860,2019,-8416,1745153841786629367,0
81952,32,1119,2901,5878,2081,-8455,1745153841786629367,0
82144,4,1086,2834,5921,2190,-8405,1745153841786629367,0
82336,-24,1052,2769,5961,2320,-8344,1745153841786629367,0
82528,-47,1016,2707,5985,2448,-8339,1745153841786629367,0
82720,-73,971,2643,5982,2560,-8367,1745153841786629367,0
82912,-100,901,2571,5877,2660,-8408,1745153841786629367,0
83104,-121,857,2490,5807,2701,-8355,1745153841786629367,0
83296,-136,804,2408,5662,2668,-8412,1745153841786629367,0
83488,-160,733,2334,5484,2644,-8396,1745153841786629367,0
83680,-185,688,2257,5313,2564,-8402,1745153841847053399,0
83872,-221,638,2170,5149,2507,-8381,1745153841847053399,0
84064,-261,596,2079,4996,2451,-8377,1745153841847053399,0
84256,-302,543,1995,4848,2428,-8373,1745153841847053399,0
84448,-342,502,1923,4738,2385,-8258,1745153841847053399,0
84640,-384,468,1842,4604,2363,-8259,1745153841847053399,0
84832,-426,425,1751,4522,2297,-8171,1745153841847053399,0
85024,-467,396,1653,4395,2304,-8138,1745153841847053399,0
85216,-504,360,1563,4290,2301,-8106,1745153841847053399,0
85408,-539,316,1478,4191,2283,-8069,1745153841847053399,0
85600,-567,280,1397,4085,2279,-8061,1745153841847053399,0
85792,-586,253,1316,3956,2287,-8043,1745153841847053399,0
85984,-598,233,1228,3890,2299,-7991,1745153841903636215,0
86176,-603,194,1143,3850,2267,-7905,1745153841903636215,0
86368,-603,153,1064,3761,2193,-7812,1745153841903636215,0
86560,-594,116,988,3612,2069,-7709,1745153841903636215,0
86752,-585,86,911,3472,1950,-7639,1745153841903636215,0
86944,-569,63,842,3308,1902,-7571,1745153841903636215,0
87136,-550,43,790,3166,1904,-7482,1745153841903636215,0
87328,-523,28,747,3070,1921,-7425,1745153841903636215,0
87520,-488,7,699,2964,1921,-7382,1745153841903636215,0
87712,-446,-7,648,2816,1907,-7338,1745153841903636215,0
87904,-396,-16,606,2689,1891,-7353,1745153841903636215,0
88096,-344,-20,576,2585,1833,-7458,1745153841903636215,0
88288,-295,-14,549,2545,1702,-7546,1745153841962698228,0
88480,-252,-8,526,2530,1563,-7626,1745153841962698228,0
88672,-216,1,506,2531,1434,-7705,1745153841962698228,0
88864,-186,7,490,2531,1358,-7746,1745153841962698228,0
89056,-161,13,477,2560,1304,-7734,1745153841962698228,0
89248,-136,19,464,2558,1248,-7715,1745153841962698228,0
89440,-115,22,448,2538,1246,-7687,1745153841962698228,0
89632,-98,23,427,2545,1218,-7659,1745153841962698228,0
89824,-84,21,404,2502,1202,-7599,1745153841962698228,0
90016,-72,22,384,2442,1185,-7547,1745153841962698228,0
90208,-58,23,365,2388,1185,-7538,1745153841962698228,0
90400,-38,29,346,2321,1120,-7539,1745153841962698228,0
90592,-17,37,322,2320,1040,-7550,1745153842020396503,0
90784,5,46,298,2331,920,-7582,1745153842020396503,0
90976,21,56,279,2363,810,-7634,1745153842020396503,0
91168,33,59,258,2434,753,-7661,1745153842020396503,0
91360,42,59,237,2493,712,-7690,1745153842020396503,0
91552,47,51,214,2523,633,-7734,1745153842020396503,0
91744,52,40,191,2553,524,-7757,1745153842020396503,0
91936,55,30,176,2544,439,-7773,1745153842020396503,0
92128,55,22,170,2518,362,-7801,1745153842020396503,0
92320,52,16,163,2477,313,-7835,1745153842020396503,0
92512,42,12,150,2417,282,-7857,1745153842020396503,0
92704,31,13,140,2370,225,-7867,1745153842020396503,0
92896,15,17,136,2330,140,-7902,1745153842080624546,0
93088,-6,25,132,2310,50,-7909,1745153842080624546,0
93280,-34,33,132,2290,22,-7868,1745153842080624546,0
93472,-63,40,132,2261,24,-7836,1745153842080624546,0
93664,-92,46,130,2258,56,-7796,1745153842080624546,0
93856,-121,52,122,2266,92,-7798,1745153842080624546,0
94048,-144,58,112,2278,113,-7785,1745153842080624546,0
94240,-157,66,102,2257,119,-7736,1745153842080624546,0
94432,-156,72,94,2284,97,-7700,1745153842080624546,0
94624,-143,72,83,2311,40,-7704,1745153842080624546,0
94816,-126,67,70,2309,-66,-7732,1745153842080624546,0
95008,-110,60,58,2302,-174,-7768,1745153842080624546,0
95200,-98,55,49,2279,-219,-7772,1745153842142427055,0
95392,-91,52,43,2255,-196,-7764,1745153842142427055,0
95584,-84,49,33,2242,-158,-7780,1745153842142427055,0
95776,-73,49,24,2252,-159,-7768,1745153842142427055,0
95968,-56,49,19,2264,-212,-7723,1745153842142427055,0
96160,-35,52,20,2293,-242,-7724,1745153842142427055,0
96352,-19,53,25,2307,-260,-7746,1745153842142427055,0
96544,-10,52,25,2328,-286,-7798,1745153842142427055,0
96736,-9,49,26,2310,-337,-7824,1745153842142427055,0
96928,-11,53,29,2283,-347,-7886,1745153842142427055,0
97120,-16,60,35,2247,-335,-7941,1745153842142427055,0
97312,-24,68,39,2232,-345,-7968,1745153842142427055,0
97504,-32,76,40,2242,-342,-7969,1745153842195478914,0
97696,-35,84,40,2257,-362,-7971,1745153842195478914,0
97888,-37,94,35,2271,-370,-8004,1745153842195478914,0
98080,-38,100,24,2304,-383,-8012,1745153842195478914,0
98272,-40,106,13,2366,-399,-8016,1745153842195478914,0
98464,-46,112,1,2454,-458,-8014,1745153842195478914,0
98656,-54,113,-8,2541,-508,-7986,1745153842195478914,0
98848,-58,106,-16,2608,-506,-7957,1745153842195478914,0
99040,-57,96,-24,2646,-449,-7885,1745153842195478914,0
99232,-50,79,-34,2673,-399,-7818,1745153842195478914,0
99424,-39,62,-47,2687,-382,-7784,1745153842195478914,0
99616,-25,43,-59,2656,-411,-7749,1745153842195478914,0
99808,-10,27,-69,2621,-481,-7750,1745153842255709926,0
100000,6,13,-77,2560,-553,-7758,1745153842255709926,0
100192,15,2,-85,2475,-635,-7801,1745153842255709926,0
100384,19,-5,-91,2422,-714,-7863,1745153842255709926,0
100576,17,-6,-92,2383,-787,-7882,1745153842255709926,0
100768,13,-5,-90,2367,-813,-7919,1745153842255709926,0
100960,8,0,-85,2374,-780,-7956,1745153842255709926,0
101152,0,5,-82,2382,-727,-7982,1745153842255709926,0
101344,-5,12,-80,2397,-690,-8000,1745153842255709926,0
101536,-8,16,-78,2427,-607,-8012,1745153842255709926,0
101728,-9,18,-75,2458,-576,-8023,1745153842255709926,0
101920,-8,20,-71,2477,-540,-8029,1745153842255709926,0
102112,-8,21,-70,2499,-546,-8037,1745153842351453322,0
102304,-10,22,-75,2484,-574,-8018,1745153842351453322,0
102496,-13,23,-82,2501,-609,-7996,1745153842351453322,0
102688,-15,24,-88,2491,-663,-7955,1745153842351453322,0
102880,-13,29,-91,2472,-692,-7916,1745153842351453322,0
103072,-2,29,-95,2508,-699,-7892,1745153842351453322,0
103264,12,26,-101,2528,-713,-7867,1745153842351453322,0
103456,25,21,-108,2560,-735,-7846,1745153842351453322,0
103648,34,15,-113,2584,-774,-7825,1745153842351453322,0
103840,41,6,-118,2593,-823,-7832,1745153842351453322,0
104032,46,-2,-123,2612,-876,-7815,1745153842351453322,0
104224,46,-11,-127,2598,-887,-7796,1745153842351453322,0
104416,45,-20,-127,2569,-910,-7783,1745153842367450520,0
104608,45,-26,-124,2567,-902,-7793,1745153842367450520,0
104800,46,-32,-121,2552,-910,-7788,1745153842367450520,0
104992,46,-37,-116,2527,-923,-7776,1745153842367450520,0
105184,46,-36,-107,2520,-969,-7780,1745153842367450520,0
105376,46,-35,-100,2518,-999,-7811,1745153842367450520,0
105568,44,-30,-94,2508,-996,-7833,1745153842367450520,0
105760,40,-25,-87,2488,-959,-7838,1745153842367450520,0
105952,34,-20,-80,2459,-945,-7846,1745153842367450520,0
106144,30,-15,-72,2449,-935,-7846,1745153842367450520,0
106336,28,-8,-63,2435,-944,-7827,1745153842367450520,0
106528,28,0,-55,2429,-974,-7822,1745153842367450520,0
106720,24,7,-49,2414,-1001,-7815,1745153842429151519,0
106912,16,14,-43,2414,-1036,-7793,1745153842429151519,0
107104,11,21,-35,2405,-1011,-7757,1745153842429151519,0
107296,12,27,-28,2398,-978,-7718,1745153842429151519,0
107488,18,33,-26,2412,-930,-7711,1745153842429151519,0
107680,25,39,-28,2448,-919,-7718,1745153842429151519,0
107872,33,43,-30,2474,-935,-7678,1745153842429151519,0
108064,45,41,-30,2497,-958,-7650,1745153842429151519,0
108256,56,24,-27,2503,-986,-7661,1745153842429151519,0
108448,57,30,-24,2536,-1035,-7544,1745153842429151519,0
108640,65,44,-25,2540,-1056,-7588,1745153842429151519,0
108832,57,26,-24,2588,-1048,-7540,1745153842429151519,0
109024,53,33,-22,2567,-1039,-7579,1745153842488253375,0
109216,49,33,-22,2581,-969,-7623,1745153842488253375,0
109408,51,39,-19,2565,-901,-7694,1745153842488253375,0
109600,57,42,-17,2596,-857,-7742,1745153842488253375,0
109792,66,42,-19,2604,-807,-7820,1745153842488253375,0
109984,75,40,-20,2636,-792,-7872,1745153842488253375,0
110176,79,35,-21,2595,-767,-7908,1745153842488253375,0
110368,79,29,-23,2609,-765,-7904,1745153842488253375,0
110560,82,40,-30,2601,-766,-7955,1745153842488253375,0
110752,85,31,-36,2628,-794,-7947,1745153842488253375,0
110944,90,29,-42,2630,-834,-7941,1745153842488253375,0
111136,95,21,-50,2623,-835,-7950,1745153842488253375,0
111328,94,15,-60,2630,-813,-7994,1745153842559222987,0
111520,85,13,-72,2618,-748,-8012,1745153842559222987,0
111712,73,10,-90,2614,-696,-8019,1745153842559222987,0
111904,67,6,-107,2628,-607,-7970,1745153842559222987,0
112096,69,0,-122,2642,-549,-7933,1745153842559222987,0
112288,76,-11,-136,2660,-491,-7917,1745153842559222987,0
112480,84,-22,-152,2693,-463,-7897,1745153842559222987,0
112672,91,-34,-168,2698,-416,-7892,1745153842559222987,0
112864,97,-47,-186,2695,-359,-7919,1745153842559222987,0
113056,100,-58,-204,2714,-268,-7943,1745153842559222987,0
113248,103,-67,-225,2721,-148,-7989,1745153842559222987,0
113440,109,-74,-247,2727,-22,-8025,1745153842559222987,0
113632,114,-81,-271,2752,78,-8102,1745153842603053524,0
113824,117,-88,-297,2801,142,-8198,1745153842603053524,0
114016,115,-94,-321,2841,238,-8297,1745153842603053524,0
114208,108,-99,-346,2899,367,-8408,1745153842603053524,0
114400,96,-102,-372,2972,562,-8499,1745153842603053524,0
114592,78,-106,-404,3052,752,-8563,1745153842603053524,0
114784,54,-111,-442,3147,957,-8597,1745153842603053524,0
114976,26,-117,-484,3263,1160,-8626,1745153842603053524,0
115168,-2,-123,-528,3331,1371,-8642,1745153842603053524,0
115360,-32,-132,-575,3465,1623,-8656,1745153842603053524,0
115552,-65,-138,-627,3554,1895,-8634,1745153842603053524,0
115744,-101,-146,-688,3687,2132,-8587,1745153842603053524,0
115936,-133,-160,-758,3819,2359,-8509,1745153842664437130,0
116128,-160,-180,-836,3936,2565,-8397,1745153842664437130,0
116320,-175,-203,-921,4022,2793,-8332,1745153842664437130,0
116512,-178,-226,-1013,4102,3026,-8278,1745153842664437130,0
116704,-172,-253,-1122,4182,3216,-8302,1745153842664437130,0
116896,-159,-272,-1240,4260,3336,-8377,1745153842664437130,0
117088,-143,-290,-1362,4387,3349,-8435,1745153842664437130,0
117280,-131,-316,-1484,4544,3318,-8422,1745153842664437130,0
117472,-125,-351,-1613,4707,3308,-8384,1745153842664437130,0
117664,-125,-386,-1743,4838,3362,-8345,1745153842664437130,0
117856,-122,-413,-1867,4939,3526,-8288,1745153842664437130,0
118048,-112,-452,-1992,5043,3732,-8249,1745153842664437130,0
118240,-92,-497,-2118,5161,3895,-8182,1745153842728536024,0
118432,-66,-544,-2239,5222,4046,-8118,1745153842728536024,0
118624,-27,-588,-2356,5313,4168,-7966,1745153842728536024,0
118816,17,-640,-2465,5356,4266,-7955,1745153842728536024,0
119008,68,-690,-2577,5411,4391,-7850,1745153842728536024,0
119200,130,-739,-2691,5452,4454,-7722,1745153842728536024,0
119392,209,-798,-2826,5439,4504,-7601,1745153842728536024,0
119584,305,-884,-2980,5478,4573,-7591,1745153842728536024,0
119776,391,-949,-3100,5459,4801,-7936,1745153842728536024,0
119968,445,-945,-3128,5501,4715,-7934,1745153842728536024,0
120160,498,-937,-3141,5543,4388,-7776,1745153842728536024,0
120352,548,-965,-3186,5580,4134,-7764,1745153842728536024,0
120544,591,-1006,-3241,5594,3868,-7722,1745153842779177748,0
120736,625,-1046,-3295,5574,3624,-7671,1745153842779177748,0
120928,651,-1087,-3349,5505,3376,-7609,1745153842779177748,0
121120,662,-1124,-3407,5359,3167,-7631,1745153842779177748,0
121312,661,-1155,-3465,5179,3007,-7637,1745153842779177748,0
121504,650,-1178,-3523,4973,2857,-7601,1745153842779177748,0
121696,638,-1192,-3573,4739,2752,-7601,1745153842779177748,0
121888,626,-1195,-3615,4512,2654,-7647,1745153842779177748,0
122080,615,-1191,-3654,4345,2548,-7628,1745153842779177748,0
122272,597,-1187,-3691,4238,2385,-7646,1745153842779177748,0
122464,573,-1183,-3729,4163,2192,-7573,1745153842779177748,0
122656,542,-1178,-3760,4132,1968,-7509,1745153842779177748,0
122848,506,-1179,-3787,4127,1747,-7479,1745153842908549379,0
123040,467,-1184,-3808,4106,1566,-7406,1745153842908549379,0
123232,423,-1190,-3826,4019,1454,-7321,1745153842908549379,0
123424,388,-1198,-3843,3893,1399,-7289,1745153842908549379,0
123616,366,-1202,-3857,3715,1401,-7340,1745153842908549379,0
123808,360,-1198,-3869,3491,1451,-7412,1745153842908549379,0
124000,368,-1191,-3875,3311,1452,-7421,1745153842908549379,0
124192,386,-1182,-3877,3165,1369,-7365,1745153842908549379,0
124384,409,-1174,-3878,3050,1145,-7292,1745153842908549379,0
124576,432,-1165,-3872,2905,837,-7277,1745153842908549379,0
124768,452,-1155,-3856,2745,562,-7405,1745153842908549379,0
124960,468,-1140,-3833,2583,382,-7585,1745153842908549379,0
125152,475,-1113,-3808,2436,284,-7685,1745153842917142061,0
125344,468,-1081,-3787,2300,221,-7664,1745153842917142061,0
125536,452,-1048,-3766,2221,96,-7532,1745153842917142061,0
125728,440,-1015,-3740,2155,-101,-7420,1745153842917142061,0
125920,437,-983,-3711,2068,-280,-7394,1745153842917142061,0
126112,442,-958,-3676,2017,-393,-7375,1745153842917142061,0
126304,441,-936,-3637,1977,-498,-7255,1745153842917142061,0
126496,421,-912,-3603,1981,-622,-7012,1745153842917142061,0
126688,384,-885,-3570,1987,-787,-6785,1745153842917142061,0
126880,339,-856,-3533,2003,-941,-6653,1745153842917142061,0
127072,292,-828,-3498,1958,-1071,-6639,1745153842917142061,0
127264,250,-808,-3476,1894,-1091,-6737,1745153842917142061,0
127456,215,-790,-3461,1811,-981,-6898,1745153842961364678,0
127648,189,-759,-3445,1763,-838,-7096,1745153842961364678,0
127840,176,-714,-3424,1768,-703,-7213,1745153842961364678,0
128032,180,-694,-3397,1842,-722,-7225,1745153842961364678,0
128224,195,-696,-3367,1926,-917,-7068,1745153842961364678,0
128416,219,-683,-3329,2007,-1226,-7024,1745153842961364678,0
128608,238,-699,-3288,1983,-1555,-7098,1745153842961364678,0
128800,246,-710,-3250,1875,-1809,-7200,1745153842961364678,0
128992,234,-714,-3215,1695,-1973,-7183,1745153842961364678,0
129184,198,-701,-3177,1493,-2056,-7075,1745153842961364678,0
129376,143,-675,-3132,1346,-2169,-6932,1745153842961364678,0
129568,92,-657,-3097,1166,-2205,-6877,1745153842961364678,0
129760,57,-633,-3063,983,-1988,-7129,1745153843020599970,0
129952,37,-589,-3012,857,-1708,-7223,1745153843020599970,0
130144,21,-534,-2966,886,-1412,-7214,1745153843020599970,0
130336,10,-474,-2928,1030,-1268,-7159,1745153843020599970,0
130528,19,-456,-2889,1168,-1259,-7113,1745153843020599970,0
130720,45,-434,-2841,1270,-1384,-7062,1745153843020599970,0
130912,84,-414,-2780,1312,-1530,-7158,1745153843020599970,0
131104,115,-417,-2719,1284,-1734,-7216,1745153843020599970,0
131296,133,-414,-2666,1187,-1930,-7261,1745153843020599970,0
131488,134,-409,-2621,1051,-2102,-7259,1745153843020599970,0
131680,120,-395,-2581,874,-2252,-7218,1745153843020599970,0
131872,91,-380,-2540,701,-2332,-7180,1745153843020599970,0
132064,55,-361,-2492,525,-2357,-7153,1745153843077293515,0
132256,17,-334,-2433,410,-2325,-7093,1745153843077293515,0
132448,-13,-298,-2367,307,-2280,-7023,1745153843077293515,0
132640,-29,-257,-2300,304,-2251,-6874,1745153843077293515,0
132832,-27,-218,-2233,292,-2205,-6923,1745153843077293515,0
133024,-15,-183,-2160,341,-2233,-6832,1745153843077293515,0
133216,1,-155,-2092,371,-2305,-6847,1745153843077293515,0
133408,13,-131,-2029,386,-2432,-6896,1745153843077293515,0
133600,16,-108,-1969,363,-2544,-6980,1745153843077293515,0
133792,12,-79,-1913,307,-2602,-7201,1745153843077293515,0
133984,5,-45,-1852,243,-2585,-7411,1745153843077293515,0
134176,3,-9,-1787,246,-2508,-7603,1745153843077293515,0
134368,6,31,-1718,295,-2366,-7724,1745153843136563130,0
134560,16,69,-1649,395,-2216,-7832,1745153843136563130,0
134752,36,101,-1583,539,-2090,-7955,1745153843136563130,0
134944,66,123,-1516,677,-1944,-8072,1745153843136563130,0
135136,100,139,-1446,795,-1811,-8072,1745153843136563130,0
135328,132,145,-1374,896,-1735,-8063,1745153843136563130,0
135520,155,146,-1299,994,-1723,-8022,1745153843136563130,0
135712,167,142,-1221,1064,-1789,-7907,1745153843136563130,0
135904,166,137,-1137,1104,-1974,-7765,1745153843136563130,0
136096,147,131,-1053,1112,-2204,-7641,1745153843136563130,0
136288,113,123,-977,1048,-2462,-7498,1745153843136563130,0
136480,66,117,-909,939,-2685,-7463,1745153843136563130,0
136672,13,121,-853,778,-2785,-7576,1745153843210758493,0
136864,-38,137,-802,642,-2806,-7751,1745153843210758493,0
137056,-81,163,-761,548,-2729,-7768,1745153843210758493,0
137248,-113,192,-732,572,-2650,-7720,1745153843210758493,0
137440,-129,217,-710,664,-2564,-7712,1745153843210758493,0
137632,-135,236,-694,817,-2458,-7712,1745153843210758493,0
137824,-132,249,-675,944,-2350,-7721,1745153843210758493,0
138016,-121,254,-654,1056,-2256,-7768,1745153843210758493,0
138208,-102,255,-638,1136,-2137,-7816,1745153843210758493,0
138400,-72,250,-619,1213,-2010,-7839,1745153843210758493,0
138592,-36,243,-594,1253,-1837,-7853,1745153843210758493,0
138784,5,239,-558,1275,-1692,-7800,1745153843210758493,0
138976,47,237,-516,1321,-1606,-7735,1745153843270807841,0
139168,92,229,-472,1378,-1631,-7678,1745153843270807841,0
139360,137,220,-427,1384,-1713,-7703,1745153843270807841,0
139552,176,207,-383,1382,-1858,-7690,1745153843270807841,0
139744,198,199,-340,1347,-2037,-7693,1745153843270807841,0
139936,202,195,-305,1293,-2255,-7733,1745153843270807841,0
140128,188,200,-274,1220,-2393,-7834,1745153843270807841,0
140320,159,216,-243,1106,-2428,-7930,1745153843270807841,0
140512,115,244,-212,1035,-2376,-7961,1745153843270807841,0
140704,64,276,-175,998,-2286,-7952,1745153843270807841,0
140896,11,311,-135,1026,-2134,-7939,1745153843270807841,0
141088,-34,346,-108,1094,-1962,-7921,1745153843270807841,0
141280,-60,376,-82,1184,-1807,-7895,1745153843319954006,0
141472,-73,398,-51,1287,-1731,-7818,1745153843319954006,0
141664,-69,418,-21,1386,-1710,-7864,1745153843319954006,0
141856,-54,431,3,1459,-1691,-8010,1745153843319954006,0
142048,-39,447,23,1532,-1701,-8120,1745153843319954006,0
142240,-31,457,45,1639,-1714,-8150,1745153843319954006,0
142432,-25,462,70,1712,-1741,-8179,1745153843319954006,0
142624,-21,465,104,1809,-1738,-8103,1745153843319954006,0
142816,-13,465,137,1895,-1715,-8088,1745153843319954006,0
143008,2,465,155,1956,-1635,-8164,1745153843319954006,0
143200,22,469,160,1988,-1497,-8239,1745153843319954006,0
143392,45,475,160,2033,-1341,-8244,1745153843319954006,0
143584,69,479,160,2107,-1226,-8204,1745153843372319205,0
143776,88,475,169,2156,-1226,-8132,1745153843372319205,0
143968,106,468,192,2190,-1270,-8085,1745153843372319205,0
144160,117,458,221,2204,-1344,-8071,1745153843372319205,0
144352,122,443,254,2173,-1488,-8076,1745153843372319205,0
144544,116,433,280,2109,-1646,-8092,1745153843372319205,0
144736,93,428,298,2021,-1818,-8112,1745153843372319205,0
144928,51,435,311,1931,-1950,-8090,1745153843372319205,0
145120,-2,453,317,1860,-2021,-8083,1745153843372319205,0
145312,-67,471,320,1839,-2022,-8001,1745153843372319205,0
145504,-131,489,319,1839,-1988,-7798,1745153843372319205,0
145696,-187,498,325,1904,-1946,-7586,1745153843372319205,0
145888,-234,500,332,2015,-1938,-7456,1745153843426574126,0
146080,-276,485,332,2135,-1927,-7504,1745153843426574126,0
146272,-313,462,323,2332,-1884,-7658,1745153843426574126,0
146464,-356,418,310,2561,-1817,-7853,1745153843426574126,0
146656,-405,363,292,2781,-1679,-8109,1745153843426574126,0
146848,-453,305,268,2952,-1466,-8306,1745153843426574126,0
147040,-491,245,243,3034,-1240,-8418,1745153843426574126,0
147232,-497,185,226,3083,-988,-8544,1745153843426574126,0
147424,-466,122,218,3032,-740,-8677,1745153843426574126,0
147616,-389,38,209,2934,-532,-8751,1745153843426574126,0
147808,-272,-46,196,2777,-367,-8712,1745153843426574126,0
148000,-135,-123,176,2601,-260,-8630,1745153843426574126,0
148192,-9,-180,157,2390,-206,-8563,1745153843486964668,0
148384,82,-218,144,2172,-311,-8451,1745153843486964668,0
148576,131,-241,136,1949,-555,-8326,1745153843486964668,0
148768,144,-252,132,1718,-879,-8170,1745153843486964668,0
148960,127,-255,133,1532,-1145,-8034,1745153843486964668,0
149152,101,-246,142,1345,-1299,-7882,1745153843486964668,0
149344,74,-225,163,1187,-1305,-7715,1745153843486964668,0
149536,40,-200,189,1058,-1192,-7562,1745153843486964668,0
149728,3,-174,209,940,-1025,-7483,1745153843486964668,0
149920,-32,-144,218,918,-860,-7406,1745153843486964668,0
150112,-58,-121,210,939,-734,-7393,1745153843486964668,0
150304,-68,-106,184,992,-555,-7449,1745153843486964668,0
150496,-62,-84,149,1039,-359,-7573,1745153843579945642,0
150688,-52,-57,109,1098,-145,-7764,1745153843579945642,0
150880,-44,-39,71,1127,64,-7974,1745153843579945642,0
151072,-31,-22,46,1186,255,-8165,1745153843579945642,0
151264,-7,-3,34,1224,428,-8366,1745153843579945642,0
151456,30,7,36,1266,521,-8616,1745153843579945642,0
151648,68,10,46,1319,582,-8837,1745153843579945642,0
151840,103,11,50,1332,534,-9055,1745153843579945642,0
152032,133,-4,58,1340,434,-9281,1745153843579945642,0
152224,150,-46,65,1302,312,-9398,1745153843579945642,0
152416,160,-75,77,1233,167,-9556,1745153843579945642,0
152608,157,-97,88,1143,55,-9652,1745153843579945642,0
152800,144,-108,97,1050,-46,-9626,1745153843605809885,0
152992,124,-128,107,899,-152,-9520,1745153843605809885,0
153184,103,-126,118,758,-245,-9373,1745153843605809885,0
153376,86,-109,132,692,-347,-9241,1745153843605809885,0
153568,65,-98,141,698,-420,-9025,1745153843605809885,0
153760,38,-95,142,680,-503,-8766,1745153843605809885,0
153952,2,-89,138,671,-579,-8564,1745153843605809885,0
154144,-36,-77,131,675,-580,-8423,1745153843605809885,0
154336,-65,-65,122,678,-557,-8297,1745153843605809885,0
154528,-87,-56,109,681,-490,-8202,1745153843605809885,0
154720,-99,-45,96,636,-430,-8158,1745153843605809885,0
154912,-102,-29,89,634,-416,-8127,1745153843605809885,0
155104,-96,-24,87,639,-437,-8085,1745153843660167513,0
155296,-82,-25,85,630,-498,-8169,1745153843660167513,0
155488,-58,-22,84,585,-550,-8280,1745153843660167513,0
155680,-33,-14,84,542,-653,-8332,1745153843660167513,0
155872,-17,-3,89,513,-770,-8350,1745153843660167513,0
156064,-10,5,97,493,-854,-8376,1745153843660167513,0
156256,-7,4,101,505,-922,-8401,1745153843660167513,0
156448,-7,0,98,524,-897,-8321,1745153843660167513,0
156640,-14,0,91,532,-840,-8244,1745153843660167513,0
156832,-27,6,88,530,-748,-8209,1745153843660167513,0
157024,-42,13,88,536,-642,-8192,1745153843660167513,0
157216,-57,19,87,534,-528,-8176,1745153843660167513,0
157408,-69,21,83,552,-415,-8132,1745153843727240546,0
157600,-75,24,75,533,-323,-8071,1745153843727240546,0
157792,-74,25,72,513,-270,-8023,1745153843727240546,0
157984,-70,26,73,509,-215,-7969,1745153843727240546,0
158176,-60,34,68,554,-191,-7923,1745153843727240546,0
158368,-43,42,56,623,-138,-7897,1745153843727240546,0
158560,-24,46,40,702,-122,-7887,1745153843727240546,0
158752,-4,44,23,790,-125,-7867,1745153843727240546,0
158944,17,38,11,857,-171,-7830,1745153843727240546,0
159136,36,32,4,900,-290,-7812,1745153843727240546,0
159328,50,26,2,931,-432,-7842,1745153843727240546,0
159520,57,24,5,935,-565,-7931,1745153843727240546,0
159712,58,23,13,894,-689,-8048,1745153843782890611,0
159904,48,27,22,851,-741,-8173,1745153843782890611,0
160096,28,36,29,836,-736,-8288,1745153843782890611,0
160288,6,42,28,823,-700,-8379,1745153843782890611,0
160480,-12,46,26,820,-623,-8458,1745153843782890611,0
160672,-23,46,25,857,-516,-8490,1745153843782890611,0
160864,-30,42,24,870,-381,-8503,1745153843782890611,0
161056,-37,38,23,853,-288,-8507,1745153843782890611,0
161248,-41,35,21,812,-209,-8462,1745153843782890611,0
161440,-41,33,19,763,-189,-8394,1745153843782890611,0
161632,-40,32,15,740,-210,-8337,1745153843782890611,0
161824,-39,30,13,705,-284,-8233,1745153843782890611,0
162016,-38,29,12,680,-361,-8163,1745153843836290904,0
162208,-38,26,11,648,-432,-8040,1745153843836290904,0
162400,-223,-38,-23,1055,-1797,-6524,1745153843836290904,0
162592,-710,-139,-228,276,-2917,-8441,1745153843836290904,0
162784,-540,-9,-116,-13,-2953,-8540,1745153843836290904,0
162976,-565,79,-22,185,-1693,-7630,1745153843836290904,0
163168,-532,76,49,432,37,-7603,1745153843836290904,0
163360,-486,108,52,448,385,-7586,1745153843836290904,0
163552,-429,117,-29,361,549,-7780,1745153843836290904,0
163744,-353,126,-100,567,513,-7849,1745153843836290904,0
163936,-246,112,-115,855,667,-7887,1745153843836290904,0
164128,-134,85,-86,1007,702,-7964,1745153843836290904,0
164320,-46,55,-52,1021,666,-8009,1745153843895756767,0
164512,19,26,-29,969,655,-8053,1745153843895756767,0
164704,75,-1,-11,958,648,-8083,1745153843895756767,0
164896,122,-30,3,935,569,-8138,1745153843895756767,0
165088,160,-53,8,835,469,-8193,1745153843895756767,0
165280,188,-65,6,683,297,-8235,1745153843895756767,0
165472,203,-66,1,491,102,-8253,1745153843895756767,0
165664,210,-58,-3,337,-46,-8240,1745153843895756767,0
165856,215,-45,-2,292,-149,-8168,1745153843895756767,0
166048,213,-36,1,378,-297,-8134,1745153843895756767,0
166240,199,-35,4,535,-456,-8104,1745153843895756767,0
166432,180,-46,6,686,-572,-8021,1745153843895756767,0
166624,162,-64,11,815,-645,-7965,1745153843953854622,0
166816,147,-90,16,911,-669,-7917,1745153843953854622,0
167008,133,-120,17,886,-671,-7885,1745153843953854622,0
167200,123,-147,13,796,-637,-7837,1745153843953854622,0
167392,115,-168,6,686,-582,-7800,1745153843953854622,0
167584,118,-179,6,547,-530,-7797,1745153843953854622,0
167776,130,-179,12,416,-455,-7828,1745153843953854622,0
167968,146,-164,13,339,-413,-7919,1745153843953854622,0
168160,154,-143,6,319,-402,-7999,1745153843953854622,0
168352,154,-120,-1,326,-428,-8059,1745153843953854622,0
168544,152,-96,-7,350,-491,-8148,1745153843953854622,0
168736,146,-76,-12,367,-565,-8215,1745153843953854622,0
202336,73,15,25,553,217,-8014,1745153844860780556,1
202528,119,-22,21,363,-993,-7955,1745153844860780556,1
202720,-39,-3,-6,535,-502,-8143,1745153844860780556,1
202912,-57,-32,16,406,-333,-7879,1745153844860780556,1
203104,-47,-17,32,448,-322,-8051,1745153844860780556,1
203296,-41,-16,20,489,-273,-8046,1745153844860780556,1
203488,-58,-35,9,481,-218,-8060,1745153844860780556,1
203680,-43,-30,6,419,-212,-8141,1745153844860780556,1
203872,-48,-23,5,359,-244,-8220,1745153844860780556,1
204064,-59,-21,3,310,-249,-8326,1745153844860780556,1
204256,-61,-9,3,297,-178,-8372,1745153844860780556,1
204448,-79,-4,5,326,-81,-8387,1745153844860780556,1
204640,-83,2,8,366,2,-8385,1745153844921503751,1
204832,-89,13,8,393,54,-8372,1745153844921503751,1
205024,-97,16,9,456,52,-8320,1745153844921503751,1
205216,-94,18,8,509,54,-8270,1745153844921503751,1
205408,-91,21,9,565,68,-8199,1745153844921503751,1
205600,-86,17,10,632,78,-8142,1745153844921503751,1
205792,-77,15,12,680,66,-8117,1745153844921503751,1
205984,-73,14,13,690,-11,-8087,1745153844921503751,1
206176,-67,14,10,667,-124,-8072,1745153844921503751,1
206368,-62,18,7,659,-188,-8043,1745153844921503751,1
206560,-57,21,5,666,-187,-8052,1745153844921503751,1
206752,-48,23,3,733,-127,-8038,1745153844921503751,1
206944,-37,26,2,771,-71,-8046,1745153844974965138,1
207136,-20,26,-2,819,-8,-8088,1745153844974965138,1
207328,-1,25,-4,817,18,-8180,1745153844974965138,1
207520,17,31,-7,763,45,-8287,1745153844974965138,1
207712,35,44,-8,670,97,-8359,1745153844974965138,1
207904,56,63,-9,602,130,-8439,1745153844974965138,1
208096,82,81,-10,569,183,-8530,1745153844974965138,1
208288,109,100,-8,591,294,-8592,1745153844974965138,1
208480,137,115,-3,686,387,-8668,1745153844974965138,1
208672,162,119,2,829,371,-8741,1745153844974965138,1
208864,157,94,6,809,-338,-8334,1745153844974965138,1
209056,-1,72,-11,945,-807,-9865,1745153844974965138,1
209248,154,100,14,1169,1258,-8533,1745153845056257208,1
209440,375,77,62,1220,677,-8794,1745153845056257208,1
209632,550,137,25,1454,-134,-9329,1745153845056257208,1
209824,675,118,-9,1389,0,-9390,1745153845056257208,1
210016,310,-7,-28,1610,-8,-9173,1745153845056257208,1
210208,169,-104,-12,1708,-347,-9648,1745153845056257208,1
210400,-492,-224,52,3365,-6191,-9978,1745153845056257208,1
210592,-736,-339,-130,2931,-5313,-9479,1745153845056257208,1
210784,-986,-408,-163,2121,-4038,-9299,1745153845056257208,1
210976,-1193,-449,-112,1450,-2385,-9077,1745153845056257208,1
211168,-1306,-401,-101,975,-847,-8986,1745153845056257208,1
211360,-1291,-332,-166,575,432,-9075,1745153845056257208,1
211552,-1236,-239,-268,459,1254,-9070,1745153845092440158,1
211744,-1124,-144,-364,681,1641,-8979,1745153845092440158,1
211936,-977,-82,-433,1086,1681,-8653,1745153845092440158,1
212128,-827,-29,-457,1407,1556,-8420,1745153845092440158,1
212320,-711,17,-438,1717,1422,-8728,1745153845092440158,1
212512,-625,52,-414,1988,1320,-8858,1745153845092440158,1
212704,-563,77,-408,2140,1306,-8778,1745153845092440158,1
212896,-501,95,-401,2239,1256,-8726,1745153845092440158,1
213088,-402,110,-387,2332,1144,-8551,1745153845092440158,1
213280,-274,133,-378,2422,1017,-8336,1745153845092440158,1
213472,-168,157,-385,2569,806,-8614,1745153845092440158,1
213664,-99,154,-404,2829,471,-9034,1745153845092440158,1
213856,-40,119,-418,3108,82,-9379,1745153845181171275,1
214048,42,54,-420,3335,-337,-9548,1745153845181171275,1
214240,150,-25,-414,3428,-644,-9617,1745153845181171275,1
214432,271,-108,-415,3327,-919,-9547,1745153845181171275,1
214624,378,-176,-431,3050,-1121,-9554,1745153845181171275,1
214816,452,-227,-449,2659,-1331,-9650,1745153845181171275,1
215008,492,-262,-461,2280,-1498,-9689,1745153845181171275,1
215200,500,-273,-463,2074,-1661,-9742,1745153845181171275,1
215392,471,-277,-460,2015,-1879,-9622,1745153845181171275,1
215584,403,-304,-455,2077,-2156,-9455,1745153845181171275,1
215776,313,-345,-449,2222,-2392,-9182,1745153845181171275,1
215968,190,-368,-425,2484,-2513,-8934,1745153845181171275,1
216160,-12,-334,-322,3252,-2512,-8546,1745153845219529935,1
216352,-256,-353,-165,4047,-2596,-8412,1745153845219529935,1
216544,-366,-539,-75,4557,-2464,-8453,1745153845219529935,1
216736,-357,-763,-45,4715,-2079,-8516,1745153845219529935,1
216928,-325,-941,-18,4645,-1753,-8630,1745153845219529935,1
217120,-282,-1089,6,4344,-1767,-8654,1745153845219529935,1
217312,-209,-1242,21,3826,-2046,-8681,1745153845219529935,1
217504,-119,-1368,52,3163,-2410,-8805,1745153845219529935,1
217696,-41,-1451,103,2520,-2762,-8936,1745153845219529935,1
217888,-3,-1483,163,1905,-3145,-8991,1745153845219529935,1
218080,1,-1473,224,1348,-3418,-8933,1745153845219529935,1
218272,-20,-1428,289,917,-3615,-8815,1745153845219529935,1
218464,-55,-1359,361,581,-3730,-8678,1745153845268576362,1
218656,-96,-1277,439,383,-3721,-8581,1745153845268576362,1
218848,-137,-1185,523,270,-3694,-8394,1745153845268576362,1
219040,-170,-1090,605,298,-3584,-8258,1745153845268576362,1
219232,-182,-999,694,339,-3417,-8189,1745153845268576362,1
219424,-173,-910,781,434,-3319,-8117,1745153845268576362,1
219616,-148,-847,847,515,-3284,-7977,1745153845268576362,1
219808,-109,-774,899,526,-3339,-7833,1745153845268576362,1
220000,-67,-709,951,459,-3447,-7742,1745153845268576362,1
220192,-24,-642,1012,348,-3560,-7665,1745153845268576362,1
220384,32,-577,1078,205,-3579,-7621,1745153845268576362,1
220576,92,-514,1164,90,-3549,-7585,1745153845268576362,1
220768,162,-454,1247,31,-3515,-7530,1745153845328156495,1
220960,228,-386,1328,-3,-3433,-7420,1745153845328156495,1
221152,280,-298,1440,-26,-3410,-7218,1745153845328156495,1
221344,334,-249,1510,70,-3767,-6613,1745153845328156495,1
221536,461,-241,1530,-38,-3451,-6898,1745153845328156495,1
221728,557,-192,1605,-86,-3380,-6946,1745153845328156495,1
221920,650,-150,1674,-200,-3277,-7098,1745153845328156495,1
222112,741,-94,1745,-273,-3195,-7248,1745153845328156495,1
222304,830,-40,1823,-262,-3143,-7260,1745153845328156495,1
222496,915,12,1914,-194,-3131,-7235,1745153845328156495,1
222688,991,62,2005,-91,-3155,-7232,1745153845328156495,1
222880,1056,106,2087,-4,-3126,-7282,1745153845328156495,1
223072,1107,157,2163,2,-3171,-7377,1745153845385046288,1
223264,1144,204,2225,27,-3196,-7511,1745153845385046288,1
223456,1166,257,2285,48,-3184,-7649,1745153845385046288,1
223648,1180,315,2356,55,-3194,-7758,1745153845385046288,1
223840,1188,371,2429,141,-3133,-7883,1745153845385046288,1
224032,1193,427,2504,218,-3012,-7972,1745153845385046288,1
224224,1196,495,2585,227,-2858,-8171,1745153845385046288,1
224416,1201,566,2656,346,-2628,-8382,1745153845385046288,1
224608,1214,619,2723,575,-2263,-8490,1745153845385046288,1
224800,1233,665,2796,813,-1969,-8470,1745153845385046288,1
224992,1248,698,2851,1066,-1723,-8451,1745153845385046288,1
225184,1259,731,2905,1232,-1543,-8465,1745153845385046288,1
225376,1263,760,2959,1287,-1416,-8619,1745153845442957529,1
225568,1257,796,3010,1376,-1223,-8733,1745153845442957529,1
225760,1237,818,3059,1495,-1036,-8775,1745153845442957529,1
225952,1214,843,3102,1616,-806,-8761,1745153845442957529,1
226144,1190,865,3150,1729,-553,-8737,1745153845442957529,1
226336,1172,874,3194,1855,-321,-8735,1745153845442957529,1
226528,1163,878,3229,1994,-169,-8765,1745153845442957529,1
226720,1157,870,3238,2112,-125,-8814,1745153845442957529,1
226912,1152,864,3228,2189,-235,-8788,1745153845442957529,1
227104,1157,848,3220,2230,-430,-8751,1745153845442957529,1
227296,1167,824,3231,2216,-697,-8745,1745153845442957529,1
227488,1160,797,3251,2164,-939,-8733,1745153845442957529,1
227680,1128,775,3267,2104,-1101,-8795,1745153845565820626,1
227872,1073,770,3265,2035,-1039,-8905,1745153845565820626,1
228064,997,790,3246,1983,-843,-8934,1745153845565820626,1
228256,918,815,3223,2053,-578,-8856,1745153845565820626,1
228448,849,836,3208,2182,-270,-8781,1745153845565820626,1
228640,798,863,3201,2342,-6,-8753,1745153845565820626,1
228832,765,878,3196,2491,180,-8719,1745153845565820626,1
229024,743,871,3199,2598,310,-8706,1745153845565820626,1
229216,731,849,3203,2668,307,-8691,1745153845565820626,1
229408,721,821,3194,2643,298,-8673,1745153845565820626,1
229600,707,790,3187,2573,225,-8581,1745153845565820626,1
229792,692,756,3183,2446,164,-8481,1745153845565820626,1
229984,669,758,3178,2319,85,-8378,1745153845574461589,1
230176,639,746,3170,2238,-19,-8289,1745153845574461589,1
230368,600,743,3150,2140,-119,-8154,1745153845574461589,1
230560,556,753,3129,2102,-222,-8048,1745153845574461589,1
230752,509,755,3112,2101,-304,-7983,1745153845574461589,1
230944,459,762,3099,2113,-338,-7928,1745153845574461589,1
231136,409,762,3094,2165,-351,-7891,1745153845574461589,1
231328,362,756,3089,2246,-361,-7864,1745153845574461589,1
231520,315,748,3076,2304,-356,-7810,1745153845574461589,1
231712,270,739,3061,2327,-359,-7781,1745153845574461589,1
231904,227,728,3048,2326,-317,-7731,1745153845574461589,1
232096,185,719,3035,2350,-283,-7725,1745153845574461589,1
232288,144,709,3024,2341,-232,-7696,1745153845622985520,1
232480,108,691,3017,2343,-191,-7581,1745153845622985520,1
232672,75,676,3009,2347,-154,-7527,1745153845622985520,1
232864,44,672,2992,2284,-87,-7471,1745153845622985520,1
233056,28,672,2967,2228,-51,-7465,1745153845622985520,1
233248,20,671,2946,2169,-20,-7483,1745153845622985520,1
233440,14,672,2936,2117,22,-7409,1745153845622985520,1
233632,8,679,2936,2080,73,-7405,1745153845622985520,1
233824,5,694,2937,2057,146,-7414,1745153845622985520,1
234016,3,709,2930,2072,200,-7440,1745153845622985520,1
234208,2,725,2916,2126,231,-7434,1745153845622985520,1
234400,3,739,2901,2192,236,-7440,1745153845622985520,1
234592,3,754,2889,2295,253,-7372,1745153845687520816,1
234784,1,767,2883,2365,297,-7392,1745153845687520816,1
234976,-1,778,2881,2416,377,-7363,1745153845687520816,1
235168,-1,780,2880,2486,480,-7319,1745153845687520816,1
235360,4,785,2874,2506,582,-7347,1745153845687520816,1
235552,11,797,2858,2502,671,-7366,1745153845687520816,1
235744,17,813,2831,2489,704,-7404,1745153845687520816,1
235936,20,829,2799,2506,691,-7404,1745153845687520816,1
236128,20,846,2775,2564,655,-7407,1745153845687520816,1
236320,19,863,2759,2640,655,-7481,1745153845687520816,1
236512,11,881,2735,2668,664,-7617,1745153845687520816,1
236704,-2,898,2697,2742,688,-7696,1745153845687520816,1
236896,-16,912,2651,2843,784,-7803,1745153845739879921,1
237088,-29,920,2609,2878,837,-7899,1745153845739879921,1
237280,-34,918,2568,2944,916,-7938,1745153845739879921,1
237472,-30,915,2528,2994,987,-8026,1745153845739879921,1
237664,-21,910,2483,3009,1035,-8135,1745153845739879921,1
237856,-7,895,2437,3033,1110,-8159,1745153845739879921,1
238048,6,877,2396,3042,1170,-8149,1745153845739879921,1
238240,22,856,2353,3044,1280,-8160,1745153845739879921,1
238432,42,833,2307,3012,1386,-8185,1745153845739879921,1
238624,64,807,2258,2963,1434,-8174,1745153845739879921,1
238816,81,772,2206,2927,1447,-8222,1745153845739879921,1
239008,91,731,2154,2904,1418,-8303,1745153845739879921,1
239200,90,689,2106,2839,1314,-8328,1745153845812497018,1
239392,75,634,2054,2712,1151,-8441,1745153845812497018,1
239584,44,596,1992,2604,940,-8384,1745153845812497018,1
239776,1,597,1924,2530,779,-8513,1745153845812497018,1
239968,-62,535,1873,2489,703,-8409,1745153845812497018,1
240160,-132,491,1838,2410,604,-8269,1745153845812497018,1
240352,-204,455,1802,2343,526,-8101,1745153845812497018,1
240544,-283,403,1757,2251,455,-7881,1745153845812497018,1
240736,-367,349,1698,2106,358,-7599,1745153845812497018,1
240928,-444,295,1624,1937,302,-7441,1745153845812497018,1
241120,-524,244,1543,1748,301,-7245,1745153845812497018,1
241312,-595,199,1469,1521,396,-7111,1745153845812497018,1
241504,-643,169,1410,1206,483,-7078,1745153845867233654,1
241696,-666,154,1354,918,644,-7126,1745153845867233654,1
241888,-665,150,1299,694,783,-7172,1745153845867233654,1
242080,-641,165,1246,522,863,-7242,1745153845867233654,1
242272,-604,193,1186,453,871,-7336,1745153845867233654,1
242464,-558,225,1123,472,858,-7402,1745153845867233654,1
242656,-515,259,1068,543,866,-7503,1745153845867233654,1
242848,-475,282,1020,683,864,-7600,1745153845867233654,1
243040,-439,293,968,831,844,-7679,1745153845867233654,1
243232,-401,292,913,962,795,-7664,1745153845867233654,1
243424,-356,277,860,1062,746,-7630,1745153845867233654,1
243616,-305,249,813,1093,671,-7563,1745153845867233654,1
243808,-253,207,777,1042,649,-7538,1745153845915499879,1
244000,-203,195,738,932,659,-7590,1745153845915499879,1
244192,-159,163,696,782,700,-7617,1745153845915499879,1
244384,-120,151,657,614,760,-7648,1745153845915499879,1
244576,-73,154,625,460,789,-7703,1745153845915499879,1
244768,-21,163,599,382,790,-7790,1745153845915499879,1
244960,31,177,572,373,698,-7899,1745153845915499879,1
245152,67,189,548,448,494,-7985,1745153845915499879,1
245344,87,198,529,574,256,-8067,1745153845915499879,1
245536,93,195,518,701,-51,-8083,1745153845915499879,1
245728,83,184,507,788,-298,-8142,1745153845915499879,1
245920,54,175,491,821,-412,-8177,1745153845915499879,1
246112,9,165,464,832,-411,-8136,1745153845975347354,1
246304,-40,154,431,795,-354,-8086,1745153845975347354,1
246496,-84,145,402,750,-234,-8006,1745153845975347354,1
246688,-118,137,383,700,-143,-7904,1745153845975347354,1
246880,-141,129,367,665,-107,-7810,1745153845975347354,1
247072,-147,116,348,599,-58,-7760,1745153845975347354,1
247264,-145,125,321,551,-5,-7787,1745153845975347354,1
247456,-142,119,291,492,55,-7845,1745153845975347354,1
247648,-142,116,261,483,114,-7928,1745153845975347354,1
247840,-132,116,238,458,126,-7947,1745153845975347354,1
248032,-113,115,217,452,82,-7917,1745153845975347354,1
248224,-84,107,189,493,-69,-7917,1745153845975347354,1
248416,-52,102,160,496,-249,-7913,1745153846034691603,1
248608,-28,98,131,499,-403,-7907,1745153846034691603,1
248800,-13,89,105,518,-509,-7937,1745153846034691603,1
248992,-7,81,89,519,-556,-7946,1745153846034691603,1
249184,-5,74,77,550,-542,-7987,1745153846034691603,1
249376,-4,71,62,565,-536,-8015,1745153846034691603,1
249568,-8,66,45,575,-542,-8068,1745153846034691603,1
249760,-8,61,32,571,-592,-8126,1745153846034691603,1
249952,-12,56,25,567,-673,-8179,1745153846034691603,1
250144,-15,48,21,579,-741,-8228,1745153846034691603,1
250336,-22,42,17,549,-770,-8236,1745153846034691603,1
250528,-29,35,12,522,-803,-8195,1745153846034691603,1
250720,-32,28,6,467,-790,-8198,1745153846090658852,1
250912,-32,24,-1,395,-796,-8199,1745153846090658852,1
251104,-30,22,-3,337,-825,-8201,1745153846090658852,1
251296,-24,21,-3,305,-918,-8231,1745153846090658852,1
251488,-14,20,-1,256,-1022,-8266,1745153846090658852,1
251680,-11,18,1,242,-1150,-8316,1745153846090658852,1
251872,-14,20,3,208,-1285,-8338,1745153846090658852,1
252064,-26,26,7,173,-1373,-8347,1745153846090658852,1
252256,-42,33,15,167,-1412,-8372,1745153846090658852,1
252448,-56,44,26,170,-1387,-8322,1745153846090658852,1
252640,-67,53,36,198,-1349,-8288,1745153846090658852,1
252832,-75,60,42,238,-1323,-8270,1745153846090658852,1
253024,-79,63,44,276,-1267,-8253,1745153846148817696,1
253216,-83,66,45,321,-1249,-8223,1745153846148817696,1
253408,-84,69,46,367,-1212,-8253,1745153846148817696,1
253600,-82,69,48,389,-1185,-8305,1745153846148817696,1
253792,-79,67,46,434,-1138,-8303,1745153846148817696,1
253984,-74,63,38,460,-1132,-8322,1745153846148817696,1
254176,-67,57,28,470,-1176,-8303,1745153846148817696,1
254368,-56,47,18,482,-1233,-8264,1745153846148817696,1
254560,-43,32,12,448,-1286,-8266,1745153846148817696,1
254752,-35,19,8,407,-1320,-8305,1745153846148817696,1
254944,-36,10,-3,347,-1315,-8321,1745153846148817696,1
255136,-42,9,-17,305,-1314,-8315,1745153846148817696,1
255328,-45,10,-27,291,-1263,-8300,1745153846209408288,1
255520,-43,12,-35,315,-1263,-8269,1745153846209408288,1
255712,-41,11,-45,392,-1285,-8251,1745153846209408288,1
255904,-38,9,-54,435,-1330,-8272,1745153846209408288,1
256096,-37,5,-60,501,-1350,-8311,1745153846209408288,1
256288,-45,-5,-68,532,-1369,-8313,1745153846209408288,1
256480,-59,-12,-77,538,-1332,-8303,1745153846209408288,1
256672,-70,-20,-85,532,-1256,-8266,1745153846209408288,1
256864,-72,-27,-85,524,-1224,-8177,1745153846209408288,1
257056,-62,-36,-86,523,-1210,-8109,1745153846209408288,1
257248,-47,-44,-86,501,-1231,-8069,1745153846209408288,1
257440,-35,-53,-85,482,-1264,-8091,1745153846209408288,1
257632,-26,-57,-88,431,-1277,-8168,1745153846285383219,1
257824,-22,-57,-92,382,-1272,-8213,1745153846285383219,1
258016,-18,-56,-93,349,-1292,-8219,1745153846285383219,1
258208,-12,-54,-88,324,-1319,-8224,1745153846285383219,1
258400,-4,-51,-79,315,-1358,-8238,1745153846285383219,1
258592,-1,-47,-71,349,-1353,-8243,1745153846285383219,1
258784,-8,-42,-68,374,-1413,-8218,1745153846285383219,1
258976,-16,-39,-68,408,-1475,-8170,1745153846285383219,1
259168,-22,-38,-66,428,-1550,-8114,1745153846285383219,1
259360,-27,-37,-58,433,-1591,-8090,1745153846285383219,1
259552,-37,-37,-51,429,-1623,-8063,1745153846285383219,1
259744,-51,-35,-48,418,-1601,-8039,1745153846285383219,1
259936,-64,-31,-49,389,-1519,-8007,1745153846324617705,1
260128,-74,-24,-52,370,-1424,-7989,1745153846324617705,1
260320,-79,-19,-55,362,-1358,-7992,1745153846324617705,1
260512,-76,-12,-57,366,-1304,-7987,1745153846324617705,1
260704,-68,-7,-58,393,-1291,-7992,1745153846324617705,1
260896,-59,-2,-59,408,-1247,-8002,1745153846324617705,1
261088,-56,0,-62,438,-1220,-8010,1745153846324617705,1
261280,-52,0,-65,489,-1233,-8001,1745153846324617705,1
261472,-44,-4,-68,506,-1225,-8015,1745153846324617705,1
261664,-36,-9,-71,510,-1232,-8013,1745153846324617705,1
261856,-27,-16,-74,516,-1288,-8003,1745153846324617705,1
262048,-21,-22,-78,526,-1405,-7992,1745153846324617705,1
262240,-17,-30,-82,504,-1510,-7982,1745153846389984660,1
262432,-17,-37,-85,475,-1560,-7997,1745153846389984660,1
262624,-26,-43,-87,448,-1567,-8029,1745153846389984660,1
262816,-41,-47,-88,423,-1520,-8060,1745153846389984660,1
263008,-58,-50,-89,405,-1467,-8062,1745153846389984660,1
263200,-71,-52,-90,417,-1433,-8053,1745153846389984660,1
263392,-79,-53,-89,423,-1405,-8033,1745153846389984660,1
263584,-83,-57,-88,443,-1423,-7998,1745153846389984660,1
263776,-84,-61,-88,432,-1448,-8006,1745153846389984660,1
263968,-86,-64,-85,436,-1446,-8021,1745153846389984660,1
264160,-92,-65,-85,435,-1416,-8056,1745153846389984660,1
264352,-101,-65,-87,435,-1370,-8076,1745153846389984660,1
264544,-110,-65,-88,430,-1326,-8025,1745153846447416010,1
264736,-112,-65,-89,420,-1282,-8029,1745153846447416010,1
264928,-109,-62,-88,406,-1226,-8011,1745153846447416010,1
265120,-96,-55,-85,389,-1105,-8030,1745153846447416010,1
265312,-81,-49,-84,379,-997,-8038,1745153846447416010,1
265504,-60,-44,-82,369,-914,-8045,1745153846447416010,1
265696,-38,-38,-80,374,-911,-8028,1745153846447416010,1
265888,-14,-33,-77,388,-992,-7984,1745153846447416010,1
266080,10,-32,-68,415,-1118,-7920,1745153846447416010,1
266272,29,-32,-59,422,-1232,-7911,1745153846447416010,1
266464,39,-32,-57,414,-1294,-7937,1745153846447416010,1
266656,36,-31,-59,384,-1335,-7958,1745153846447416010,1
266848,25,-27,-59,360,-1383,-7938,1745153846500030946,1
267040,16,-20,-57,347,-1372,-7926,1745153846500030946,1
267232,11,-12,-51,356,-1338,-7913,1745153846500030946,1
267424,7,-6,-46,371,-1282,-7936,1745153846500030946,1
267616,3,-1,-44,400,-1218,-7935,1745153846500030946,1
267808,-2,2,-43,450,-1170,-7929,1745153846500030946,1
268000,-4,2,-43,480,-1149,-7887,1745153846500030946,1
268192,-3,0,-41,502,-1122,-7863,1745153846500030946,1
268384,-1,-5,-42,489,-1099,-7860,1745153846500030946,1
268576,-2,-8,-46,485,-1075,-7842,1745153846500030946,1
268768,-2,-11,-54,450,-1055,-7822,1745153846500030946,1
268960,2,-11,-62,428,-1056,-7809,1745153846500030946,1
269152,12,-10,-70,408,-1074,-7836,1745153846560181855,1
269344,21,-8,-77,395,-1076,-7864,1745153846560181855,1
269536,24,-5,-85,408,-1024,-7905,1745153846560181855,1
269728,22,-2,-92,432,-994,-7917,1745153846560181855,1
269920,21,-2,-102,451,-931,-7943,1745153846560181855,1
270112,21,-2,-110,477,-892,-7944,1745153846560181855,1
270304,24,-1,-116,512,-845,-7937,1745153846560181855,1
270496,28,-2,-121,531,-803,-7940,1745153846560181855,1
270688,32,-5,-130,552,-779,-7958,1745153846560181855,1
270880,32,-10,-142,560,-776,-7947,1745153846560181855,1
271072,26,-13,-154,560,-772,-7964,1745153846560181855,1
271264,20,-16,-167,548,-731,-7958,1745153846560181855,1
271456,15,-18,-178,539,-643,-7947,1745153846618396167,1
271648,12,-22,-192,554,-571,-7965,1745153846618396167,1
271840,11,-24,-213,539,-443,-7988,1745153846618396167,1
272032,8,-23,-236,566,-341,-7999,1745153846618396167,1
272224,0,-22,-262,583,-225,-8015,1745153846618396167,1
272416,-10,-23,-288,635,-121,-8040,1745153846618396167,1
272608,-24,-25,-316,677,3,-8050,1745153846618396167,1
272800,-41,-29,-345,733,102,-8062,1745153846618396167,1
272992,-61,-32,-376,760,267,-8067,1745153846618396167,1
273184,-89,-31,-411,826,465,-8085,1745153846618396167,1
273376,-128,-27,-453,915,671,-8096,1745153846618396167,1
273568,-180,-25,-500,1030,880,-8060,1745153846618396167,1
273760,-238,-21,-550,1165,1125,-7973,1745153846680601328,1
273952,-299,-22,-602,1278,1368,-7852,1745153846680601328,1
274144,-355,-23,-659,1384,1613,-7777,1745153846680601328,1
274336,-410,-22,-720,1505,1910,-7707,1745153846680601328,1
274528,-469,-16,-794,1600,2227,-7644,1745153846680601328,1
274720,-539,-7,-878,1716,2484,-7671,1745153846680601328,1
274912,-616,6,-978,1815,2767,-7777,1745153846680601328,1
275104,-694,20,-1091,1898,2985,-7990,1745153846680601328,1
275296,-767,29,-1210,1981,3072,-8192,1745153846680601328,1
275488,-827,34,-1332,2055,3072,-8323,1745153846680601328,1
275680,-866,35,-1453,2103,3097,-8361,1745153846680601328,1
275872,-881,36,-1571,2157,3245,-8265,1745153846680601328,1
276064,-875,41,-1689,2226,3431,-8099,1745153846758592282,1
276256,-845,49,-1812,2327,3662,-7878,1745153846758592282,1
276448,-790,55,-1940,2454,3878,-7527,1745153846758592282,1
276640,-709,59,-2064,2591,4063,-7182,1745153846758592282,1
276832,-606,52,-2182,2778,4225,-6900,1745153846758592282,1
277024,-484,44,-2298,2961,4374,-6603,1745153846758592282,1
277216,-345,31,-2406,3148,4518,-6356,1745153846758592282,1
277408,-196,7,-2506,3371,4616,-6258,1745153846758592282,1
277600,-45,-19,-2602,3582,4640,-6301,1745153846758592282,1
277792,102,-54,-2694,3783,4543,-6395,1745153846758592282,1
277984,244,-102,-2796,3972,4295,-6498,1745153846758592282,1
278176,379,-178,-2916,4080,4161,-6767,1745153846758592282,1
278368,502,-258,-3023,4169,3937,-6851,1745153846789145597,1
278560,605,-336,-3117,4246,3913,-7270,1745153846789145597,1
278752,665,-359,-3169,4164,3737,-7379,1745153846789145597,1
278944,707,-363,-3212,4115,3531,-7485,1745153846789145597,1
279136,739,-382,-3261,4080,3257,-7520,1745153846789145597,1
279328,769,-409,-3321,4032,2957,-7519,1745153846789145597,1
279520,789,-436,-3372,4018,2694,-7520,1745153846789145597,1
279712,794,-451,-3414,3995,2476,-7481,1745153846789145597,1
279904,777,-459,-3454,3997,2238,-7473,1745153846789145597,1
280096,741,-461,-3501,4006,2004,-7453,1745153846789145597,1
280288,693,-467,-3548,4005,1835,-7395,1745153846789145597,1
280480,637,-462,-3584,4013,1674,-7357,1745153846789145597,1
280672,576,-459,-3611,4038,1556,-7389,1745153846853508759,1
280864,517,-456,-3632,4040,1492,-7408,1745153846853508759,1
281056,464,-452,-3651,4050,1398,-7389,1745153846853508759,1
281248,421,-455,-3675,4073,1300,-7477,1745153846853508759,1
281440,391,-465,-3703,4076,1216,-7495,1745153846853508759,1
281632,371,-480,-3730,4055,1132,-7502,1745153846853508759,1
281824,360,-498,-3751,4008,1035,-7558,1745153846853508759,1
282016,353,-517,-3767,3931,933,-7660,1745153846853508759,1
282208,348,-541,-3782,3831,817,-7752,1745153846853508759,1
282400,345,-564,-3795,3727,674,-7817,1745153846853508759,1
282592,346,-580,-3806,3550,536,-7896,1745153846853508759,1
282784,354,-590,-3812,3411,392,-7971,1745153846853508759,1
282976,365,-592,-3810,3276,261,-7977,1745153846910389229,1
283168,374,-594,-3800,3167,94,-7916,1745153846910389229,1
283360,382,-595,-3785,3091,-113,-7855,1745153846910389229,1
283552,387,-598,-3770,3046,-306,-7838,1745153846910389229,1
283744,391,-598,-3750,2978,-514,-7806,1745153846910389229,1
283936,390,-599,-3726,2903,-692,-7773,1745153846910389229,1
284128,385,-597,-3700,2819,-816,-7812,1745153846910389229,1
284320,375,-588,-3674,2723,-896,-7892,1745153846910389229,1
284512,360,-573,-3649,2628,-964,-7948,1745153846910389229,1
284704,343,-553,-3621,2555,-1017,-8036,1745153846910389229,1
284896,327,-535,-3595,2525,-1174,-8021,1745153846910389229,1
285088,314,-522,-3574,2515,-1373,-7990,1745153846910389229,1
285280,303,-514,-3551,2467,-1579,-8051,1745153846969210723,1
285472,289,-507,-3526,2461,-1765,-8159,1745153846969210723,1
285664,270,-503,-3501,2419,-1927,-8227,1745153846969210723,1
285856,247,-501,-3476,2389,-2060,-8238,1745153846969210723,1
286048,221,-501,-3455,2330,-2187,-8239,1745153846969210723,1
286240,190,-504,-3438,2253,-2286,-8202,1745153846969210723,1
286432,148,-514,-3423,2174,-2373,-8085,1745153846969210723,1
286624,92,-526,-3405,2068,-2436,-7977,1745153846969210723,1
286816,22,-533,-3384,1972,-2496,-7990,1745153846969210723,1
287008,-59,-539,-3362,1897,-2518,-7901,1745153846969210723,1
287200,-150,-541,-3335,1825,-2582,-7637,1745153846969210723,1
287392,-245,-530,-3304,1724,-2654,-7519,1745153846969210723,1
287584,-331,-511,-3272,1585,-2684,-7676,1745153847037741451,1
287776,-399,-489,-3239,1437,-2696,-7853,1745153847037741451,1
287968,-446,-465,-3207,1284,-2647,-7953,1745153847037741451,1
288160,-477,-431,-3176,1188,-2537,-8095,1745153847037741451,1
288352,-493,-388,-3147,1177,-2390,-8202,1745153847037741451,1
288544,-503,-345,-3121,1226,-2265,-8181,1745153847037741451,1
288736,-510,-310,-3096,1312,-2208,-8175,1745153847037741451,1
288928,-514,-282,-3072,1421,-2225,-8216,1745153847037741451,1
289120,-512,-269,-3051,1492,-2241,-8284,1745153847037741451,1
289312,-506,-264,-3026,1566,-2217,-8339,1745153847037741451,1
289504,-503,-268,-2995,1592,-2135,-8322,1745153847037741451,1
289696,-498,-277,-2957,1638,-2060,-8312,1745153847037741451,1
289888,-483,-292,-2921,1624,-2042,-8257,1745153847085558670,1
290080,-454,-310,-2890,1571,-2054,-8175,1745153847085558670,1
290272,-415,-327,-2858,1445,-2074,-8101,1745153847085558670,1
290464,-367,-338,-2822,1291,-2039,-8041,1745153847085558670,1
290656,-317,-342,-2777,1159,-1974,-8055,1745153847085558670,1
290848,-272,-342,-2726,1043,-1942,-8114,1745153847085558670,1
291040,-228,-343,-2675,981,-2022,-8213,1745153847085558670,1
291232,-180,-345,-2625,952,-2151,-8313,1745153847085558670,1
291424,-128,-355,-2571,905,-2269,-8432,1745153847085558670,1
291616,-80,-361,-2514,902,-2378,-8551,1745153847085558670,1
291808,-43,-365,-2457,912,-2426,-8656,1745153847085558670,1
292000,-21,-369,-2401,915,-2479,-8696,1745153847085558670,1
292192,-4,-372,-2340,921,-2483,-8716,1745153847170404405,1
292384,11,-382,-2279,925,-2523,-8705,1745153847170404405,1
292576,26,-394,-2218,908,-2535,-8654,1745153847170404405,1
292768,38,-408,-2156,876,-2550,-8623,1745153847170404405,1
292960,38,-419,-2099,824,-2635,-8524,1745153847170404405,1
293152,31,-423,-2047,714,-2748,-8392,1745153847170404405,1
293344,16,-426,-1995,615,-2877,-8258,1745153847170404405,1
293536,-3,-423,-1937,445,-3009,-8235,1745153847170404405,1
293728,-23,-420,-1870,279,-3105,-8194,1745153847170404405,1
293920,-44,-416,-1803,101,-3172,-8166,1745153847170404405,1
294112,-63,-398,-1737,-56,-3200,-8212,1745153847170404405,1
294304,-75,-375,-1672,-206,-3186,-8228,1745153847170404405,1
294496,-77,-343,-1606,-272,-3084,-8250,1745153847207386047,1
294688,-77,-307,-1540,-266,-2916,-8342,1745153847207386047,1
294880,-72,-264,-1476,-228,-2703,-8556,1745153847207386047,1
295072,-63,-217,-1415,-138,-2433,-8767,1745153847207386047,1
295264,-43,-168,-1355,26,-2087,-9021,1745153847207386047,1
295456,-14,-119,-1293,223,-1742,-9183,1745153847207386047,1
295648,21,-85,-1223,467,-1460,-9219,1745153847207386047,1
295840,66,-61,-1143,721,-1214,-9244,1745153847207386047,1
296032,124,-51,-1047,939,-1012,-9282,1745153847207386047,1
296224,189,-56,-942,1137,-958,-9226,1745153847207386047,1
296416,249,-68,-848,1256,-1055,-9157,1745153847207386047,1
296608,293,-86,-778,1328,-1300,-9056,1745153847207386047,1
296800,310,-103,-732,1296,-1643,-8909,1745153847264111674,1
296992,304,-118,-693,1180,-1974,-8698,1745153847264111674,1
297184,278,-129,-649,1014,-2286,-8465,1745153847264111674,1
297376,239,-134,-598,836,-2517,-8268,1745153847264111674,1
297568,188,-132,-549,652,-2703,-8035,1745153847264111674,1
297760,124,-120,-511,512,-2870,-7827,1745153847264111674,1
297952,57,-99,-491,349,-3011,-7693,1745153847264111674,1
298144,-5,-69,-483,230,-3087,-7609,1745153847264111674,1
298336,-59,-38,-478,154,-3056,-7571,1745153847264111674,1
298528,-104,-10,-465,136,-2995,-7482,1745153847264111674,1
298720,-138,14,-443,180,-2925,-7386,1745153847264111674,1
298912,-156,38,-420,243,-2837,-7371,1745153847264111674,1
299104,-162,69,-404,312,-2691,-7525,1745153847317209887,1
299296,-159,103,-394,402,-2480,-7694,1745153847317209887,1
299488,-151,138,-386,540,-2244,-7815,1745153847317209887,1
299680,-134,171,-374,713,-2005,-7852,1745153847317209887,1
299872,-103,199,-350,915,-1768,-7875,1745153847317209887,1
300064,-52,218,-311,1095,-1563,-7865,1745153847317209887,1
300256,11,230,-269,1270,-1371,-7841,1745153847317209887,1
300448,80,235,-231,1440,-1228,-7825,1745153847317209887,1
300640,153,231,-193,1500,-1148,-7847,1745153847317209887,1
300832,224,230,-150,1515,-1183,-7907,1745153847317209887,1
301024,284,231,-106,1456,-1304,-7945,1745153847317209887,1
301216,325,238,-62,1388,-1501,-7918,1745153847317209887,1
301408,345,253,-20,1311,-1785,-7862,1745153847379392444,1
301600,343,270,17,1224,-2080,-7817,1745153847379392444,1
301792,325,294,56,1142,-2339,-7753,1745153847379392444,1
301984,294,323,93,1096,-2518,-7695,1745153847379392444,1
302176,257,356,122,1036,-2635,-7710,1745153847379392444,1
302368,218,395,140,996,-2582,-7806,1745153847379392444,1
302560,184,443,156,990,-2402,-7889,1745153847379392444,1
302752,150,495,166,1086,-2141,-7948,1745153847379392444,1
302944,121,545,171,1256,-1866,-7966,1745153847379392444,1
303136,103,587,177,1487,-1603,-8054,1745153847379392444,1
303328,98,619,187,1749,-1383,-8117,1745153847379392444,1
303520,106,635,202,2045,-1243,-8210,1745153847379392444,1
303712,122,641,217,2316,-1163,-8303,1745153847437580246,1
303904,142,633,232,2561,-1153,-8344,1745153847437580246,1
304096,158,614,245,2747,-1198,-8374,1745153847437580246,1
304288,168,586,256,2864,-1294,-8376,1745153847437580246,1
304480,165,553,267,2896,-1418,-8317,1745153847437580246,1
304672,154,518,279,2814,-1597,-8248,1745153847437580246,1
304864,137,484,290,2718,-1749,-8165,1745153847437580246,1
305056,116,457,299,2540,-1917,-8088,1745153847437580246,1
305248,90,441,302,2338,-2076,-7995,1745153847437580246,1
305440,55,430,298,2129,-2200,-7887,1745153847437580246,1
305632,13,428,291,1956,-2271,-7751,1745153847437580246,1
305824,-35,438,285,1824,-2311,-7599,1745153847437580246,1
306016,-87,453,280,1734,-2214,-7511,1745153847598380235,1
306208,-143,481,273,1681,-2060,-7420,1745153847598380235,1
306400,-195,516,263,1672,-1840,-7294,1745153847598380235,1
306592,-240,546,253,1711,-1584,-7141,1745153847598380235,1
306784,-274,576,242,1768,-1349,-6971,1745153847598380235,1
306976,-295,601,231,1852,-1182,-6803,1745153847598380235,1
307168,-302,617,222,1993,-1019,-6680,1745153847598380235,1
307360,-307,621,219,2161,-917,-6629,1745153847598380235,1
307552,-309,606,222,2349,-889,-6644,1745153847598380235,1
307744,-313,565,231,2568,-967,-6785,1745153847598380235,1
307936,-323,500,241,2830,-1073,-7087,1745153847598380235,1
308128,-329,410,247,3095,-1189,-7525,1745153847598380235,1
308320,-319,287,241,3289,-1238,-8014,1745153847622844647,1
308512,-278,141,212,3435,-1153,-8426,1745153847622844647,1
308704,-200,2,166,3468,-943,-8681,1745153847622844647,1
308896,-89,-116,105,3373,-616,-8725,1745153847622844647,1
309088,32,-202,41,3170,-324,-8637,1745153847622844647,1
309280,135,-252,-12,2862,-202,-8524,1745153847622844647,1
309472,195,-266,-41,2518,-295,-8462,1745153847622844647,1
309664,203,-283,-48,2168,-525,-8462,1745153847622844647,1
309856,166,-295,-46,1815,-860,-8441,1745153847622844647,1
310048,87,-265,-33,1510,-1151,-8453,1745153847622844647,1
310240,-21,-227,-7,1265,-1385,-8457,1745153847622844647,1
310432,-143,-191,31,1152,-1573,-8438,1745153847622844647,1
310624,-271,-151,71,1061,-1642,-8493,1745153847632436851,1
310816,-396,-100,103,1035,-1579,-8689,1745153847632436851,1
311008,-507,-47,120,1038,-1324,-8844,1745153847632436851,1
311200,-576,-6,120,1093,-852,-8868,1745153847632436851,1
311392,-587,19,99,1188,-194,-8872,1745153847632436851,1
311584,-539,29,59,1304,557,-8923,1745153847632436851,1
311776,-447,32,11,1412,1246,-8974,1745153847632436851,1
311968,-325,34,-33,1505,1813,-9031,1745153847632436851,1
312160,-183,32,-57,1545,2174,-9056,1745153847632436851,1
312352,-35,18,-58,1590,2311,-9029,1745153847632436851,1
312544,106,-2,-39,1599,2185,-9057,1745153847632436851,1
312736,222,-30,-10,1573,1797,-9085,1745153847632436851,1
312928,305,-63,10,1501,1258,-9097,1745153847675041723,1
313120,354,-90,21,1380,614,-9079,1745153847675041723,1
313312,375,-114,34,1179,-6,-8994,1745153847675041723,1
313504,368,-122,58,935,-536,-8830,1745153847675041723,1
313696,335,-119,90,728,-960,-8646,1745153847675041723,1
313888,288,-115,118,597,-1258,-8461,1745153847675041723,1
314080,233,-111,137,466,-1419,-8279,1745153847675041723,1
314272,171,-97,142,415,-1448,-8038,1745153847675041723,1
314464,109,-80,139,409,-1404,-7849,1745153847675041723,1
314656,51,-65,130,455,-1279,-7785,1745153847675041723,1
314848,11,-44,119,543,-1094,-7695,1745153847675041723,1
315040,-15,-27,110,661,-863,-7568,1745153847675041723,1
315232,-33,-16,93,794,-656,-7491,1745153847730794338,1
315424,-46,-8,68,919,-438,-7533,1745153847730794338,1
315616,-47,-12,45,1047,-253,-7615,1745153847730794338,1
315808,-30,-22,34,1133,-125,-7657,1745153847730794338,1
316000,3,-37,40,1169,-55,-7728,1745153847730794338,1
316192,39,-44,54,1161,-9,-7857,1745153847730794338,1
316384,72,-51,69,1136,-48,-8011,1745153847730794338,1
316576,101,-59,76,1140,-151,-8142,1745153847730794338,1
316768,129,-69,75,1151,-292,-8286,1745153847730794338,1
316960,154,-77,69,1152,-435,-8415,1745153847730794338,1
317152,171,-77,63,1164,-570,-8474,1745153847730794338,1
317344,174,-77,60,1165,-745,-8493,1745153847730794338,1
317536,165,-74,60,1150,-931,-8455,1745153847786331279,1
317728,153,-74,66,1128,-1076,-8358,1745153847786331279,1
317920,137,-70,79,1114,-1161,-8269,1745153847786331279,1
318112,113,-64,92,1086,-1170,-8223,1745153847786331279,1
318304,82,-59,99,1035,-1121,-8202,1745153847786331279,1
318496,51,-52,95,982,-1004,-8133,1745153847786331279,1
318688,20,-44,83,990,-868,-8119,1745153847786331279,1
318880,3,-36,65,1021,-708,-8074,1745153847786331279,1
319072,-4,-32,45,1058,-544,-8040,1745153847786331279,1
319264,-5,-35,25,1096,-424,-8004,1745153847786331279,1
319456,-2,-34,10,1110,-367,-7967,1745153847786331279,1
319648,6,-36,3,1117,-371,-7940,1745153847786331279,1
319840,19,-44,9,1090,-404,-7939,1745153847846211513,1
320032,37,-52,19,1057,-496,-7983,1745153847846211513,1
320224,52,-59,26,1007,-610,-8054,1745153847846211513,1
320416,66,-60,27,969,-715,-8152,1745153847846211513,1
320608,76,-62,30,899,-831,-8213,1745153847846211513,1
320800,87,-67,34,769,-924,-8305,1745153847846211513,1
320992,82,-56,35,695,-999,-8402,1745153847846211513,1
321184,66,-46,34,627,-1054,-8489,1745153847846211513,1
321376,47,-39,36,601,-1068,-8542,1745153847846211513,1
321568,24,-29,36,625,-1029,-8535,1745153847846211513,1
321760,-5,-22,33,646,-922,-8502,1745153847846211513,1
321952,-36,-15,29,695,-793,-8459,1745153847846211513,1
322144,-65,-10,26,721,-684,-8360,1745153847907980532,1
322336,-86,-6,25,737,-575,-8238,1745153847907980532,1
322528,-97,-4,24,746,-473,-8123,1745153847907980532,1
322720,-102,-2,23,745,-417,-8016,1745153847907980532,1
322912,-101,0,23,738,-364,-7921,1745153847907980532,1
323104,-92,1,27,732,-382,-7832,1745153847907980532,1
323296,-72,0,31,746,-414,-7772,1745153847907980532,1
323488,-49,-4,28,766,-484,-7776,1745153847907980532,1
323680,-28,-8,22,771,-574,-7797,1745153847907980532,1
323872,-15,-13,13,761,-682,-7820,1745153847907980532,1
324064,-3,-19,6,715,-790,-7881,1745153847907980532,1
324256,4,-22,5,701,-860,-7942,1745153847907980532,1
324448,8,-23,9,681,-906,-8052,1745153847961872696,1
324640,4,-23,13,675,-920,-8159,1745153847961872696,1
324832,-5,-18,12,692,-930,-8267,1745153847961872696,1
325024,-14,-15,11,726,-909,-8366,1745153847961872696,1
325216,-23,-12,9,732,-847,-8467,1745153847961872696,1
325408,-33,-9,9,718,-789,-8533,1745153847961872696,1
325600,-41,-8,10,691,-732,-8525,1745153847961872696,1
325792,-47,-5,12,698,-662,-8473,1745153847961872696,1
325984,-77,-8,8,499,-968,-7961,1745153847961872696,1
326176,-324,-19,-32,523,-2341,-7624,1745153847961872696,1
326368,-662,-62,-136,969,-3183,-7644,1745153847961872696,1
326560,-741,-111,-136,907,-2603,-8843,1745153847961872696,1
326752,-667,-30,12,1013,-2246,-7766,1745153848033991308,1
326944,-750,-44,52,839,-625,-7457,1745153848033991308,1
327136,-658,-58,73,697,1160,-7521,1745153848033991308,1
327328,-517,-62,49,674,1938,-7463,1745153848033991308,1
327520,-359,-85,-26,625,1760,-7559,1745153848033991308,1
327712,-238,-94,-93,533,1099,-7596,1745153848033991308,1
327904,-133,-96,-107,480,489,-7621,1745153848033991308,1
328096,-38,-91,-68,523,234,-7691,1745153848033991308,1
328288,46,-92,-16,693,318,-7860,1745153848033991308,1
328480,107,-108,10,839,400,-8052,1745153848033991308,1
328672,134,-120,8,840,195,-8233,1745153848033991308,1
328864,137,-131,-2,788,-184,-8374,1745153848033991308,1
364576,-67,17,11,698,-26,-8250,1745153848985909487,2
364768,-135,7,4,521,-1023,-8098,1745153848985909487,2
364960,-101,4,-8,583,-757,-8287,1745153848985909487,2
365152,-78,-27,9,513,-415,-7987,1745153848985909487,2
365344,-79,-26,29,543,-360,-8157,1745153848985909487,2
365536,-95,-6,18,556,-311,-8150,1745153848985909487,2
365728,-89,-16,1,547,-242,-8086,1745153848985909487,2
365920,-86,-15,-4,584,-238,-8150,1745153848985909487,2
366112,-79,-14,-1,630,-241,-8168,1745153848985909487,2
366304,-63,-29,5,590,-217,-8126,1745153848985909487,2
366496,-50,-33,11,508,-156,-8074,1745153848985909487,2
366688,-24,-33,12,462,-54,-8044,1745153848985909487,2
366880,1,-42,11,490,-8,-8022,1745153849054105687,2
367072,23,-43,9,504,-87,-8012,1745153849054105687,2
367264,42,-48,9,508,-209,-8013,1745153849054105687,2
367456,53,-47,9,467,-316,-7985,1745153849054105687,2
367648,58,-38,7,438,-422,-7998,1745153849054105687,2
367840,56,-32,7,417,-491,-8020,1745153849054105687,2
368032,49,-23,11,437,-543,-8070,1745153849054105687,2
368224,46,-17,14,453,-534,-8132,1745153849054105687,2
368416,42,-11,14,462,-535,-8205,1745153849054105687,2
368608,39,-2,9,426,-519,-8271,1745153849054105687,2
368800,39,7,3,419,-485,-8355,1745153849054105687,2
368992,38,22,1,415,-439,-8460,1745153849054105687,2
369184,32,40,0,371,-418,-8586,1745153849112162240,2
369376,15,58,-1,357,-457,-8704,1745153849112162240,2
369568,-6,76,-4,332,-479,-8748,1745153849112162240,2
369760,-23,94,-5,317,-466,-8805,1745153849112162240,2
369952,-39,113,0,298,-398,-8843,1745153849112162240,2
370144,-42,132,3,354,-338,-8850,1745153849112162240,2
370336,-49,144,6,378,-411,-8819,1745153849112162240,2
370528,-43,174,14,356,-191,-8788,1745153849112162240,2
370720,-22,199,24,438,-111,-8704,1745153849112162240,2
370912,-3,213,29,643,-203,-8664,1745153849112162240,2
371104,13,212,28,897,-309,-8655,1745153849112162240,2
371296,-13,171,22,1043,-1710,-8145,1745153849112162240,2
371488,-83,210,-1,1234,-258,-9377,1745153849162375271,2
371680,276,216,31,1289,521,-8524,1745153849162375271,2
371872,277,236,30,1221,-101,-8645,1745153849162375271,2
372064,408,279,-17,1267,-926,-9351,1745153849162375271,2
372256,341,231,-35,1221,-76,-9363,1745153849162375271,2
372448,102,116,-23,1650,-343,-9321,1745153849162375271,2
372640,167,99,17,1982,-543,-9366,1745153849162375271,2
372832,-55,90,19,2045,-2760,-11145,1745153849162375271,2
373024,-871,106,-22,2636,-7540,-9345,1745153849162375271,2
373216,-1191,85,-247,2000,-5438,-10593,1745153849162375271,2
373408,-1668,33,-172,1842,-3665,-10710,1745153849162375271,2
373600,-1892,41,-47,1774,-1816,-10572,1745153849162375271,2
373792,-1952,79,14,1650,-4,-10503,1745153849222832167,2
373984,-1997,96,-19,1563,1291,-10512,1745153849222832167,2
374176,-1950,124,-97,1486,2057,-10582,1745153849222832167,2
374368,-1828,157,-161,1539,2328,-10427,1745153849222832167,2
374560,-1679,170,-183,1665,2164,-9934,1745153849222832167,2
374752,-1539,172,-169,1815,1681,-9501,1745153849222832167,2
374944,-1415,156,-135,1966,1143,-9005,1745153849222832167,2
375136,-1321,129,-97,2079,781,-8460,1745153849222832167,2
375328,-1258,123,-82,2086,669,-7443,1745153849222832167,2
375520,-1227,150,-104,1908,762,-6927,1745153849222832167,2
375712,-1178,170,-133,1675,888,-6621,1745153849222832167,2
375904,-1081,175,-142,1517,1054,-6097,1745153849222832167,2
376096,-968,187,-145,1405,1207,-6156,1745153849275032263,2
376288,-870,214,-162,1377,1397,-6349,1745153849275032263,2
376480,-788,244,-200,1418,1645,-6548,1745153849275032263,2
376672,-735,291,-243,1546,1936,-6740,1745153849275032263,2
376864,-631,349,-283,1789,2224,-7161,1745153849275032263,2
377056,-417,381,-329,2071,2491,-7677,1745153849275032263,2
377248,-155,351,-391,2428,2644,-8275,1745153849275032263,2
377440,121,282,-430,2840,2566,-8416,1745153849275032263,2
377632,384,227,-421,3223,2098,-8230,1745153849275032263,2
377824,618,140,-405,3532,1415,-8207,1745153849275032263,2
378016,814,6,-404,3711,689,-7989,1745153849275032263,2
378208,941,-133,-419,3705,-5,-7584,1745153849275032263,2
378400,964,-229,-442,3530,-524,-7474,1745153849333642717,2
378592,884,-304,-465,3267,-925,-7705,1745153849333642717,2
378784,741,-370,-493,2917,-1281,-7998,1745153849333642717,2
378976,541,-437,-519,2581,-1451,-8190,1745153849333642717,2
379168,315,-478,-529,2325,-1456,-8095,1745153849333642717,2
379360,123,-473,-526,2175,-1225,-8219,1745153849333642717,2
379552,-41,-496,-515,2235,-722,-8312,1745153849333642717,2
379744,-214,-452,-469,2735,-127,-8024,1745153849333642717,2
379936,-382,-431,-396,3126,324,-7961,1745153849333642717,2
380128,-442,-561,-351,3507,487,-8073,1745153849333642717,2
380320,-335,-697,-337,3755,517,-7995,1745153849333642717,2
380512,-156,-835,-317,3934,352,-8146,1745153849333642717,2
380704,-9,-940,-290,4044,-49,-8329,1745153849392062808,2
380896,76,-1065,-267,4003,-751,-8459,1745153849392062808,2
381088,119,-1193,-262,3734,-1694,-8267,1745153849392062808,2
381280,149,-1314,-279,3223,-2088,-8379,1745153849392062808,2
381472,138,-1397,-255,2647,-2331,-8426,1745153849392062808,2
381664,96,-1442,-224,2008,-2410,-8446,1745153849392062808,2
381856,29,-1430,-188,1351,-2335,-8514,1745153849392062808,2
382048,-70,-1357,-104,801,-2282,-8407,1745153849392062808,2
382240,-149,-1296,-43,516,-2666,-7871,1745153849392062808,2
382432,-148,-1251,-43,242,-2364,-8080,1745153849392062808,2
382624,-154,-1164,24,110,-2256,-8014,1745153849392062808,2
382816,-150,-1072,100,57,-2180,-8016,1745153849392062808,2
383008,-128,-981,176,62,-2125,-8067,1745153849461084470,2
383200,-92,-903,252,111,-2170,-8018,1745153849461084470,2
383392,-50,-828,331,125,-2205,-7963,1745153849461084470,2
383584,-5,-764,421,192,-2326,-7902,1745153849461084470,2
383776,40,-710,502,210,-2506,-7820,1745153849461084470,2
383968,88,-656,581,124,-2676,-7737,1745153849461084470,2
384160,147,-602,664,25,-2863,-7652,1745153849461084470,2
384352,209,-547,743,-88,-3058,-7575,1745153849461084470,2
384544,278,-492,813,-194,-3163,-7574,1745153849461084470,2
384736,349,-437,878,-267,-3242,-7580,1745153849461084470,2
384928,429,-388,948,-298,-3295,-7452,1745153849461084470,2
385120,513,-338,1028,-296,-3371,-7349,1745153849461084470,2
385312,599,-293,1113,-240,-3408,-7214,1745153849519709507,2
385504,684,-257,1201,-198,-3446,-7180,1745153849519709507,2
385696,763,-224,1283,-172,-3509,-7254,1745153849519709507,2
385888,832,-194,1351,-198,-3593,-7414,1745153849519709507,2
386080,888,-155,1413,-240,-3663,-7559,1745153849519709507,2
386272,922,-120,1479,-258,-3671,-7603,1745153849519709507,2
386464,941,-81,1563,-232,-3706,-7605,1745153849519709507,2
386656,949,-43,1653,-158,-3675,-7591,1745153849519709507,2
386848,957,-9,1749,-178,-3638,-7669,1745153849519709507,2
387040,961,35,1834,-192,-3621,-7712,1745153849519709507,2
387232,962,68,1902,-191,-3561,-7745,1745153849519709507,2
387424,957,112,1965,-210,-3446,-7793,1745153849519709507,2
387616,952,153,2031,-214,-3336,-7840,1745153849566317154,2
387808,952,195,2104,-192,-3193,-7865,1745153849566317154,2
388000,959,239,2192,-208,-3064,-7918,1745153849566317154,2
388192,967,292,2279,-193,-2959,-8061,1745153849566317154,2
388384,975,350,2342,-148,-2821,-8280,1745153849566317154,2
388576,985,407,2396,-53,-2597,-8481,1745153849566317154,2
388768,995,466,2450,105,-2353,-8615,1745153849566317154,2
388960,1005,521,2508,282,-2127,-8623,1745153849566317154,2
389152,1019,563,2573,485,-1974,-8533,1745153849566317154,2
389344,1041,595,2635,663,-1859,-8481,1745153849566317154,2
389536,1072,620,2690,761,-1740,-8459,1745153849566317154,2
389728,1113,637,2741,816,-1625,-8372,1745153849566317154,2
389920,1157,650,2787,771,-1533,-8327,1745153849628874551,2
390112,1197,664,2827,702,-1499,-8272,1745153849628874551,2
390304,1233,681,2863,622,-1526,-8159,1745153849628874551,2
390496,1274,701,2904,542,-1570,-8155,1745153849628874551,2
390688,1320,726,2952,488,-1571,-8259,1745153849628874551,2
390880,1359,761,2998,445,-1570,-8415,1745153849628874551,2
391072,1385,804,3034,498,-1526,-8549,1745153849628874551,2
391264,1404,848,3059,608,-1459,-8728,1745153849628874551,2
391456,1420,895,3085,769,-1324,-8868,1745153849628874551,2
391648,1434,937,3115,988,-1172,-8936,1745153849628874551,2
391840,1448,971,3143,1211,-1045,-8964,1745153849628874551,2
392032,1456,1001,3166,1403,-898,-9069,1745153849628874551,2
392224,1466,1024,3184,1559,-734,-9206,1745153849682844840,2
392416,1472,1039,3199,1690,-588,-9272,1745153849682844840,2
392608,1464,1049,3212,1790,-462,-9244,1745153849682844840,2
392800,1441,1060,3232,1853,-428,-9168,1745153849682844840,2
392992,1405,1064,3253,1911,-500,-9074,1745153849682844840,2
393184,1361,1056,3271,1947,-662,-8913,1745153849682844840,2
393376,1308,1039,3288,1959,-901,-8778,1745153849682844840,2
393568,1243,1020,3297,1899,-1246,-8550,1745153849682844840,2
393760,1160,1000,3302,1798,-1604,-8385,1745153849682844840,2
393952,1073,980,3308,1646,-1931,-8255,1745153849682844840,2
394144,988,965,3318,1495,-2156,-8307,1745153849682844840,2
394336,913,965,3321,1341,-2143,-8528,1745153849682844840,2
394528,843,984,3310,1253,-1852,-8736,1745153849742876583,2
394720,778,1024,3281,1305,-1413,-8819,1745153849742876583,2
394912,723,1071,3247,1488,-948,-8775,1745153849742876583,2
395104,691,1111,3224,1780,-563,-8651,1745153849742876583,2
395296,684,1134,3211,2159,-376,-8588,1745153849742876583,2
395488,692,1134,3203,2533,-324,-8550,1745153849742876583,2
395680,700,1113,3191,2865,-357,-8499,1745153849742876583,2
395872,694,1075,3175,3110,-516,-8431,1745153849742876583,2
396064,669,1024,3154,3242,-691,-8336,1745153849742876583,2
396256,627,968,3135,3231,-879,-8277,1745153849742876583,2
396448,574,913,3112,3129,-1015,-8242,1745153849742876583,2
396640,508,868,3083,2949,-1054,-8192,1745153849742876583,2
396832,430,838,3047,5572,-1,-1,1745153849860422072,2
397024,347,824,3009,2564,-1079,-8115,1745153849860422072,2
397216,271,819,2971,2430,-1098,-8040,1745153849860422072,2
397408,201,818,2932,2361,-1121,-8030,1745153849860422072,2
397600,133,812,2894,2356,-1117,-8017,1745153849860422072,2
397792,60,804,2854,2372,-1143,-7982,1745153849860422072,2
397984,-15,795,2819,2427,-1113,-7941,1745153849860422072,2
398176,-90,788,2784,2495,-1062,-7882,1745153849860422072,2
398368,-163,781,2752,2541,-992,-7879,1745153849860422072,2
398560,-228,776,2726,2601,-890,-7784,1745153849860422072,2
398752,-280,765,2706,2644,-758,-7672,1745153849860422072,2
398944,-322,754,2686,2703,-611,-7601,1745153849860422072,2
399136,-360,740,2657,2722,-444,-7520,1745153849869943547,2
399328,-389,727,2628,2683,-275,-7497,1745153849869943547,2
399520,-401,713,2602,2679,-108,-7475,1745153849869943547,2
399712,-399,698,2578,2654,-7,-7470,1745153849869943547,2
399904,-389,688,2551,2638,55,-7474,1745153849869943547,2
400096,-377,682,2519,2606,62,-7523,1745153849869943547,2
400288,-364,679,2486,2554,43,-7535,1745153849869943547,2
400480,-346,680,2452,2522,40,-7592,1745153849869943547,2
400672,-326,679,2419,2459,94,-7693,1745153849869943547,2
400864,-306,679,2391,2380,134,-7717,1745153849869943547,2
401056,-286,679,2363,2346,161,-7721,1745153849869943547,2
401248,-264,686,2328,2314,196,-7771,1745153849869943547,2
401440,-242,695,2290,2296,214,-15498,1745153849920311837,2
401632,-218,700,2256,2301,241,-7832,1745153849920311837,2
401824,-192,700,2229,2321,228,-7830,1745153849920311837,2
402016,-168,698,2202,2310,125,-7807,1745153849920311837,2
402208,-157,702,2177,2328,48,-7821,1745153849920311837,2
402400,-158,711,2155,2333,-85,-7880,1745153849920311837,2
402592,-166,725,2137,2357,-132,-7955,1745153849920311837,2
402784,-179,739,2123,2387,-199,-7981,1745153849920311837,2
402976,-192,751,2109,2455,-234,-8026,1745153849920311837,2
403168,-207,755,2093,2491,-279,-8102,1745153849920311837,2
403360,-220,747,2069,2510,-282,-8099,1745153849920311837,2
403552,-238,733,2039,2525,-260,-8116,1745153849920311837,2
403744,-264,716,2004,2529,-233,-8085,1745153849977059027,2
403936,-299,697,1970,2506,-201,-7990,1745153849977059027,2
404128,-331,674,1941,2444,-149,-7876,1745153849977059027,2
404320,-357,649,1915,2358,-49,-7790,1745153849977059027,2
404512,-379,620,1885,2264,69,-7695,1745153849977059027,2
404704,-397,588,1856,2155,160,-7598,1745153849977059027,2
404896,-406,552,1821,2092,290,-7497,1745153849977059027,2
405088,-415,516,1788,1993,321,-7468,1745153849977059027,2
405280,-424,476,1754,1892,342,-7479,1745153849977059027,2
405472,-428,446,1711,1755,285,-7476,1745153849977059027,2
405664,-421,425,1658,1665,201,-7504,1745153849977059027,2
405856,-398,403,1610,1688,102,-7499,1745153849977059027,2
406048,-362,383,1568,1679,-16,-7579,1745153850036054478,2
406240,-336,358,1527,1688,-256,-7607,1745153850036054478,2
406432,-330,330,1475,1656,-584,-7612,1745153850036054478,2
406624,-335,303,1414,1569,-818,-7620,1745153850036054478,2
406816,-356,284,1353,1413,-865,-7719,1745153850036054478,2
407008,-400,276,1295,1296,-764,-7790,1745153850036054478,2
407200,-446,273,1251,1131,-601,-7832,1745153850036054478,2
407392,-477,283,1217,1022,-377,-7913,1745153850036054478,2
407584,-488,288,1184,977,-146,-7972,1745153850036054478,2
407776,-487,296,1153,994,28,-7965,1745153850036054478,2
407968,-476,303,1120,1049,107,-7973,1745153850036054478,2
408160,-465,304,1081,1107,75,-8022,1745153850036054478,2
408352,-466,300,1035,1122,-14,-8039,1745153850093954522,2
408544,-474,289,992,1149,-88,-8034,1745153850093954522,2
408736,-485,274,955,1154,-87,-7992,1745153850093954522,2
408928,-496,256,920,1170,-55,-7887,1745153850093954522,2
409120,-500,231,882,1186,-44,-7749,1745153850093954522,2
409312,-494,206,842,1189,-98,-7618,1745153850093954522,2
409504,-475,177,801,1181,-198,-7493,1745153850093954522,2
409696,-447,147,759,1138,-290,-7404,1745153850093954522,2
409888,-422,119,720,1060,-336,-7390,1745153850093954522,2
410080,-409,93,679,977,-418,-7378,1745153850093954522,2
410272,-401,68,640,853,-466,-7395,1745153850093954522,2
410464,-388,49,604,723,-455,-7479,1745153850093954522,2
410656,-376,41,564,654,-381,-7547,1745153850151582381,2
410848,-370,42,529,586,-309,-7628,1745153850151582381,2
411040,-368,45,495,586,-326,-7644,1745153850151582381,2
411232,-361,54,468,588,-302,-7659,1745153850151582381,2
411424,-352,69,450,613,-251,-7723,1745153850151582381,2
411616,-346,80,438,654,-212,-7771,1745153850151582381,2
411808,-340,83,425,677,-181,-7809,1745153850151582381,2
412000,-331,86,409,681,-128,-7842,1745153850151582381,2
412192,-323,87,392,654,-76,-7862,1745153850151582381,2
412384,-318,89,372,635,-92,-7877,1745153850151582381,2
412576,-315,87,349,628,-159,-7870,1745153850151582381,2
412768,-316,84,326,588,-215,-7842,1745153850151582381,2
412960,-317,80,308,568,-240,-7840,1745153850210712413,2
413152,-312,77,296,495,-250,-7802,1745153850210712413,2
413344,-295,74,280,441,-196,-7748,1745153850210712413,2
413536,-265,72,257,349,-149,-7690,1745153850210712413,2
413728,-227,77,228,287,-186,-7618,1745153850210712413,2
413920,-177,80,198,245,-238,-7568,1745153850210712413,2
414112,-120,87,174,229,-291,-7625,1745153850210712413,2
414304,-73,91,153,256,-339,-7716,1745153850210712413,2
414496,-39,97,132,308,-473,-7787,1745153850210712413,2
414688,-14,96,113,403,-635,-7838,1745153850210712413,2
414880,-1,92,95,496,-808,-7872,1745153850210712413,2
415072,-3,82,87,536,-950,-7938,1745153850210712413,2
415264,-13,71,83,546,-1017,-7947,1745153850267515905,2
415456,-26,59,84,528,-1004,-7902,1745153850267515905,2
415648,-38,47,83,509,-953,-7887,1745153850267515905,2
415840,-47,39,78,466,-848,-7901,1745153850267515905,2
416032,-55,34,71,418,-701,-7980,1745153850267515905,2
416224,-61,33,64,383,-559,-8025,1745153850267515905,2
416416,-56,37,60,354,-434,-8088,1745153850267515905,2
416608,-40,42,58,313,-341,-8178,1745153850267515905,2
416800,-14,48,56,293,-297,-8242,1745153850267515905,2
416992,19,51,55,308,-340,-8255,1745153850267515905,2
417184,60,54,53,327,-479,-8271,1745153850267515905,2
417376,96,55,48,368,-612,-8322,1745153850267515905,2
417568,118,55,41,403,-752,-8340,1745153850337534745,2
417760,129,54,30,433,-831,-8302,1745153850337534745,2
417952,140,50,18,440,-884,-8250,1745153850337534745,2
418144,156,43,9,432,-847,-8167,1745153850337534745,2
418336,172,36,0,421,-803,-8115,1745153850337534745,2
418528,184,34,-11,418,-818,-8073,1745153850337534745,2
418720,193,32,-22,404,-881,-8063,1745153850337534745,2
418912,200,30,-30,427,-988,-8052,1745153850337534745,2
419104,200,25,-32,416,-1081,-8080,1745153850337534745,2
419296,192,20,-31,460,-1135,-8130,1745153850337534745,2
419488,177,13,-32,484,-1179,-8141,1745153850337534745,2
419680,160,5,-36,467,-1254,-8128,1745153850337534745,2
419872,143,-3,-43,439,-1319,-8125,1745153850385151810,2
420064,127,-9,-50,408,-1401,-8151,1745153850385151810,2
420256,109,-14,-54,365,-1452,-8159,1745153850385151810,2
420448,92,-15,-51,299,-1479,-8192,1745153850385151810,2
420640,77,-14,-47,295,-1460,-8236,1745153850385151810,2
420832,60,-7,-46,283,-1430,-8280,1745153850385151810,2
421024,43,1,-47,304,-1413,-8295,1745153850385151810,2
421216,26,9,-46,320,-1440,-8266,1745153850385151810,2
421408,7,13,-41,343,-1480,-8217,1745153850385151810,2
421600,-11,17,-31,368,-1517,-8192,1745153850385151810,2
421792,-29,19,-18,390,-1515,-8203,1745153850385151810,2
421984,-50,22,-11,378,-1477,-8222,1745153850385151810,2
422176,-70,25,-9,356,-1357,-8226,1745153850444543923,2
422368,-81,28,-9,339,-1262,-8174,1745153850444543923,2
422560,-84,31,-10,334,-1179,-8119,1745153850444543923,2
422752,-75,33,-14,362,-1131,-8063,1745153850444543923,2
422944,-52,31,-19,414,-1113,-7999,1745153850444543923,2
423136,-18,24,-26,448,-1142,-7988,1745153850444543923,2
423328,18,15,-34,488,-1166,-8020,1745153850444543923,2
423520,49,4,-43,531,-1207,-8050,1745153850444543923,2
423712,75,-9,-50,538,-1253,-8037,1745153850444543923,2
423904,99,-20,-53,519,-1343,-7968,1745153850444543923,2
424096,125,-33,-51,490,-1443,-7944,1745153850444543923,2
424288,147,-43,-48,449,-1548,-7986,1745153850444543923,2
424480,152,-48,-48,409,-1605,-8022,1745153850502973650,2
424672,141,-45,-48,340,-1646,-8093,1745153850502973650,2
424864,123,-39,-46,322,-1669,-8119,1745153850502973650,2
425056,100,-31,-38,302,-1708,-8117,1745153850502973650,2
425248,71,-20,-29,283,-1731,-8148,1745153850502973650,2
425440,40,-9,-20,317,-1735,-8176,1745153850502973650,2
425632,5,-1,-12,341,-1735,-8208,1745153850502973650,2
425824,-32,8,-8,383,-1702,-8224,1745153850502973650,2
426016,-65,11,-5,411,-1656,-8201,1745153850502973650,2
426208,-90,10,0,439,-1633,-8095,1745153850502973650,2
426400,-101,9,5,458,-1632,-8024,1745153850502973650,2
426592,-103,6,6,459,-1604,-8007,1745153850502973650,2
426784,-106,3,3,437,-1577,-8004,1745153850561014838,2
426976,-109,1,-1,441,-1546,-7996,1745153850561014838,2
427168,-109,1,-7,421,-1489,-8027,1745153850561014838,2
427360,-108,2,-14,411,-1411,-8049,1745153850561014838,2
427552,-101,3,-22,420,-1338,-8041,1745153850561014838,2
427744,-86,2,-27,455,-1296,-8015,1745153850561014838,2
427936,-64,1,-30,510,-1278,-8020,1745153850561014838,2
428128,-42,-1,-32,548,-1258,-8037,1745153850561014838,2
428320,-21,-7,-36,586,-1287,-8047,1745153850561014838,2
428512,-4,-15,-39,630,-1345,-8031,1745153850561014838,2
428704,8,-24,-45,619,-1393,-8016,1745153850561014838,2
428896,18,-34,-49,607,-1417,-7977,1745153850561014838,2
429088,28,-41,-48,561,-1457,-7948,1745153850620717210,2
429280,38,-47,-47,513,-1466,-7989,1745153850620717210,2
429472,40,-50,-46,466,-1446,-8051,1745153850620717210,2
429664,34,-49,-45,406,-1432,-8099,1745153850620717210,2
429856,24,-48,-41,404,-1404,-8111,1745153850620717210,2
430048,12,-47,-36,390,-1447,-8109,1745153850620717210,2
430240,1,-47,-30,398,-1504,-8091,1745153850620717210,2
430432,-9,-47,-26,415,-1571,-8066,1745153850620717210,2
430624,-19,-48,-25,415,-1596,-8057,1745153850620717210,2
430816,-34,-50,-28,389,-1555,-8031,1745153850620717210,2
431008,-48,-51,-33,362,-1498,-7947,1745153850620717210,2
431200,-56,-51,-36,347,-1491,-7823,1745153850620717210,2
431392,-53,-52,-36,318,-1514,-7723,1745153850684472252,2
431584,-42,-51,-32,288,-1545,-7716,1745153850684472252,2
431776,-33,-47,-32,261,-1535,-7777,1745153850684472252,2
431968,-33,-38,-33,219,-1509,-7864,1745153850684472252,2
432160,-36,-27,-32,194,-1491,-7943,1745153850684472252,2
432352,-35,-13,-26,224,-1472,-7994,1745153850684472252,2
432544,-31,-1,-16,287,-1420,-8033,1745153850684472252,2
432736,-20,9,-7,349,-1395,-8040,1745153850684472252,2
432928,-6,14,-2,431,-1360,-8033,1745153850684472252,2
433120,8,13,-1,475,-1347,-8030,1745153850684472252,2
433312,19,6,-1,529,-1343,-8012,1745153850684472252,2
433504,31,-4,-1,518,-1345,-7944,1745153850684472252,2
433696,44,-12,-1,499,-1366,-7914,1745153850745332165,2
433888,55,-21,-2,468,-1386,-7904,1745153850745332165,2
434080,64,-28,-7,423,-1449,-7924,1745153850745332165,2
434272,68,-32,-13,371,-1498,-7958,1745153850745332165,2
434464,69,-35,-17,345,-1517,-7996,1745153850745332165,2
434656,65,-33,-17,324,-1496,-8029,1745153850745332165,2
434848,58,-30,-18,333,-1499,-8037,1745153850745332165,2
435040,49,-27,-19,355,-1513,-7986,1745153850745332165,2
435232,45,-27,-16,369,-1563,-7945,1745153850745332165,2
435424,46,-27,-13,352,-1542,-7961,1745153850745332165,2
435616,41,-24,-13,365,-1487,-7988,1745153850745332165,2
435808,31,-21,-18,351,-1450,-7999,1745153850745332165,2
436000,21,-19,-23,366,-1452,-7968,1745153850793245321,2
436192,15,-16,-26,384,-1455,-7937,1745153850793245321,2
436384,11,-14,-25,399,-1489,-7908,1745153850793245321,2
436576,6,-12,-23,390,-1519,-7906,1745153850793245321,2
436768,2,-12,-21,380,-1487,-7927,1745153850793245321,2
436960,-3,-14,-21,348,-1417,-7982,1745153850793245321,2
437152,-10,-13,-22,331,-1348,-8027,1745153850793245321,2
437344,-16,-11,-24,320,-1319,-8019,1745153850793245321,2
437536,-14,-7,-23,325,-1354,-7983,1745153850793245321,2
437728,-4,-4,-23,339,-1423,-7939,1745153850793245321,2
437920,8,-3,-25,379,-1511,-7916,1745153850793245321,2
438112,14,-5,-27,373,-1568,-7899,1745153850793245321,2
438304,13,-8,-30,360,-1593,-7915,1745153850858678317,2
438496,6,-8,-30,344,-1568,-7933,1745153850858678317,2
438688,-5,-8,-31,313,-1516,-7922,1745153850858678317,2
438880,-13,-6,-29,305,-1484,-7888,1745153850858678317,2
439072,-13,-3,-26,308,-1496,-7857,1745153850858678317,2
439264,-6,0,-21,316,-1504,-7855,1745153850858678317,2
439456,-2,2,-17,341,-1520,-7894,1745153850858678317,2
439648,-5,3,-13,360,-1502,-7907,1745153850858678317,2
439840,-11,4,-10,404,-1454,-7891,1745153850858678317,2
440032,-17,4,-9,415,-1379,-7904,1745153850858678317,2
440224,-21,1,-11,419,-1330,-7898,1745153850858678317,2
440416,-22,-2,-17,407,-1352,-7851,1745153850858678317,2
440608,-19,-7,-22,387,-1420,-7785,1745153850917229137,2
440800,-14,-10,-26,355,-1496,-7795,1745153850917229137,2
440992,-12,-10,-26,318,-1510,-7829,1745153850917229137,2
441184,-14,-9,-29,286,-1453,-7835,1745153850917229137,2
441376,-16,-6,-33,304,-1420,-7838,1745153850917229137,2
441568,-16,-4,-34,298,-1437,-7813,1745153850917229137,2
441760,-12,-2,-31,329,-1487,-7788,1745153850917229137,2
441952,-5,-3,-25,351,-1565,-7781,1745153850917229137,2
442144,-4,-2,-18,336,-1600,-7816,1745153850917229137,2
442336,-10,-2,-13,334,-1579,-7833,1745153850917229137,2
442528,-23,0,-10,323,-1507,-7857,1745153850917229137,2
442720,-34,4,-6,294,-1416,-7890,1745153850917229137,2
442912,-42,10,-3,288,-1342,-7872,1745153850968805957,2
443104,-44,16,-1,285,-1302,-7864,1745153850968805957,2
443296,-42,22,-2,290,-1305,-7845,1745153850968805957,2
443488,-38,28,-3,325,-1321,-7856,1745153850968805957,2
443680,-35,32,-4,348,-1313,-7850,1745153850968805957,2
443872,-33,35,-6,343,-1255,-7866,1745153850968805957,2
444064,-31,37,-12,390,-1166,-7901,1745153850968805957,2
444256,-30,37,-19,387,-1085,-7896,1745153850968805957,2
444448,-25,37,-30,396,-1017,-7899,1745153850968805957,2
444640,-18,36,-42,428,-997,-7910,1745153850968805957,2
444832,-12,34,-54,462,-989,-7919,1745153850968805957,2
445024,-8,32,-66,464,-1017,-7936,1745153850968805957,2
445216,-5,28,-77,475,-1027,-7956,1745153851034219526,2
445408,-4,23,-88,509,-993,-7985,1745153851034219526,2
445600,-5,18,-102,527,-937,-7973,1745153851034219526,2
445792,-6,13,-116,522,-854,-7961,1745153851034219526,2
445984,-3,6,-134,530,-772,-7966,1745153851034219526,2
446176,4,1,-153,547,-694,-7980,1745153851034219526,2
446368,13,-6,-175,572,-627,-8026,1745153851034219526,2
446560,24,-14,-196,592,-577,-8023,1745153851034219526,2
446752,33,-23,-218,622,-559,-8026,1745153851034219526,2
446944,40,-34,-240,633,-545,-8040,1745153851034219526,2
447136,45,-46,-260,650,-527,-8067,1745153851034219526,2
447328,47,-55,-281,635,-469,-8128,1745153851034219526,2
447520,43,-62,-305,641,-388,-8165,1745153851097722019,2
447520,43,-62,-305,641,-388,-8165,1745153851097722019,2
447904,27,-76,-363,684,-185,-8164,1745153851097722019,2
448096,18,-83,-395,729,-102,-8143,1745153851097722019,2
448288,10,-94,-428,753,-40,-8164,1745153851097722019,2
448480,6,-104,-463,786,44,-8193,1745153851097722019,2
448672,2,-113,-499,848,148,-8207,1745153851097722019,2
448864,-4,-124,-536,879,254,-8238,1745153851097722019,2
449056,-9,-134,-578,950,361,-8232,1745153851097722019,2
449248,-15,-147,-622,1016,454,-8181,1745153851097722019,2
449440,-19,-160,-668,1085,541,-8179,1745153851097722019,2
449632,-19,-174,-717,1147,660,-8203,1745153851097722019,2
449824,-15,-187,-768,1231,853,-8224,1745153851154118066,2
450016,-6,-197,-821,1281,1050,-8206,1745153851154118066,2
450208,6,-206,-877,1392,1270,-8145,1745153851154118066,2
450400,26,-217,-936,1502,1497,-8064,1745153851154118066,2
450592,53,-229,-998,1637,1715,-7998,1745153851154118066,2
450784,89,-243,-1062,1764,1916,-7941,1745153851154118066,2
450976,135,-253,-1129,1908,2149,-7848,1745153851154118066,2
451168,186,-260,-1200,2076,2414,-7739,1745153851154118066,2
451360,245,-267,-1275,2268,2694,-7667,1745153851154118066,2
451552,315,-278,-1356,2430,2948,-7590,1745153851154118066,2
451744,401,-296,-1444,2619,3134,-7507,1745153851154118066,2
451936,504,-319,-1538,2760,3199,-7453,1745153851154118066,2
452128,613,-344,-1632,2949,3139,-7455,1745153851210296668,2
452320,716,-366,-1726,3128,2932,-7488,1745153851210296668,2
452512,806,-392,-1823,3335,2589,-7466,1745153851210296668,2
452704,879,-424,-1921,3525,2171,-7431,1745153851210296668,2
452896,933,-462,-2018,3732,1748,-7335,1745153851210296668,2
453088,961,-506,-2113,3884,1392,-7225,1745153851210296668,2
453280,969,-551,-2204,4013,1116,-7095,1745153851210296668,2
453472,964,-600,-2294,4118,917,-6969,1745153851210296668,2
453664,957,-651,-2385,4150,845,-6859,1745153851210296668,2
453856,949,-705,-2475,4150,853,-6836,1745153851210296668,2
454048,937,-760,-2560,4097,833,-6873,1745153851210296668,2
454240,926,-813,-2638,4007,812,-7002,1745153851210296668,2
454432,917,-861,-2703,3954,719,-6968,1745153851268274992,2
454624,910,-913,-2761,3863,619,-6983,1745153851268274992,2
454816,906,-963,-2813,3783,513,-7015,1745153851268274992,2
455008,897,-1001,-2861,3669,407,-7053,1745153851268274992,2
455200,887,-1034,-2901,3546,286,-7139,1745153851268274992,2
455392,879,-1065,-2934,3454,192,-7219,1745153851268274992,2
455584,867,-1091,-2960,3351,21,-7244,1745153851268274992,2
455776,848,-1118,-2981,3256,-195,-7247,1745153851268274992,2
455968,820,-1146,-2998,3174,-427,-7285,1745153851268274992,2
456160,781,-1170,-3013,3067,-667,-7281,1745153851268274992,2
456352,728,-1188,-3024,2942,-877,-7269,1745153851268274992,2
456544,662,-1194,-3036,2797,-1018,-7381,1745153851268274992,2
456736,585,-1189,-3047,2689,-1124,-7326,1745153851325045411,2
456928,500,-1183,-3057,2625,-1230,-7292,1745153851325045411,2
457120,416,-1175,-3068,2527,-1329,-7233,1745153851325045411,2
457312,337,-1171,-3079,2439,-1385,-7221,1745153851325045411,2
457504,266,-1168,-3087,2304,-1413,-7258,1745153851325045411,2
457696,210,-1165,-3095,2152,-1414,-7318,1745153851325045411,2
457888,161,-1161,-3105,1977,-1418,-7417,1745153851325045411,2
458080,118,-1151,-3118,1798,-1460,-7533,1745153851325045411,2
458272,83,-1136,-3129,1632,-1534,-7594,1745153851325045411,2
458464,51,-1119,-3131,1509,-1675,-7630,1745153851325045411,2
458656,20,-1098,-3128,1422,-1822,-7668,1745153851325045411,2
458848,-8,-1074,-3121,1338,-2001,-7614,1745153851325045411,2
459040,-35,-1049,-3117,1234,-2166,-7598,1745153851382784884,2
459232,-61,-1022,-3116,1166,-2315,-7581,1745153851382784884,2
459424,-87,-996,-3119,1092,-2456,-7537,1745153851382784884,2
459616,-108,-973,-3117,995,-2558,-7523,1745153851382784884,2
459808,-124,-950,-3110,912,-2595,-7642,1745153851382784884,2
460000,-138,-923,-3096,812,-2557,-7726,1745153851382784884,2
460192,-156,-891,-3079,760,-2525,-7790,1745153851382784884,2
460384,-173,-851,-3059,739,-2496,-7874,1745153851382784884,2
460576,-186,-814,-3035,742,-2499,-8000,1745153851382784884,2
460768,-190,-784,-3009,776,-2496,-8104,1745153851382784884,2
460960,-192,-760,-2980,819,-2569,-8086,1745153851382784884,2
461152,-191,-739,-2951,849,-2666,-8104,1745153851382784884,2
461344,-189,-720,-2926,857,-2755,-8189,1745153851443293654,2
461536,-188,-702,-2900,863,-2787,-8302,1745153851443293654,2
461728,-196,-685,-2883,891,-2794,-8360,1745153851443293654,2
461920,-213,-667,-2875,904,-2844,-8376,1745153851443293654,2
462112,-231,-654,-2866,909,-2901,-8365,1745153851443293654,2
462304,-242,-647,-2849,928,-2889,-8372,1745153851443293654,2
462496,-245,-641,-2828,950,-2826,-8419,1745153851443293654,2
462688,-246,-639,-2808,1017,-2684,-8349,1745153851443293654,2
462880,-238,-637,-2790,1066,-2518,-8209,1745153851443293654,2
463072,-209,-638,-2769,1099,-2341,-8086,1745153851443293654,2
463264,-156,-643,-2748,1161,-2187,-7959,1745153851443293654,2
463456,-81,-656,-2734,1215,-2085,-7864,1745153851443293654,2
463648,5,-674,-2733,1239,-2062,-7867,1745153851501309009,2
463840,88,-690,-2737,1256,-2132,-7983,1745153851501309009,2
464032,160,-705,-2738,1256,-2308,-8064,1745153851501309009,2
464224,213,-724,-2734,1296,-2615,-8068,1745153851501309009,2
464416,246,-753,-2728,1332,-2995,-8007,1745153851501309009,2
464608,256,-785,-2720,1272,-3381,-7947,1745153851501309009,2
464800,239,-809,-2709,1159,-3707,-7966,1745153851501309009,2
464992,198,-824,-2706,1002,-3954,-8008,1745153851501309009,2
465184,144,-824,-2715,783,-4124,-8101,1745153851501309009,2
465376,80,-811,-2729,573,-4194,-8082,1745153851501309009,2
465568,14,-798,-2728,427,-4191,-8026,1745153851501309009,2
465760,-50,-777,-2705,367,-4118,-7922,1745153851501309009,2
465952,-108,-760,-2670,375,-4016,-7844,1745153851569647187,2
466144,-163,-738,-2638,400,-3885,-7851,1745153851569647187,2
466336,-208,-715,-2610,482,-3744,-7809,1745153851569647187,2
466528,-241,-699,-2583,557,-3620,-7753,1745153851569647187,2
466720,-269,-683,-2549,596,-3540,-7777,1745153851569647187,2
466912,-283,-665,-2507,578,-3497,-7935,1745153851569647187,2
467104,-284,-645,-2459,583,-3434,-8142,1745153851569647187,2
467296,-285,-627,-2416,606,-3379,-8297,1745153851569647187,2
467488,-286,-612,-2376,666,-3408,-8377,1745153851569647187,2
467680,-285,-603,-2328,721,-3520,-8366,1745153851569647187,2
467872,-281,-596,-2271,775,-3704,-8366,1745153851569647187,2
468064,-277,-592,-2220,774,-3867,-8407,1745153851569647187,2
468256,-277,-590,-2182,816,-3956,-8377,1745153851617893361,2
468448,-216,-621,-2157,1118,-3639,-7886,1745153851617893361,2
468640,-125,-672,-2119,1238,-3034,-8339,1745153851617893361,2
468832,-133,-667,-2049,1070,-3363,-9496,1745153851617893361,2
469024,-201,-615,-1938,828,-4612,-9581,1745153851617893361,2
469216,-244,-577,-1782,598,-6151,-9168,1745153851617893361,2
469408,-259,-583,-1650,491,-7130,-9009,1745153851617893361,2
469600,-321,-598,-1587,387,-7382,-8735,1745153851617893361,2
469792,-452,-637,-1579,193,-7214,-8087,1745153851617893361,2
469984,-595,-668,-1598,-59,-6626,-7574,1745153851617893361,2
470176,-713,-652,-1622,-277,-5664,-7546,1745153851617893361,2
470368,-776,-607,-1632,-407,-4339,-7778,1745153851617893361,2
470560,-775,-558,-1608,-376,-3046,-7846,1745153851678502443,2
470752,-715,-516,-1568,-78,-2044,-7797,1745153851678502443,2
470944,-597,-482,-1536,381,-1370,-7787,1745153851678502443,2
471136,-441,-451,-1511,915,-890,-7817,1745153851678502443,2
471328,-281,-448,-1474,1405,-563,-7841,1745153851678502443,2
471520,-159,-444,-1411,1806,-504,-7923,1745153851678502443,2
471712,-59,-455,-1316,2126,-835,-8156,1745153851678502443,2
471904,29,-491,-1199,2303,-1553,-8522,1745153851678502443,2
472096,98,-546,-1084,2300,-2579,-8996,1745153851678502443,2
472288,130,-603,-995,2175,-3694,-9413,1745153851678502443,2
472480,117,-653,-926,1864,-4632,-9690,1745153851678502443,2
472672,43,-681,-869,1459,-5462,-9747,1745153851678502443,2
472864,-78,-699,-831,1030,-5847,-9611,1745153851735797857,2
473056,-224,-678,-786,595,-5980,-9343,1745153851735797857,2
473248,-383,-647,-756,252,-5898,-9025,1745153851735797857,2
473440,-549,-592,-742,-42,-5611,-8612,1745153851735797857,2
473632,-704,-524,-739,-219,-5191,-8173,1745153851735797857,2
473824,-828,-463,-735,-303,-4700,-7771,1745153851735797857,2
474016,-912,-405,-725,-287,-4192,-7455,1745153851735797857,2
474208,-959,-357,-710,-226,-3722,-7147,1745153851735797857,2
474400,-974,-318,-693,-158,-3374,-6886,1745153851735797857,2
474592,-965,-286,-678,-120,-3116,-6646,1745153851735797857,2
474784,-938,-257,-664,-97,-2950,-6428,1745153851735797857,2
474976,-899,-236,-646,-136,-2894,-6189,1745153851735797857,2
475168,-842,-219,-625,-243,-2861,-5963,1745153851795113825,2
475360,-767,-203,-598,-391,-2842,-5835,1745153851795113825,2
475552,-681,-178,-567,-570,-2800,-5839,1745153851795113825,2
475744,-592,-144,-534,-737,-2753,-5867,1745153851795113825,2
475936,-504,-101,-500,-857,-2720,-5975,1745153851795113825,2
476128,-417,-45,-468,-915,-2642,-6154,1745153851795113825,2
476320,-337,19,-440,-882,-2548,-6341,1745153851795113825,2
476512,-271,91,-416,-761,-2461,-6493,1745153851795113825,2
476704,-218,157,-390,-559,-2392,-6604,1745153851795113825,2
476896,-171,214,-352,-328,-2365,-6675,1745153851795113825,2
477088,-135,262,-306,-100,-2383,-6756,1745153851795113825,2
477280,-111,300,-264,77,-2427,-6826,1745153851795113825,2
477472,-104,334,-228,159,-2528,-6865,1745153851911099172,2
477664,-110,365,-191,157,-2628,-6842,1745153851911099172,2
477856,-120,391,-147,127,-2688,-6786,1745153851911099172,2
478048,-131,418,-98,53,-2727,-6689,1745153851911099172,2
478240,-143,444,-54,-9,-2769,-6562,1745153851911099172,2
478432,-151,474,-19,-45,-2804,-6525,1745153851911099172,2
478624,-158,510,4,-27,-2803,-6577,1745153851911099172,2
478816,-165,545,20,21,-2755,-6657,1745153851911099172,2
479008,-175,582,30,137,-2656,-6758,1745153851911099172,2
479200,-185,621,38,268,-2471,-7010,1745153851911099172,2
479392,-190,664,47,447,-2264,-7279,1745153851911099172,2
479584,-187,712,59,659,-2007,-7626,1745153851911099172,2
479776,-173,760,71,949,-1689,-8029,1745153851920438253,2
479968,-157,801,82,1263,-1388,-8326,1745153851920438253,2
480160,-141,827,96,1612,-1186,-8498,1745153851920438253,2
480352,-127,833,115,1956,-1090,-8616,1745153851920438253,2
480544,-110,823,138,2215,-1112,-8683,1745153851920438253,2
480736,-91,801,171,2404,-1198,-8705,1745153851920438253,2
480928,-81,767,207,2507,-1333,-8669,1745153851920438253,2
481120,-78,728,246,2528,-1496,-8594,1745153851920438253,2
481312,-82,684,275,2473,-1669,-8433,1745153851920438253,2
481504,-95,645,288,2340,-1831,-8305,1745153851920438253,2
481696,-116,610,293,2140,-1991,-8167,1745153851920438253,2
481888,-143,586,296,1962,-2028,-8138,1745153851920438253,2
482080,-173,570,298,1818,-2009,-8151,1745153851981807224,2
482272,-212,566,292,1725,-1903,-8076,1745153851981807224,2
482464,-263,573,283,1696,-1764,-7992,1745153851981807224,2
482656,-313,588,273,1720,-1608,-7915,1745153851981807224,2
482848,-352,600,269,1782,-1494,-7845,1745153851981807224,2
483040,-377,603,268,1858,-1373,-7824,1745153851981807224,2
483232,-389,606,270,1925,-1229,-7907,1745153851981807224,2
483424,-386,612,275,2018,-1090,-7943,1745153851981807224,2
483616,-377,618,273,2128,-948,-7912,1745153851981807224,2
483808,-369,630,270,2226,-827,-7863,1745153851981807224,2
484000,-370,647,267,2325,-759,-7718,1745153851981807224,2
484192,-373,657,269,2462,-792,-7521,1745153851981807224,2
484384,-375,650,273,2616,-881,-7327,1745153852027401755,2
484576,-373,630,281,2738,-987,-7211,1745153852027401755,2
484768,-373,594,298,2919,-1123,-7238,1745153852027401755,2
484960,-379,536,318,3105,-1198,-7380,1745153852027401755,2
485152,-390,451,330,3301,-1269,-7639,1745153852027401755,2
485344,-389,321,323,3499,-1292,-7944,1745153852027401755,2
485536,-363,156,297,3637,-1239,-8261,1745153852027401755,2
485728,-306,-13,258,3677,-1100,-8464,1745153852027401755,2
485920,-228,-158,216,3616,-929,-8540,1745153852027401755,2
486112,-144,-270,168,3463,-757,-8531,1745153852027401755,2
486304,-76,-345,120,3203,-653,-8434,1745153852027401755,2
486496,-29,-392,80,2878,-626,-8264,1745153852027401755,2
486688,-10,-413,62,2490,-702,-8047,1745153852085506433,2
486880,-9,-413,79,2073,-787,-7769,1745153852085506433,2
487072,-29,-395,116,1718,-869,-7561,1745153852085506433,2
487264,-76,-355,145,1414,-914,-7428,1745153852085506433,2
487456,-129,-299,148,1212,-912,-7420,1745153852085506433,2
487648,-171,-234,133,1086,-771,-7474,1745153852085506433,2
487840,-197,-172,116,1108,-534,-7529,1745153852085506433,2
488032,-196,-116,101,1226,-234,-7613,1745153852085506433,2
488224,-165,-83,88,1448,87,-7822,1745153852085506433,2
488416,-107,-79,69,1680,429,-8126,1745153852085506433,2
488608,-37,-88,43,1883,730,-8385,1745153852085506433,2
488800,34,-101,20,1975,931,-8618,1745153852085506433,2
488992,96,-114,11,1944,1013,-8907,1745153852148608825,2
489184,148,-137,12,1805,975,-9350,1745153852148608825,2
489376,188,-162,18,1638,820,-9685,1745153852148608825,2
489568,214,-183,29,1421,560,-9920,1745153852148608825,2
489760,244,-193,48,1170,225,-10048,1745153852148608825,2
489952,283,-201,72,956,-152,-10083,1745153852148608825,2
490144,318,-209,93,769,-515,-10028,1745153852148608825,2
490336,331,-207,110,631,-882,-9862,1745153852148608825,2
490528,314,-189,126,550,-1179,-9571,1745153852148608825,2
490720,269,-164,141,485,-1422,-9206,1745153852148608825,2
490912,215,-141,153,442,-1595,-8850,1745153852148608825,2
491104,155,-114,164,446,-1657,-8584,1745153852148608825,2
491296,95,-81,168,470,-1617,-8442,1745153852212793447,2
491488,38,-54,167,548,-1480,-8367,1745153852212793447,2
491680,-7,-44,162,656,-1322,-8287,1745153852212793447,2
491872,-38,-40,151,714,-1125,-8157,1745153852212793447,2
492064,-53,-36,137,776,-898,-8028,1745153852212793447,2
492256,-58,-29,119,841,-718,-7915,1745153852212793447,2
492448,-54,-22,100,888,-579,-7847,1745153852212793447,2
492640,-39,-20,82,927,-512,-7817,1745153852212793447,2
492832,-11,-16,67,1008,-497,-7813,1745153852212793447,2
493024,20,-15,57,1066,-545,-7858,1745153852212793447,2
493216,47,-17,51,1125,-632,-7902,1745153852212793447,2
493408,64,-19,54,1144,-726,-7955,1745153852212793447,2
493600,73,-17,68,1187,-838,-8009,1745153852260611136,2
493792,81,-19,81,1206,-970,-8011,1745153852260611136,2
493984,82,-31,88,1220,-1077,-8086,1745153852260611136,2
494176,79,-42,83,1181,-1149,-8171,1745153852260611136,2
494368,64,-50,70,1076,-1177,-8204,1745153852260611136,2
494560,44,-54,61,972,-1166,-8222,1745153852260611136,2
494752,20,-50,56,874,-1084,-8256,1745153852260611136,2
494944,-4,-42,58,812,-979,-8271,1745153852260611136,2
495136,-25,-33,58,784,-868,-8262,1745153852260611136,2
495328,-44,-23,53,777,-773,-8295,1745153852260611136,2
495520,-60,-15,44,799,-702,-8308,1745153852260611136,2
495712,-69,-11,36,780,-659,-8283,1745153852260611136,2
495904,-68,-12,34,765,-638,-8245,1745153852328005676,2
496096,-58,-13,37,743,-618,-8237,1745153852328005676,2
496288,-45,-17,45,711,-639,-8186,1745153852328005676,2
496480,-33,-25,47,676,-696,-8101,1745153852328005676,2
496672,-27,-28,40,637,-757,-8008,1745153852328005676,2
496864,-25,-27,32,611,-846,-7924,1745153852328005676,2
497056,-26,-23,29,581,-915,-7867,1745153852328005676,2
497248,-23,-20,33,578,-952,-7811,1745153852328005676,2
497440,-15,-20,41,613,-972,-7804,1745153852328005676,2
497632,-4,-21,47,648,-943,-7819,1745153852328005676,2
497824,3,-23,48,682,-920,-7856,1745153852328005676,2
498016,3,-25,43,707,-901,-7929,1745153852328005676,2
498208,-1,-25,38,726,-886,-8020,1745153852386455923,2
498400,-3,-26,32,736,-872,-8089,1745153852386455923,2
498592,-3,-28,29,742,-845,-8159,1745153852386455923,2
498784,-5,-29,24,708,-826,-8219,1745153852386455923,2
498976,-10,-31,20,697,-809,-8256,1745153852386455923,2
499168,-17,-32,16,680,-798,-8274,1745153852386455923,2
499360,-23,-32,14,645,-786,-8315,1745153852386455923,2
499552,-32,-30,15,631,-802,-8318,1745153852386455923,2
499744,-39,-26,17,611,-795,-8280,1745153852386455923,2
499936,-47,-20,21,601,-812,-8218,1745153852386455923,2
500128,-51,-14,25,615,-789,-8146,1745153852386455923,2
500320,-53,-9,29,651,-761,-8055,1745153852386455923,2
500512,-52,-7,30,695,-741,-7949,1745153852434574130,2
500704,-46,-6,30,725,-748,-7880,1745153852434574130,2
500896,-37,-7,26,741,-779,-7843,1745153852434574130,2
501088,-30,-10,18,729,-813,-7833,1745153852434574130,2
501280,-22,-12,10,710,-840,-7836,1745153852434574130,2
501472,-13,-12,7,687,-851,-7869,1745153852434574130,2
501664,-7,-13,7,710,-861,-7907,1745153852434574130,2
501856,-1,-16,7,705,-846,-7963,1745153852434574130,2
502048,6,-20,2,694,-845,-8026,1745153852434574130,2
502240,8,-23,-3,654,-848,-8062,1745153852434574130,2
502432,10,-25,-6,622,-843,-8121,1745153852434574130,2
502624,10,-25,-11,580,-830,-8165,1745153852434574130,2
502816,7,-24,-13,575,-815,-8226,1745153852495011286,2
503008,2,-20,-11,516,-810,-8289,1745153852495011286,2
503200,-3,-15,-9,518,-796,-8354,1745153852495011286,2
503392,-9,-9,-6,537,-783,-8372,1745153852495011286,2
503584,-18,-4,-2,573,-778,-8353,1745153852495011286,2
503776,-29,1,0,592,-777,-8318,1745153852495011286,2
503968,-38,5,4,602,-777,-8238,1745153852495011286,2
504160,-42,8,9,617,-781,-8166,1745153852495011286,2
504352,-43,10,14,629,-767,-8078,1745153852495011286,2
504544,-40,12,16,634,-766,-7985,1745153852495011286,2
504736,-36,12,17,616,-757,-7921,1745153852495011286,2
504928,-32,10,14,632,-764,-7863,1745153852495011286,2
505120,-26,8,10,630,-765,-7833,1745153852551458843,2
505312,-18,5,4,633,-782,-7794,1745153852551458843,2
505504,-8,4,0,638,-787,-7802,1745153852551458843,2
505696,2,2,-3,649,-783,-7832,1745153852551458843,2
505888,9,0,-5,635,-789,-7899,1745153852551458843,2
506080,16,-3,-9,631,-796,-7954,1745153852551458843,2
506272,26,-4,-13,645,-812,-8050,1745153852551458843,2
506464,33,-3,-16,649,-823,-8107,1745153852551458843,2
506656,34,-2,-20,650,-834,-8187,1745153852551458843,2
506848,32,-2,-23,654,-857,-8261,1745153852551458843,2
507040,27,1,-24,637,-873,-8349,1745153852551458843,2
507232,22,-36,-24,1290,-366,-6660,1745153852551458843,2
507424,-583,-287,-115,1857,-3429,-6258,1745153852624341511,2
507616,-697,-441,-362,688,-3201,-9601,1745153852624341511,2
507808,-530,-197,-112,1132,-3421,-8125,1745153852624341511,2
508000,-598,-198,-1,381,-833,-7166,1745153852624341511,2
508192,-458,-163,108,-111,1677,-7484,1745153852624341511,2
508384,-229,-90,103,-84,2834,-8174,1745153852624341511,2
508576,-48,-93,-7,393,2264,-8340,1745153852624341511,2
508768,56,-110,-134,727,734,-8228,1745153852624341511,2
508960,97,-129,-183,822,-688,-8332,1745153852624341511,2
509152,123,-149,-133,936,-1253,-8319,1745153852624341511,2
509344,124,-164,-29,871,-1149,-8176,1745153852624341511,2
509536,110,-183,57,721,-539,-8092,1745153852624341511,2
569248,208,-169,38,584,-814,-8951,1745153854185646623,3
569440,378,-240,33,464,-980,-7799,1745153854185646623,3
569632,102,-131,13,437,-1061,-8967,1745153854185646623,3
569824,52,-131,20,430,-754,-8490,1745153854185646623,3
570016,24,-99,35,225,-580,-8578,1745153854185646623,3
570208,25,-45,25,128,-575,-8679,1745153854185646623,3
570400,3,-32,4,139,-598,-8583,1745153854185646623,3
570592,12,1,-10,225,-679,-8533,1745153854185646623,3
570784,10,25,-11,305,-931,-8468,1745153854185646623,3
570976,-14,31,-8,385,-898,-8408,1745153854185646623,3
571168,-13,43,4,468,-799,-8259,1745153854185646623,3
571360,-24,45,16,451,-851,-8168,1745153854185646623,3
571552,-44,44,16,337,-984,-8051,1745153854241547519,3
571744,-62,61,16,224,-977,-7903,1745153854241547519,3
571936,-76,78,24,121,-857,-7799,1745153854241547519,3
572128,-76,101,31,107,-726,-7787,1745153854241547519,3
572320,-75,124,29,201,-668,-7792,1745153854241547519,3
572512,-74,135,18,346,-659,-7812,1745153854241547519,3
572704,-68,145,8,517,-602,-7829,1745153854241547519,3
572896,-61,150,5,646,-483,-7896,1745153854241547519,3
573088,-48,153,5,711,-353,-8040,1745153854241547519,3
573280,-28,163,6,744,-212,-8213,1745153854241547519,3
573472,-2,169,4,769,-81,-8374,1745153854241547519,3
573664,35,172,1,830,17,-8549,1745153854241547519,3
573856,76,171,-2,939,75,-8648,1745153854306139116,3
574048,119,162,-6,1094,103,-8709,1745153854306139116,3
574240,167,147,-7,1266,149,-8750,1745153854306139116,3
574432,182,115,-12,1275,-1169,-8866,1745153854306139116,3
574624,284,122,-18,1646,663,-8869,1745153854306139116,3
574816,517,91,43,1480,827,-8279,1745153854306139116,3
575008,664,106,66,1515,168,-9015,1745153854306139116,3
575200,766,111,42,1431,-861,-8932,1745153854306139116,3
575392,652,73,46,1126,-181,-8552,1745153854306139116,3
575584,201,-11,59,1549,-2481,-9470,1745153854306139116,3
575776,-327,-51,59,2430,-5543,-8366,1745153854306139116,3
575968,-647,-125,-49,2106,-4875,-8645,1745153854306139116,3
