timestamp,gyr_x,gyr_y,gyr_z,acc_x,acc_y,acc_z,pkt_time_ns,series_id
37600,187,-64,21,2427,1523,-7965,1745152644112332885,0
37792,210,-119,14,1607,446,-8132,1745152644112332885,0
37984,128,-151,-16,1776,1178,-8298,1745152644112332885,0
38176,130,-170,-14,1460,1192,-8017,1745152644112332885,0
38368,162,-123,-8,1325,1185,-8238,1745152644112332885,0
38560,159,-121,0,1320,1144,-8281,1745152644112332885,0
38752,152,-89,10,1333,1113,-8296,1745152644112332885,0
38944,160,-62,22,1353,1085,-8267,1745152644112332885,0
39136,154,-57,35,1476,1040,-8172,1745152644112332885,0
39328,164,-51,45,1651,1026,-8117,1745152644112332885,0
39520,178,-74,58,1817,1107,-7990,1745152644112332885,0
39712,202,-119,74,1873,1325,-7817,1745152644112332885,0
39904,250,-152,90,1796,1545,-7665,1745152644170242824,0
40096,308,-182,98,1630,1615,-7561,1745152644170242824,0
40288,371,-197,93,1480,1531,-7536,1745152644170242824,0
40480,419,-195,77,1312,1220,-7565,1745152644170242824,0
40672,436,-187,53,1157,932,-7646,1745152644170242824,0
40864,450,-159,34,994,717,-7776,1745152644170242824,0
41056,452,-121,27,884,469,-7903,1745152644170242824,0
41248,440,-72,23,810,180,-8133,1745152644170242824,0
41440,410,-4,17,703,54,-8332,1745152644170242824,0
41632,369,77,10,582,34,-8476,1745152644170242824,0
41824,336,169,4,469,176,-8650,1745152644170242824,0
42016,318,271,-4,396,349,-8819,1745152644170242824,0
42208,297,377,-18,316,324,-8925,1745152644224647015,0
42400,272,474,-38,574,249,-7825,1745152644224647015,0
42592,236,564,-55,290,-604,-10429,1745152644224647015,0
42784,280,628,-39,980,1400,-8248,1745152644224647015,0
42976,483,600,0,1327,2019,-7934,1745152644224647015,0
43168,369,609,72,2078,421,-8474,1745152644224647015,0
43360,3,474,65,4409,-2599,-8601,1745152644224647015,0
43552,-561,214,-2,5201,-3435,-7320,1745152644224647015,0
43744,-659,-47,21,4675,-2059,-7424,1745152644224647015,0
43936,-816,-264,65,3657,-854,-7340,1745152644224647015,0
44128,-833,-334,76,2789,620,-7462,1745152644224647015,0
44320,-811,-320,24,1868,1774,-7345,1745152644224647015,0
44512,-693,-314,-67,1134,2582,-7299,1745152644285509480,0
44704,-538,-263,-153,550,3021,-7224,1745152644285509480,0
44896,-353,-191,-195,175,3214,-7189,1745152644285509480,0
45088,-141,-105,-177,13,2993,-7224,1745152644285509480,0
45280,62,-3,-115,182,2501,-7377,1745152644285509480,0
45472,208,99,-48,531,1856,-7526,1745152644285509480,0
45664,293,175,-2,987,1209,-7686,1745152644285509480,0
45856,316,210,12,1480,641,-7834,1745152644285509480,0
46048,290,208,6,1894,209,-7962,1745152644285509480,0
46240,231,181,-9,2202,-93,-8060,1745152644285509480,0
46432,156,139,-22,2385,-235,-8119,1745152644285509480,0
46624,78,86,-31,2462,-233,-8172,1745152644285509480,0
46816,3,35,-39,2368,-36,-8202,1745152644343391972,0
47008,-56,-10,-40,2167,222,-8209,1745152644343391972,0
47200,-92,-44,-39,1909,480,-8153,1745152644343391972,0
47392,-97,-64,-43,1676,729,-8069,1745152644343391972,0
47584,-74,-73,-49,1445,901,-7960,1745152644343391972,0
47776,-36,-67,-54,1293,995,-7881,1745152644343391972,0
47968,1,-47,-59,1181,1043,-7826,1745152644343391972,0
48160,29,-17,-67,1195,1018,-7772,1745152644343391972,0
48352,46,14,-75,1250,955,-7752,1745152644343391972,0
48544,60,42,-84,1351,872,-7715,1745152644343391972,0
48736,74,58,-90,1484,801,-7740,1745152644343391972,0
48928,89,63,-90,1618,778,-7762,1745152644343391972,0
49120,100,58,-89,1720,764,-7813,1745152644407283836,0
49312,106,46,-90,1799,765,-7875,1745152644407283836,0
49504,103,30,-93,1833,777,-7916,1745152644407283836,0
49696,99,12,-99,1815,779,-7952,1745152644407283836,0
49888,96,-5,-102,1780,767,-7968,1745152644407283836,0
50080,94,-17,-103,1744,746,-8023,1745152644407283836,0
50272,91,-25,-103,1687,720,-8039,1745152644407283836,0
50464,80,-27,-105,1635,674,-8148,1745152644407283836,0
50656,64,-26,-108,1635,588,-8259,1745152644407283836,0
50848,34,-28,-112,1658,495,-8356,1745152644407283836,0
51040,-12,-30,-113,1682,353,-8422,1745152644407283836,0
51232,-67,-31,-109,1768,206,-8689,1745152644407283836,0
51424,-124,-43,-100,1948,30,-9195,1745152644471192263,0
51616,-186,-62,-87,2150,-137,-9468,1745152644471192263,0
51808,-257,-68,-76,2343,-181,-9612,1745152644471192263,0
52000,-382,-78,-78,2521,-453,-9002,1745152644471192263,0
52192,-526,-113,-97,2688,-497,-10444,1745152644471192263,0
52384,-649,-141,-120,2876,-325,-10647,1745152644471192263,0
52576,-750,-159,-110,3031,-183,-9907,1745152644471192263,0
52768,-731,-191,-85,3297,171,-10072,1745152644471192263,0
52960,-749,-228,-74,3520,533,-9880,1745152644471192263,0
53152,-793,-265,-101,3539,807,-9758,1745152644471192263,0
53344,-833,-308,-154,3400,894,-9578,1745152644471192263,0
53536,-822,-365,-198,3239,812,-9295,1745152644471192263,0
53728,-786,-405,-216,3106,570,-8708,1745152644518538653,0
53920,-754,-403,-213,2867,436,-7905,1745152644518538653,0
54112,-679,-341,-220,2538,871,-8268,1745152644518538653,0
54304,-583,-288,-247,2269,1328,-8040,1745152644518538653,0
54496,-547,-211,-275,2034,1422,-7556,1745152644518538653,0
54688,-450,-142,-306,1960,1485,-7857,1745152644518538653,0
54880,-314,-113,-332,2001,1523,-7976,1745152644518538653,0
55072,-174,-85,-349,2191,1602,-7999,1745152644518538653,0
55264,-46,-38,-366,2372,1732,-8206,1745152644518538653,0
55456,81,15,-388,2609,1985,-8628,1745152644518538653,0
55648,195,78,-407,2811,2153,-8704,1745152644518538653,0
55840,326,109,-412,3093,2131,-9010,1745152644518538653,0
56032,463,81,-404,3399,1891,-9219,1745152644580704960,0
56224,612,13,-383,3748,1503,-9369,1745152644580704960,0
56416,718,-69,-345,4051,982,-9480,1745152644580704960,0
56608,786,-175,-288,4339,211,-9454,1745152644580704960,0
56800,819,-277,-244,4524,-593,-9431,1745152644580704960,0
56992,809,-381,-231,4466,-1291,-9358,1745152644580704960,0
57184,757,-493,-220,4338,-1942,-9157,1745152644580704960,0
57376,647,-566,-211,4317,-2367,-9526,1745152644580704960,0
57568,394,-653,-273,4107,-2726,-9510,1745152644580704960,0
57760,103,-737,-372,3896,-2535,-9461,1745152644580704960,0
57952,-234,-754,-441,3685,-2056,-9295,1745152644580704960,0
58144,-527,-751,-474,3351,-1386,-9129,1745152644580704960,0
58336,-735,-769,-475,3096,-580,-9069,1745152644633744215,0
58528,-870,-788,-406,3355,827,-9413,1745152644633744215,0
58720,-1071,-684,-19,4967,1959,-9151,1745152644633744215,0
58912,-1154,-737,464,5824,1350,-9010,1745152644633744215,0
59104,-737,-1061,677,5871,1090,-10055,1745152644633744215,0
59296,-161,-1390,643,5303,999,-10447,1745152644633744215,0
59488,300,-1596,532,4403,577,-10541,1745152644633744215,0
59680,570,-1650,451,3397,-454,-10353,1745152644633744215,0
59872,735,-1600,440,2451,-1569,-10151,1745152644633744215,0
60064,864,-1540,520,1833,-2393,-10008,1745152644633744215,0
60256,928,-1489,645,1457,-3043,-9829,1745152644633744215,0
60448,919,-1435,761,1273,-3565,-9613,1745152644633744215,0
60640,838,-1368,847,1187,-3987,-9279,1745152644693280755,0
60832,709,-1291,915,1273,-4267,-8833,1745152644693280755,0
61024,547,-1230,983,1411,-4425,-8380,1745152644693280755,0
61216,365,-1195,1065,1602,-4473,-8000,1745152644693280755,0
61408,180,-1186,1162,1748,-4390,-7708,1745152644693280755,0
61600,8,-1195,1261,1794,-4193,-7445,1745152644693280755,0
61792,-142,-1202,1363,1731,-3898,-7235,1745152644693280755,0
61984,-269,-1201,1462,1614,-3645,-7076,1745152644693280755,0
62176,-371,-1187,1550,1413,-3430,-6997,1745152644693280755,0
62368,-450,-1159,1629,1195,-3263,-7008,1745152644693280755,0
62560,-510,-1117,1704,943,-3112,-7053,1745152644693280755,0
62752,-558,-1063,1781,775,-3001,-7146,1745152644693280755,0
62944,-594,-1003,1861,687,-2886,-7239,1745152644752684847,0
63136,-615,-940,1941,665,-2753,-7332,1745152644752684847,0
63328,-615,-879,2016,685,-2660,-7386,1745152644752684847,0
63520,-587,-824,2089,745,-2483,-7486,1745152644752684847,0
63712,-541,-766,2160,819,-2293,-7484,1745152644752684847,0
63904,-480,-711,2228,915,-2113,-7426,1745152644752684847,0
64096,-404,-660,2294,1022,-1971,-7326,1745152644752684847,0
64288,-319,-611,2357,1143,-1788,-7188,1745152644752684847,0
64480,-221,-561,2414,1237,-1585,-7063,1745152644752684847,0
64672,-110,-513,2465,1288,-1342,-6977,1745152644752684847,0
64864,15,-467,2510,1347,-1110,-6897,1745152644752684847,0
65056,149,-427,2550,1422,-899,-6867,1745152644752684847,0
65248,289,-385,2589,1427,-710,-6848,1745152644810920305,0
65440,425,-334,2637,1415,-584,-6770,1745152644810920305,0
65632,564,-284,2694,1433,-531,-6761,1745152644810920305,0
65824,690,-232,2754,1471,-502,-6786,1745152644810920305,0
66016,794,-178,2813,1509,-549,-6800,1745152644810920305,0
66208,874,-124,2868,1551,-599,-6785,1745152644810920305,0
66400,928,-72,2920,1578,-654,-6811,1745152644810920305,0
66592,954,-21,2970,1618,-683,-6833,1745152644810920305,0
66784,957,34,3022,1642,-663,-6782,1745152644810920305,0
66976,952,88,3074,1680,-562,-6757,1745152644810920305,0
67168,945,139,3125,1762,-418,-6798,1745152644810920305,0
67360,929,186,3171,1898,-269,-6873,1745152644810920305,0
67552,903,225,3213,2036,-194,-6936,1745152644873640618,0
67744,868,261,3252,2142,-143,-7012,1745152644873640618,0
67936,828,294,3297,2269,-176,-7130,1745152644873640618,0
68128,785,326,3345,2395,-217,-7286,1745152644873640618,0
68320,737,355,3395,2520,-236,-7397,1745152644873640618,0
68512,688,382,3442,2666,-199,-7522,1745152644873640618,0
68704,641,405,3482,2783,-104,-7727,1745152644873640618,0
68896,597,427,3518,2914,48,-7880,1745152644873640618,0
69088,562,449,3549,3050,214,-7992,1745152644873640618,0
69280,542,462,3580,3193,409,-8134,1745152644873640618,0
69472,531,478,3612,3318,602,-8153,1745152644873640618,0
69664,538,491,3648,3459,805,-8243,1745152644873640618,0
69856,557,500,3680,3613,1059,-8316,1745152644926862892,0
70048,585,507,3709,3764,1296,-8350,1745152644926862892,0
70240,623,499,3734,3916,1436,-8335,1745152644926862892,0
70432,671,500,3750,4102,1581,-8384,1745152644926862892,0
70624,708,485,3763,4185,1529,-8207,1745152644926862892,0
70816,763,458,3784,4209,1524,-8090,1745152644926862892,0
71008,803,447,3811,4219,1416,-7939,1745152644926862892,0
71200,843,436,3833,4198,1268,-7873,1745152644926862892,0
71392,863,430,3849,4187,1169,-7866,1745152644926862892,0
71584,856,433,3858,4206,1081,-7903,1745152644926862892,0
71776,824,441,3863,4291,1010,-7956,1745152644926862892,0
71968,771,449,3859,4417,944,-7970,1745152644926862892,0
72160,702,451,3852,4556,937,-8016,1745152644991233606,0
72352,625,447,3846,4717,989,-8078,1745152644991233606,0
72544,534,432,3839,4828,1041,-8088,1745152644991233606,0
72736,460,423,3825,5036,1246,-8144,1745152644991233606,0
72928,364,418,3800,5108,1388,-8056,1745152644991233606,0
73120,308,371,3779,5185,1583,-8095,1745152644991233606,0
73312,243,349,3764,5160,1709,-8092,1745152644991233606,0
73504,198,326,3744,5139,1870,-8155,1745152644991233606,0
73696,160,308,3717,5110,2044,-8262,1745152644991233606,0
73888,131,293,3689,5058,2196,-8288,1745152644991233606,0
74080,112,277,3662,4977,2345,-8251,1745152644991233606,0
74272,96,262,3634,4922,2450,-8211,1745152644991233606,0
74464,84,242,3597,4935,2490,-8167,1745152645048330480,0
74656,69,224,3542,4920,2568,-8094,1745152645048330480,0
74848,50,206,3478,4846,2683,-7996,1745152645048330480,0
75040,41,176,3415,4754,2772,-7813,1745152645048330480,0
75232,40,178,3342,4713,2896,-7919,1745152645048330480,0
75424,31,137,3260,4616,2932,-7789,1745152645048330480,0
75616,24,96,3181,4486,2944,-7822,1745152645048330480,0
75808,1,71,3104,4307,2909,-7791,1745152645048330480,0
76000,-24,39,3025,4132,2887,-7868,1745152645048330480,0
76192,-71,12,2942,3921,2800,-7759,1745152645048330480,0
76384,-125,-14,2860,3676,2773,-7679,1745152645048330480,0
76576,-192,-30,2785,3451,2802,-7582,1745152645048330480,0
76768,-260,-48,2704,3230,2810,-7551,1745152645107620772,0
76960,-332,-70,2608,3059,2877,-7523,1745152645107620772,0
77152,-401,-92,2507,2829,2944,-7559,1745152645107620772,0
77344,-459,-112,2410,2654,3033,-7570,1745152645107620772,0
77536,-529,-95,2321,2459,3086,-7621,1745152645107620772,0
77728,-570,-112,2238,2316,3186,-7598,1745152645107620772,0
77920,-602,-111,2158,2162,3246,-7577,1745152645107620772,0
78112,-621,-107,2074,2076,3363,-7563,1745152645107620772,0
78304,-636,-104,1982,1983,3437,-7539,1745152645107620772,0
78496,-646,-96,1889,1914,3501,-7514,1745152645107620772,0
78688,-643,-94,1803,1853,3567,-7496,1745152645107620772,0
78880,-625,-98,1716,1762,3590,-7463,1745152645107620772,0
79072,-584,-110,1631,1648,3639,-7470,1745152645160592892,0
79264,-529,-118,1549,1497,3668,-7489,1745152645160592892,0
79456,-457,-120,1476,1373,3737,-7490,1745152645160592892,0
79648,-369,-118,1405,1269,3836,-7490,1745152645160592892,0
79840,-274,-112,1333,1156,3833,-7465,1745152645160592892,0
80032,-177,-111,1260,1076,3719,-7514,1745152645160592892,0
80224,-98,-100,1191,977,3508,-7555,1745152645160592892,0
80416,-40,-85,1134,914,3262,-7635,1745152645160592892,0
80608,-8,-67,1087,878,3022,-7724,1745152645160592892,0
80800,6,-50,1047,884,2811,-7785,1745152645160592892,0
80992,7,-39,1008,938,2660,-7799,1745152645160592892,0
81184,1,-34,972,966,2559,-7799,1745152645160592892,0
81376,-9,-36,937,1018,2520,-7796,1745152645233151604,0
81568,-20,-44,902,1046,2531,-7769,1745152645233151604,0
81760,-34,-40,876,729,2719,-7736,1745152645233151604,0
81952,-27,-26,890,625,2951,-7696,1745152645233151604,0
82144,-1,-33,887,698,3016,-7721,1745152645233151604,0
82336,27,-41,829,688,3001,-7798,1745152645233151604,0
82528,50,-43,764,623,2922,-7822,1745152645233151604,0
82720,81,-50,731,530,2884,-7954,1745152645233151604,0
82912,109,-49,719,484,2828,-8099,1745152645233151604,0
83104,117,-44,696,464,2627,-8113,1745152645233151604,0
83296,116,-38,659,446,2359,-8086,1745152645233151604,0
83488,104,-28,627,438,2069,-8052,1745152645233151604,0
83680,87,-19,611,439,1840,-8015,1745152645287750480,0
83872,64,-18,603,496,1713,-7983,1745152645287750480,0
84064,37,-20,593,590,1660,-7939,1745152645287750480,0
84256,5,-23,573,660,1675,-7907,1745152645287750480,0
84448,-32,-26,545,714,1728,-7877,1745152645287750480,0
84640,-61,-34,515,714,1811,-7871,1745152645287750480,0
84832,-79,-47,488,668,1861,-7858,1745152645287750480,0
85024,-81,-61,472,570,1909,-7812,1745152645287750480,0
85216,-71,-67,460,407,1949,-7821,1745152645287750480,0
85408,-57,-64,453,268,1982,-7859,1745152645287750480,0
85600,-46,-58,438,143,2053,-7921,1745152645287750480,0
85792,-42,-47,413,58,2083,-7978,1745152645287750480,0
85984,-39,-33,384,48,2062,-8036,1745152645339484383,0
86176,-37,-16,352,75,1998,-8080,1745152645339484383,0
86368,-39,2,322,129,1875,-8129,1745152645339484383,0
86560,-38,12,296,184,1788,-8130,1745152645339484383,0
86752,-37,14,274,250,1748,-8136,1745152645339484383,0
86944,-43,14,253,291,1691,-8090,1745152645339484383,0
87136,-44,11,233,314,1617,-8080,1745152645339484383,0
87328,-42,7,214,328,1533,-8049,1745152645339484383,0
87520,-34,2,199,288,1482,-8024,1745152645339484383,0
87712,-30,-3,182,276,1413,-8016,1745152645339484383,0
87904,-32,-8,162,236,1305,-8012,1745152645339484383,0
88096,-41,-10,146,195,1201,-7956,1745152645339484383,0
88288,-46,-11,131,155,1155,-7908,1745152645400796167,0
88480,-51,-12,116,106,1171,-7937,1745152645400796167,0
88672,-56,-13,100,41,1256,-7915,1745152645400796167,0
88864,-56,-7,89,2,1359,-7880,1745152645400796167,0
89056,-38,-2,81,29,1471,-7895,1745152645400796167,0
89248,-20,9,67,106,1485,-7989,1745152645400796167,0
89440,-5,24,43,111,1401,-8040,1745152645400796167,0
89632,19,32,29,166,1292,-8086,1745152645400796167,0
89824,42,34,31,232,1171,-8155,1745152645400796167,0
90016,54,32,37,273,1062,-8166,1745152645400796167,0
90208,55,26,35,319,943,-8215,1745152645400796167,0
90400,38,23,24,300,823,-8187,1745152645400796167,0
90592,18,21,10,276,700,-8157,1745152645456505710,0
90784,0,19,-1,240,573,-8118,1745152645456505710,0
90976,-16,18,-7,217,487,-8058,1745152645456505710,0
91168,-34,16,-12,203,418,-8039,1745152645456505710,0
91360,-53,15,-20,191,363,-8028,1745152645456505710,0
91552,-76,18,-29,199,277,-8003,1745152645456505710,0
91744,-97,20,-36,210,229,-7967,1745152645456505710,0
91936,-115,23,-38,208,167,-7948,1745152645456505710,0
92128,-128,25,-38,222,134,-7925,1745152645456505710,0
92320,-140,26,-38,245,154,-7942,1745152645456505710,0
92512,-154,23,-39,234,222,-7984,1745152645456505710,0
92704,-164,19,-43,220,340,-8008,1745152645456505710,0
92896,-166,15,-44,180,468,-8031,1745152645518338426,0
93088,-157,16,-39,155,610,-8053,1745152645518338426,0
93280,-140,25,-32,122,676,-8098,1745152645518338426,0
93472,-116,31,-27,136,711,-8185,1745152645518338426,0
93664,-89,36,-22,157,697,-8261,1745152645518338426,0
93856,-65,40,-14,213,722,-8283,1745152645518338426,0
94048,-41,44,-6,289,691,-8302,1745152645518338426,0
94240,-21,45,-1,350,602,-8252,1745152645518338426,0
94432,3,40,3,400,400,-8217,1745152645518338426,0
94624,28,33,10,398,177,-8233,1745152645518338426,0
94816,46,27,20,382,-59,-8316,1745152645518338426,0
95008,48,21,31,365,-237,-8353,1745152645518338426,0
95200,35,22,32,336,-385,-8342,1745152645573208758,0
95392,13,23,26,313,-455,-8332,1745152645573208758,0
95584,-17,22,16,266,-459,-8258,1745152645573208758,0
95776,-46,19,8,255,-434,-8214,1745152645573208758,0
95968,-81,18,0,230,-365,-8170,1745152645573208758,0
96160,-115,20,-8,243,-318,-8126,1745152645573208758,0
96352,-136,19,-16,215,-272,-8100,1745152645573208758,0
96544,-139,9,-19,220,-278,-7977,1745152645573208758,0
96736,-135,40,-18,269,-270,-8132,1745152645573208758,0
96928,-125,23,-18,284,-245,-8109,1745152645573208758,0
97120,-113,17,-19,356,-114,-8219,1745152645573208758,0
97312,-108,22,-26,377,-50,-8146,1745152645573208758,0
97504,-81,14,-32,387,-14,-8096,1745152645645546691,0
97696,-47,4,-37,386,-25,-8085,1745152645645546691,0
97888,-17,-2,-43,365,-52,-8086,1745152645645546691,0
98080,7,-7,-51,341,-107,-8070,1745152645645546691,0
98272,26,-8,-58,316,-167,-8078,1745152645645546691,0
98464,43,-6,-62,306,-187,-8133,1745152645645546691,0
98656,53,-2,-61,311,-149,-8170,1745152645645546691,0
98848,55,2,-63,332,-94,-8194,1745152645645546691,0
99040,52,5,-67,347,-26,-8190,1745152645645546691,0
99232,49,4,-72,370,8,-8163,1745152645645546691,0
99424,49,4,-76,382,6,-8136,1745152645645546691,0
99616,47,2,-82,374,-13,-8118,1745152645645546691,0
99808,39,1,-89,383,-70,-8092,1745152645698084180,0
100000,26,4,-95,392,-194,-8005,1745152645698084180,0
100192,19,6,-93,384,-350,-7923,1745152645698084180,0
100384,18,7,-87,372,-464,-7884,1745152645698084180,0
100576,18,5,-81,367,-493,-7906,1745152645698084180,0
100768,4,4,-80,369,-435,-7921,1745152645698084180,0
100960,-15,4,-82,377,-370,-7959,1745152645698084180,0
101152,-30,6,-84,349,-303,-7984,1745152645698084180,0
101344,-34,9,-81,354,-182,-7990,1745152645698084180,0
101536,-29,11,-75,348,-101,-8031,1745152645698084180,0
101728,-24,17,-72,348,-91,-8006,1745152645698084180,0
101920,-13,20,-71,380,-65,-8019,1745152645698084180,0
102112,-4,26,-69,383,-103,-8020,1745152645748663978,0
102304,3,28,-67,413,-126,-8006,1745152645748663978,0
102496,0,31,-65,422,-149,-7985,1745152645748663978,0
102688,-7,32,-66,423,-182,-7947,1745152645748663978,0
102880,-12,31,-70,452,-204,-7905,1745152645748663978,0
103072,-11,28,-71,460,-201,-7883,1745152645748663978,0
103264,-6,25,-72,449,-220,-7864,1745152645748663978,0
103456,-2,22,-76,429,-227,-7844,1745152645748663978,0
103648,1,21,-80,425,-237,-7861,1745152645748663978,0
103840,4,20,-82,388,-226,-7890,1745152645748663978,0
104032,5,22,-83,373,-216,-7921,1745152645748663978,0
104224,7,25,-82,364,-223,-7929,1745152645748663978,0
104416,9,26,-80,360,-218,-7940,1745152645813744165,0
104608,13,28,-78,355,-235,-7937,1745152645813744165,0
104800,16,29,-76,359,-212,-7968,1745152645813744165,0
104992,9,31,-73,371,-170,-7983,1745152645813744165,0
105184,-4,30,-72,367,-82,-7999,1745152645813744165,0
105376,-22,30,-74,366,-6,-8006,1745152645813744165,0
105568,-32,29,-78,365,39,-8002,1745152645813744165,0
105760,-32,32,-78,385,43,-7951,1745152645813744165,0
105952,-23,31,-74,392,-5,-7949,1745152645813744165,0
106144,-22,31,-72,398,-30,-7956,1745152645813744165,0
106336,-35,29,-72,403,-34,-7989,1745152645813744165,0
106528,-59,27,-76,396,-26,-7978,1745152645813744165,0
106720,-89,23,-83,419,12,-7985,1745152645866327747,0
106912,-118,22,-93,410,9,-7945,1745152645866327747,0
107104,-136,21,-97,403,-12,-7938,1745152645866327747,0
107296,-141,18,-98,384,-14,-7916,1745152645866327747,0
107488,-141,15,-102,368,80,-7925,1745152645866327747,0
107680,-143,15,-111,343,225,-7974,1745152645866327747,0
107872,-149,17,-122,323,453,-7960,1745152645866327747,0
108064,-151,24,-134,311,680,-7943,1745152645866327747,0
108256,-148,31,-145,315,888,-7936,1745152645866327747,0
108448,-142,39,-157,336,1080,-7885,1745152645866327747,0
108640,-131,47,-173,359,1213,-7840,1745152645866327747,0
108832,-116,53,-193,376,1308,-7826,1745152645866327747,0
109024,-98,58,-215,403,1428,-7814,1745152645925930484,0
109216,-81,62,-234,443,1467,-7811,1745152645925930484,0
109408,-67,65,-256,473,1552,-7834,1745152645925930484,0
109600,-63,69,-284,489,1681,-7876,1745152645925930484,0
109792,-68,70,-322,506,1860,-7886,1745152645925930484,0
109984,-81,70,-371,533,2078,-7885,1745152645925930484,0
110176,-92,68,-428,506,2273,-7865,1745152645925930484,0
110368,-95,67,-485,495,2436,-7871,1745152645925930484,0
110560,-91,70,-539,492,2645,-7911,1745152645925930484,0
110752,-81,77,-595,504,2855,-7982,1745152645925930484,0
110944,-64,86,-655,521,3051,-8048,1745152645925930484,0
111136,-36,97,-718,550,3191,-8065,1745152645925930484,0
111328,3,108,-786,571,3305,-8099,1745152645982867151,0
111520,49,117,-858,626,3376,-8152,1745152645982867151,0
111712,92,127,-931,681,3420,-8247,1745152645982867151,0
111904,131,133,-1007,744,3406,-8295,1745152645982867151,0
112096,159,138,-1085,786,3342,-8302,1745152645982867151,0
112288,182,140,-1163,852,3200,-8262,1745152645982867151,0
112480,194,142,-1238,881,3063,-8221,1745152645982867151,0
112672,199,143,-1308,948,2940,-8158,1745152645982867151,0
112864,198,142,-1372,1010,2877,-8080,1745152645982867151,0
113056,191,140,-1433,1085,2817,-7993,1745152645982867151,0
113248,182,139,-1493,1135,2805,-7896,1745152645982867151,0
113440,179,138,-1553,1216,2838,-7790,1745152645982867151,0
113632,186,135,-1611,1291,2893,-7778,1745152646040523500,0
113824,200,133,-1667,1387,2934,-7798,1745152646040523500,0
114016,222,132,-1718,1488,2987,-7842,1745152646040523500,0
114208,247,125,-1765,1586,2999,-7886,1745152646040523500,0
114400,272,114,-1809,1659,2958,-7949,1745152646040523500,0
114592,294,103,-1850,1709,2878,-7997,1745152646040523500,0
114784,312,94,-1886,1744,2754,-8018,1745152646040523500,0
114976,324,85,-1920,1766,2641,-8036,1745152646040523500,0
115168,325,75,-1955,1770,2570,-8030,1745152646040523500,0
115360,315,67,-1990,1771,2492,-8021,1745152646040523500,0
115552,295,62,-2025,1751,2493,-8010,1745152646040523500,0
115744,270,62,-2056,1729,2486,-7986,1745152646040523500,0
115936,246,62,-2082,1744,2463,-7974,1745152646095977837,0
116128,223,63,-2105,1768,2458,-7952,1745152646095977837,0
116320,197,68,-2127,1789,2429,-7941,1745152646095977837,0
116512,168,75,-2150,1812,2387,-7927,1745152646095977837,0
116704,137,82,-2173,1853,2359,-7905,1745152646095977837,0
116896,110,85,-2196,1875,2331,-7909,1745152646095977837,0
117088,89,92,-2212,1902,2342,-7906,1745152646095977837,0
117280,73,105,-2221,1942,2369,-7939,1745152646095977837,0
117472,56,122,-2234,1975,2467,-7942,1745152646095977837,0
117664,38,133,-2253,2034,2496,-7941,1745152646095977837,0
117856,27,143,-2274,2082,2532,-8008,1745152646095977837,0
118048,20,153,-2294,2146,2555,-8057,1745152646095977837,0
118240,15,162,-2315,2158,2603,-8099,1745152646158052999,0
118432,13,173,-2337,2200,2634,-8091,1745152646158052999,0
118624,13,179,-2363,2219,2642,-8062,1745152646158052999,0
118816,11,180,-2394,2234,2632,-8028,1745152646158052999,0
119008,0,188,-2423,2268,2642,-8001,1745152646158052999,0
119200,-17,204,-2443,2294,2617,-7955,1745152646158052999,0
119392,-33,222,-2454,2351,2591,-7870,1745152646158052999,0
119584,-45,236,-2467,2403,2544,-7840,1745152646158052999,0
119776,-56,247,-2482,2482,2459,-7830,1745152646158052999,0
119968,-66,252,-2509,2524,2309,-7788,1745152646158052999,0
120160,-74,260,-2535,2574,2158,-7719,1745152646158052999,0
120352,-77,271,-2550,2629,1936,-7679,1745152646158052999,0
120544,-82,281,-2564,2663,1756,-7694,1745152646217643184,0
120736,-88,289,-2580,2721,1622,-7725,1745152646217643184,0
120928,-97,293,-2601,2774,1465,-7699,1745152646217643184,0
121120,-109,293,-2622,2826,1328,-7621,1745152646217643184,0
121312,-118,294,-2651,2845,1259,-7566,1745152646217643184,0
121504,-128,292,-2684,2866,1233,-7571,1745152646217643184,0
121696,-140,294,-2718,2879,1241,-7553,1745152646217643184,0
121888,-144,289,-2753,2896,1325,-7580,1745152646217643184,0
122080,-135,283,-2786,2908,1417,-7574,1745152646217643184,0
122272,-116,280,-2808,2910,1522,-7577,1745152646217643184,0
122464,-88,284,-2819,2913,1623,-7609,1745152646217643184,0
122656,-51,285,-2824,2964,1695,-7591,1745152646217643184,0
122848,-8,277,-2833,2998,1709,-7566,1745152646276452595,0
123040,39,262,-2843,3002,1686,-7617,1745152646276452595,0
123232,80,249,-2854,3037,1639,-7634,1745152646276452595,0
123424,118,234,-2864,3069,1561,-7648,1745152646276452595,0
123616,155,221,-2870,3061,1423,-7659,1745152646276452595,0
123808,192,204,-2870,3060,1293,-7704,1745152646276452595,0
124000,229,183,-2870,3040,1143,-7772,1745152646276452595,0
124192,263,161,-2869,2995,990,-7824,1745152646276452595,0
124384,292,140,-2870,2954,828,-7860,1745152646276452595,0
124576,315,122,-2873,2909,673,-7871,1745152646276452595,0
124768,331,104,-2876,2844,526,-7886,1745152646276452595,0
124960,339,86,-2877,2782,426,-7900,1745152646276452595,0
125152,337,72,-2875,2742,329,-7882,1745152646334686750,0
125344,333,64,-2864,2703,237,-7885,1745152646334686750,0
125536,333,58,-2849,2665,201,-7910,1745152646334686750,0
125728,336,50,-2834,2639,139,-7945,1745152646334686750,0
125920,347,39,-2820,2615,123,-8006,1745152646334686750,0
126112,357,27,-2807,2599,92,-7999,1745152646334686750,0
126304,366,15,-2794,2582,61,-7942,1745152646334686750,0
126496,373,5,-2778,2536,-43,-7862,1745152646334686750,0
126688,376,-4,-2759,2518,-187,-7805,1745152646334686750,0
126880,379,-19,-2740,2451,-348,-7737,1745152646334686750,0
127072,376,-35,-2723,2381,-486,-7708,1745152646334686750,0
127264,369,-49,-2707,2294,-608,-7685,1745152646334686750,0
127456,357,-58,-2691,2185,-635,-7685,1745152646452996034,0
127648,342,-65,-2676,2086,-627,-7684,1745152646452996034,0
127840,328,-66,-2659,2022,-601,-7649,1745152646452996034,0
128032,317,-67,-2646,1936,-588,-7628,1745152646452996034,0
128224,314,-64,-2629,1860,-550,-7619,1745152646452996034,0
128416,321,-62,-2602,1829,-561,-7632,1745152646452996034,0
128608,331,-58,-2568,1795,-620,-7631,1745152646452996034,0
128800,343,-56,-2533,1799,-716,-7612,1745152646452996034,0
128992,352,-54,-2502,1806,-819,-7594,1745152646452996034,0
129184,359,-50,-2474,1782,-955,-7597,1745152646452996034,0
129376,365,-52,-2447,1747,-1059,-7640,1745152646452996034,0
129568,358,-53,-2423,1706,-1075,-7637,1745152646452996034,0
129760,334,-48,-2398,1658,-1111,-7579,1745152646461572362,0
129952,301,-41,-2370,1587,-1095,-7507,1745152646461572362,0
130144,265,-29,-2336,1540,-1042,-7448,1745152646461572362,0
130336,231,-15,-2299,1498,-960,-7353,1745152646461572362,0
130528,206,-5,-2266,1510,-861,-7286,1745152646461572362,0
130720,193,3,-2237,1492,-822,-7303,1745152646461572362,0
130912,202,5,-2211,1444,-772,-7322,1745152646461572362,0
131104,219,13,-2179,1400,-764,-7354,1745152646461572362,0
131296,238,21,-2142,1359,-811,-7369,1745152646461572362,0
131488,252,28,-2102,1359,-896,-7369,1745152646461572362,0
131680,258,38,-2060,1330,-980,-7377,1745152646461572362,0
131872,259,46,-2016,1304,-1045,-7358,1745152646461572362,0
132064,255,55,-1975,1288,-1116,-7316,1745152646516327539,0
132256,252,66,-1935,1271,-1125,-7377,1745152646516327539,0
132448,250,80,-1895,1256,-1071,-7487,1745152646516327539,0
132640,246,97,-1859,1257,-1008,-7581,1745152646516327539,0
132832,239,113,-1824,1267,-925,-7654,1745152646516327539,0
133024,235,125,-1788,1302,-826,-7691,1745152646516327539,0
133216,230,135,-1751,1322,-756,-7655,1745152646516327539,0
133408,220,143,-1713,1365,-704,-7579,1745152646516327539,0
133600,209,148,-1673,1391,-678,-7538,1745152646516327539,0
133792,197,150,-1630,1417,-629,-7512,1745152646516327539,0
133984,180,153,-1587,1399,-605,-7513,1745152646516327539,0
134176,165,156,-1542,1389,-569,-7508,1745152646516327539,0
134368,152,161,-1496,1360,-609,-7537,1745152646568474562,0
134560,147,170,-1449,1333,-674,-7565,1745152646568474562,0
134752,148,184,-1399,1298,-747,-7611,1745152646568474562,0
134944,139,202,-1354,1294,-844,-7641,1745152646568474562,0
135136,114,222,-1316,1288,-881,-7671,1745152646568474562,0
135328,71,246,-1283,1295,-864,-7690,1745152646568474562,0
135520,24,266,-1250,1356,-816,-7719,1745152646568474562,0
135712,-24,282,-1216,1449,-703,-7717,1745152646568474562,0
135904,-64,296,-1181,1524,-615,-7737,1745152646568474562,0
136096,-85,301,-1143,1632,-523,-7822,1745152646568474562,0
136288,-91,301,-1103,1738,-455,-7911,1745152646568474562,0
136480,-83,298,-1065,1819,-478,-7927,1745152646568474562,0
136672,-66,289,-1027,1888,-539,-7941,1745152646629295673,0
136864,-47,277,-988,1938,-613,-7910,1745152646629295673,0
137056,-36,264,-951,1956,-702,-7839,1745152646629295673,0
137248,-38,253,-919,1933,-768,-7770,1745152646629295673,0
137440,-52,244,-892,1889,-776,-7730,1745152646629295673,0
137632,-69,239,-869,1819,-781,-7715,1745152646629295673,0
137824,-84,235,-846,1769,-767,-7763,1745152646629295673,0
138016,-97,234,-822,1712,-766,-7892,1745152646629295673,0
138208,-110,237,-797,1675,-753,-8040,1745152646629295673,0
138400,-123,246,-770,1705,-687,-8211,1745152646629295673,0
138592,-135,259,-744,1749,-582,-8309,1745152646629295673,0
138784,-144,273,-716,1859,-448,-8396,1745152646629295673,0
138976,-149,286,-688,1986,-327,-8467,1745152646683307888,0
139168,-142,292,-662,2140,-205,-8567,1745152646683307888,0
139360,-126,291,-638,2276,-129,-8651,1745152646683307888,0
139552,-105,284,-617,2396,-75,-8723,1745152646683307888,0
139744,-84,270,-597,2510,-95,-8742,1745152646683307888,0
139936,-62,253,-574,2596,-180,-8744,1745152646683307888,0
140128,-47,234,-549,2617,-281,-8714,1745152646683307888,0
140320,-42,215,-522,2632,-390,-8654,1745152646683307888,0
140512,-45,195,-493,2574,-465,-8535,1745152646683307888,0
140704,-58,179,-462,2531,-536,-8398,1745152646683307888,0
140896,-75,165,-432,2468,-554,-8223,1745152646683307888,0
141088,-98,155,-408,2366,-614,-8085,1745152646683307888,0
141280,-125,152,-387,2282,-602,-7977,1745152646744013480,0
141472,-153,152,-366,2214,-595,-7953,1745152646744013480,0
141664,-179,154,-344,2161,-598,-7986,1745152646744013480,0
141856,-204,158,-325,2140,-596,-8051,1745152646744013480,0
142048,-226,163,-305,2135,-574,-8186,1745152646744013480,0
142240,-247,170,-288,2195,-474,-8360,1745152646744013480,0
142432,-268,181,-272,2264,-371,-8472,1745152646744013480,0
142624,-287,191,-258,2360,-271,-8502,1745152646744013480,0
142816,-294,198,-245,2483,-164,-8541,1745152646744013480,0
143008,-287,199,-232,2622,-41,-8515,1745152646744013480,0
143200,-272,192,-219,2733,81,-8498,1745152646744013480,0
143392,-250,178,-209,2848,197,-8440,1745152646744013480,0
143584,-223,158,-203,2888,242,-8347,1745152646802754349,0
143776,-196,134,-201,2899,224,-8290,1745152646802754349,0
143968,-173,112,-202,2848,212,-8256,1745152646802754349,0
144160,-155,98,-198,2739,191,-8224,1745152646802754349,0
144352,-140,85,-182,2647,176,-8229,1745152646802754349,0
144544,-127,83,-160,2567,114,-8233,1745152646802754349,0
144736,-113,85,-142,2498,58,-8234,1745152646802754349,0
144928,-94,88,-129,2476,-33,-8239,1745152646802754349,0
145120,-76,96,-119,2434,-103,-8264,1745152646802754349,0
145312,-67,109,-113,2438,-176,-8312,1745152646802754349,0
145504,-64,125,-106,2458,-186,-8424,1745152646802754349,0
145696,-62,141,-90,2523,-124,-8507,1745152646802754349,0
145888,-42,155,-54,2669,-8,-8612,1745152646862944320,0
146080,15,162,1,2872,51,-8636,1745152646862944320,0
146272,130,151,65,3040,12,-8721,1745152646862944320,0
146464,285,125,129,3181,-106,-8624,1745152646862944320,0
146656,448,95,174,3213,-366,-8549,1745152646862944320,0
146848,583,70,193,3162,-731,-8471,1745152646862944320,0
147040,672,55,189,3000,-1249,-8505,1745152646862944320,0
147232,704,47,175,2807,-1744,-8568,1745152646862944320,0
147424,697,47,172,2589,-2106,-8645,1745152646862944320,0
147616,665,53,182,2402,-2145,-8754,1745152646862944320,0
147808,615,58,200,2290,-1991,-8693,1745152646862944320,0
148000,552,63,208,2236,-1648,-8571,1745152646862944320,0
148192,484,65,190,2255,-1188,-8451,1745152646926948475,0
148384,418,67,148,2280,-726,-8279,1745152646926948475,0
148576,363,65,102,2357,-390,-8099,1745152646926948475,0
148768,328,58,67,2467,-127,-8012,1745152646926948475,0
148960,318,46,42,2547,12,-7920,1745152646926948475,0
149152,331,40,28,2629,-5,-7760,1745152646926948475,0
149344,325,39,42,2694,-156,-7604,1745152646926948475,0
149536,321,30,73,2713,-404,-7530,1745152646926948475,0
149728,319,27,120,2692,-687,-7520,1745152646926948475,0
149920,315,21,172,2609,-936,-7496,1745152646926948475,0
150112,310,15,221,2536,-1077,-7514,1745152646926948475,0
150304,296,21,260,2431,-1128,-7528,1745152646926948475,0
150496,284,15,287,2323,-1062,-7525,1745152646975625947,0
150688,276,7,302,2251,-890,-7505,1745152646975625947,0
150880,273,20,302,2208,-592,-7575,1745152646975625947,0
151072,270,32,289,2201,-203,-7678,1745152646975625947,0
151264,265,44,267,2226,219,-7833,1745152646975625947,0
151456,267,37,233,2292,583,-7971,1745152646975625947,0
151648,283,30,190,2394,855,-8006,1745152646975625947,0
151840,309,20,140,2477,1035,-8120,1745152646975625947,0
152032,344,4,89,2534,1146,-8211,1745152646975625947,0
152224,386,-20,42,2519,1161,-8251,1745152646975625947,0
152416,433,-49,4,2454,1029,-8297,1745152646975625947,0
152608,481,-72,-25,2337,795,-8284,1745152646975625947,0
152800,514,-95,-48,2139,466,-8264,1745152647036040552,0
152992,525,-115,-63,1904,86,-8343,1745152647036040552,0
153184,510,-130,-62,1695,-183,-8571,1745152647036040552,0
153376,477,-134,-46,1527,-376,-8787,1745152647036040552,0
153568,425,-123,-19,1385,-463,-8843,1745152647036040552,0
153760,368,-97,16,1256,-471,-8918,1745152647036040552,0
153952,318,-64,51,1199,-350,-9016,1745152647036040552,0
154144,278,-29,76,1208,-140,-9045,1745152647036040552,0
154336,250,1,80,1270,90,-8987,1745152647036040552,0
154528,237,23,70,1329,429,-8967,1745152647036040552,0
154720,239,43,58,1336,758,-8751,1745152647036040552,0
154912,218,63,53,1413,472,-8216,1745152647036040552,0
155104,123,32,54,1479,-103,-9171,1745152647097068848,0
155296,68,-28,57,1540,-607,-9408,1745152647097068848,0
155488,40,-52,66,1485,-866,-9070,1745152647097068848,0
155680,19,-57,75,1357,-833,-8838,1745152647097068848,0
155872,-19,-37,75,1249,-652,-8559,1745152647097068848,0
156064,-54,-20,62,1143,-494,-8293,1745152647097068848,0
156256,-75,-16,45,1089,-413,-8093,1745152647097068848,0
156448,-89,-12,34,1072,-367,-7935,1745152647097068848,0
156640,-90,-2,33,1091,-348,-7813,1745152647097068848,0
156832,-87,13,37,1129,-356,-7763,1745152647097068848,0
157024,-81,34,44,1193,-344,-7729,1745152647097068848,0
157216,-67,50,47,1275,-338,-7760,1745152647097068848,0
157408,-43,58,51,1364,-350,-7824,1745152647152565060,0
157600,-15,57,50,1452,-345,-7921,1745152647152565060,0
157792,12,53,44,1500,-324,-8010,1745152647152565060,0
157984,34,49,38,1516,-316,-8056,1745152647152565060,0
158176,51,49,34,1569,-267,-8129,1745152647152565060,0
158368,65,51,35,1582,-252,-8136,1745152647152565060,0
158560,77,54,38,1585,-240,-8140,1745152647152565060,0
158752,86,54,42,1635,-255,-8151,1745152647152565060,0
158944,89,51,45,1660,-277,-8169,1745152647152565060,0
159136,85,45,46,1679,-324,-8155,1745152647152565060,0
159328,75,38,43,1693,-331,-8109,1745152647152565060,0
159520,57,32,41,1686,-323,-8017,1745152647152565060,0
159712,32,27,39,1666,-308,-7964,1745152647250563175,0
159904,1,23,38,1637,-215,-7923,1745152647250563175,0
160096,-33,18,38,1575,-127,-7909,1745152647250563175,0
160288,-66,14,39,1517,-17,-7909,1745152647250563175,0
160480,-89,13,39,1466,84,-7925,1745152647250563175,0
160672,-100,15,43,1414,180,-7947,1745152647250563175,0
160864,-99,20,48,1391,232,-7951,1745152647250563175,0
161056,-87,24,56,1373,218,-7967,1745152647250563175,0
161248,-71,26,62,1382,114,-7969,1745152647250563175,0
161440,-56,25,69,1403,-24,-7934,1745152647250563175,0
161632,-43,24,74,1427,-164,-7953,1745152647250563175,0
161824,-35,21,76,1413,-311,-7996,1745152647250563175,0
162016,-37,20,74,1392,-428,-8017,1745152647355062793,0
162208,-43,17,73,1366,-471,-8053,1745152647355062793,0
162400,-50,15,76,1341,-480,-8103,1745152647355062793,0
162592,-56,14,78,1337,-436,-8131,1745152647355062793,0
162784,-61,15,75,1351,-393,-8160,1745152647355062793,0
162976,-69,17,69,1387,-347,-8195,1745152647355062793,0
163168,-78,20,63,1412,-321,-8176,1745152647355062793,0
163360,-85,20,59,1448,-280,-8148,1745152647355062793,0
163552,-90,17,59,1477,-247,-8118,1745152647355062793,0
163744,-94,12,60,1496,-225,-8099,1745152647355062793,0
163936,-99,7,62,1484,-158,-8071,1745152647355062793,0
164128,-103,3,61,1470,-95,-8022,1745152647355062793,0
164320,-106,1,58,1433,-33,-7945,1745152647381736352,0
164512,-106,0,52,1401,-5,-7906,1745152647381736352,0
164704,-102,-1,49,1365,-9,-7896,1745152647381736352,0
164896,-95,-1,48,1332,-4,-7892,1745152647381736352,0
165088,-90,2,48,1287,-34,-7926,1745152647381736352,0
165280,-84,6,51,1295,-50,-7930,1745152647381736352,0
165472,-73,8,58,1295,-57,-7898,1745152647381736352,0
165664,-60,10,65,1291,-51,-7905,1745152647381736352,0
165856,-47,11,70,1303,-71,-7891,1745152647381736352,0
166048,-38,11,70,1335,-99,-7902,1745152647381736352,0
166240,-32,12,68,1372,-130,-7930,1745152647381736352,0
166432,-29,10,67,1388,-180,-7979,1745152647381736352,0
166624,-26,7,65,1401,-198,-8038,1745152647393320048,0
166816,-27,2,65,1410,-219,-8102,1745152647393320048,0
167008,-31,-2,66,1405,-222,-8189,1745152647393320048,0
167200,-40,-9,67,1401,-231,-8237,1745152647393320048,0
167392,-9,-79,79,1899,-340,-5983,1745152647393320048,0
167584,-16,-437,178,3108,-2188,-5351,1745152647393320048,0
167776,-528,-478,46,2090,-4273,-10746,1745152647393320048,0
167968,-741,-489,-62,3332,-3578,-7157,1745152647393320048,0
168160,-800,-767,-42,3828,-370,-6658,1745152647393320048,0
168352,-652,-806,85,2481,1958,-6723,1745152647393320048,0
168544,-428,-764,110,10,2742,-6814,1745152647393320048,0
168736,-224,-583,-10,-1397,3007,-7195,1745152647393320048,0
168928,-68,-361,-167,-1647,2282,-7497,1745152647464748875,0
169120,44,-175,-268,-1570,1071,-7782,1745152647464748875,0
169312,131,-25,-267,-1194,269,-8099,1745152647464748875,0
169504,203,111,-166,-544,82,-8306,1745152647464748875,0
169696,247,213,-44,23,321,-8339,1745152647464748875,0
169888,265,292,42,452,685,-8394,1745152647464748875,0
170080,274,331,72,898,828,-8446,1745152647464748875,0
170272,279,335,53,1345,568,-8557,1745152647464748875,0
170464,279,313,21,1664,190,-8749,1745152647464748875,0
170656,277,277,-1,1845,-157,-8874,1745152647464748875,0
170848,270,236,-2,1876,-264,-8921,1745152647464748875,0
171040,270,194,16,1770,-109,-8822,1745152647464748875,0
206752,61,-110,23,1330,30,-7910,1745152648423719438,1
206944,30,-102,22,1110,-207,-8225,1745152648423719438,1
207136,3,-75,16,1077,92,-7915,1745152648423719438,1
207328,16,-65,18,956,-62,-7973,1745152648423719438,1
207520,18,-65,8,862,-198,-8051,1745152648423719438,1
207712,8,-55,-1,840,-212,-8036,1745152648423719438,1
207904,0,-44,0,856,-226,-8046,1745152648423719438,1
208096,-6,-42,7,842,-161,-7991,1745152648423719438,1
208288,-6,-29,13,899,-40,-7964,1745152648423719438,1
208480,-5,-28,11,970,-66,-8005,1745152648423719438,1
208672,-13,-30,4,998,-129,-8020,1745152648423719438,1
208864,-23,-26,-1,980,-148,-8030,1745152648423719438,1
209056,-32,-26,1,989,-123,-8078,1745152648473476639,1
209248,-39,-23,4,959,-88,-8096,1745152648473476639,1
209440,-49,-19,6,924,-50,-8108,1745152648473476639,1
209632,-63,-18,7,904,-75,-8100,1745152648473476639,1
209824,-78,-12,8,889,-100,-8076,1745152648473476639,1
210016,-92,-5,9,887,-65,-8039,1745152648473476639,1
210208,-103,-1,12,906,-46,-8016,1745152648473476639,1
210400,-114,4,13,927,-24,-8012,1745152648473476639,1
210592,-124,7,13,963,14,-8008,1745152648473476639,1
210784,-131,6,12,977,32,-8027,1745152648473476639,1
210976,-133,6,10,1023,35,-8089,1745152648473476639,1
211168,-129,2,10,1041,20,-8177,1745152648473476639,1
211360,-123,0,9,1015,21,-8263,1745152648529263213,1
211552,-123,7,6,919,-24,-8379,1745152648529263213,1
211744,-131,23,-1,810,-74,-8462,1745152648529263213,1
211936,-138,46,-8,764,-34,-8565,1745152648529263213,1
212128,-140,74,-9,760,-26,-8636,1745152648529263213,1
212320,-139,103,-9,760,-7,-8680,1745152648529263213,1
212512,-132,131,-14,811,46,-8690,1745152648529263213,1
212704,-115,156,-19,888,110,-8684,1745152648529263213,1
212896,-90,176,-20,1009,113,-8720,1745152648529263213,1
213088,-61,187,-20,1113,98,-8720,1745152648529263213,1
213280,-34,167,-14,1125,-604,-8720,1745152648529263213,1
213472,-77,206,6,1516,-38,-9044,1745152648529263213,1
213664,-30,158,55,1505,377,-8449,1745152648585751239,1
213856,-15,143,79,1602,330,-8616,1745152648585751239,1
214048,40,97,56,1644,630,-8619,1745152648585751239,1
214240,121,75,25,1745,693,-8411,1745152648585751239,1
214432,254,52,-22,1785,324,-8269,1745152648585751239,1
214624,385,47,-39,1717,123,-8295,1745152648585751239,1
214816,433,53,-9,1764,-12,-8409,1745152648585751239,1
215008,552,121,86,1842,-305,-8664,1745152648585751239,1
215200,52,110,185,2073,-56,-8539,1745152648585751239,1
215392,-1289,-233,19,3019,-8082,-6918,1745152648585751239,1
215584,-609,-251,-195,2284,-4096,-9076,1745152648585751239,1
215776,-1001,-209,-85,1956,-2908,-8282,1745152648585751239,1
215968,-1141,-206,-53,1697,-1362,-8245,1745152648641997652,1
216160,-1212,-193,-73,1606,345,-8694,1745152648641997652,1
216352,-1219,-140,-69,1702,1159,-8781,1745152648641997652,1
216544,-1127,-93,-124,1736,1785,-8629,1745152648641997652,1
216736,-946,-82,-185,1808,2168,-8880,1745152648641997652,1
216928,-728,-45,-208,1884,2184,-8921,1745152648641997652,1
217120,-556,-11,-191,2164,1794,-9539,1745152648641997652,1
217312,-470,-25,-163,2467,1043,-9484,1745152648641997652,1
217504,-437,-58,-151,2608,408,-9140,1745152648641997652,1
217696,-415,-103,-154,2616,132,-8869,1745152648641997652,1
217888,-370,-141,-167,2535,85,-8673,1745152648641997652,1
218080,-313,-147,-184,2403,81,-8471,1745152648641997652,1
218272,-264,-131,-202,2260,-20,-8229,1745152648704133907,1
218464,-213,-107,-219,2146,-107,-7967,1745152648704133907,1
218656,-155,-88,-240,2125,-98,-8017,1745152648704133907,1
218848,-100,-72,-272,2152,75,-8356,1745152648704133907,1
219040,-57,-57,-313,2220,378,-8849,1745152648704133907,1
219232,-7,-41,-352,2297,703,-9061,1745152648704133907,1
219424,64,-16,-378,2421,955,-9044,1745152648704133907,1
219616,139,0,-386,2623,953,-9219,1745152648704133907,1
219808,231,-24,-382,2982,700,-9560,1745152648704133907,1
220000,339,-104,-385,3333,294,-9569,1745152648704133907,1
220192,423,-200,-398,3619,-99,-9395,1745152648704133907,1
220384,466,-277,-404,3820,-445,-9204,1745152648704133907,1
220576,462,-364,-406,3857,-716,-9034,1745152648766518546,1
220768,413,-454,-418,3767,-994,-8704,1745152648766518546,1
220960,323,-508,-430,3619,-1269,-8182,1745152648766518546,1
221152,187,-533,-426,3582,-1658,-7779,1745152648766518546,1
221344,33,-566,-397,3614,-2151,-7945,1745152648766518546,1
221536,-161,-668,-367,3500,-2583,-8593,1745152648766518546,1
221728,-386,-818,-375,3255,-2788,-8527,1745152648766518546,1
221920,-653,-903,-400,3004,-2512,-8518,1745152648766518546,1
222112,-947,-903,-408,2896,-1966,-8512,1745152648766518546,1
222304,-1200,-910,-388,2943,-1336,-8502,1745152648766518546,1
222496,-1394,-928,-304,3419,-612,-8565,1745152648766518546,1
222688,-1550,-931,-107,4085,-261,-8566,1745152648766518546,1
222880,-1570,-1039,19,4447,109,-8951,1745152648816904335,1
223072,-1427,-1215,23,4358,507,-9112,1745152648816904335,1
223264,-1206,-1356,-14,3985,623,-9262,1745152648816904335,1
223456,-1002,-1420,-35,3423,333,-9534,1745152648816904335,1
223648,-821,-1436,-28,2795,-107,-9673,1745152648816904335,1
223840,-646,-1435,17,2226,-509,-9740,1745152648816904335,1
224032,-494,-1411,80,1725,-811,-9750,1745152648816904335,1
224224,-380,-1365,144,1394,-1049,-9685,1745152648816904335,1
224416,-291,-1302,203,1215,-1243,-9543,1745152648816904335,1
224608,-214,-1235,258,1145,-1368,-9385,1745152648816904335,1
224800,-145,-1177,317,1187,-1411,-9269,1745152648816904335,1
224992,-84,-1132,385,1277,-1431,-9050,1745152648816904335,1
225184,-28,-1102,457,1369,-1447,-8765,1745152648879765428,1
225376,25,-1085,527,1417,-1457,-8537,1745152648879765428,1
225568,78,-1073,592,1399,-1444,-8319,1745152648879765428,1
225760,128,-1061,655,1269,-1412,-8238,1745152648879765428,1
225952,173,-1044,718,1093,-1357,-8224,1745152648879765428,1
226144,207,-1021,789,923,-1302,-8121,1745152648879765428,1
226336,232,-994,867,787,-1319,-7895,1745152648879765428,1
226528,256,-963,952,667,-1392,-7752,1745152648879765428,1
226720,286,-934,1035,572,-1476,-7713,1745152648879765428,1
226912,321,-909,1112,508,-1579,-7748,1745152648879765428,1
227104,357,-886,1186,425,-1682,-7771,1745152648879765428,1
227296,389,-859,1259,345,-1763,-7834,1745152648879765428,1
227488,417,-829,1330,294,-1844,-7908,1745152648937134591,1
227680,440,-799,1401,255,-1884,-7989,1745152648937134591,1
227872,453,-770,1471,259,-1967,-8002,1745152648937134591,1
228064,455,-742,1537,249,-2046,-7953,1745152648937134591,1
228256,445,-711,1601,235,-2086,-7904,1745152648937134591,1
228448,426,-678,1661,196,-2068,-7889,1745152648937134591,1
228640,403,-643,1721,113,-1965,-7907,1745152648937134591,1
228832,382,-609,1779,64,-1769,-7902,1745152648937134591,1
229024,369,-571,1838,16,-1523,-7882,1745152648937134591,1
229216,369,-531,1896,-2,-1287,-7892,1745152648937134591,1
229408,379,-490,1953,11,-1044,-7868,1745152648937134591,1
229600,398,-447,2014,47,-855,-7814,1745152648937134591,1
229792,427,-401,2075,73,-691,-7739,1745152648992510700,1
229984,463,-356,2134,106,-560,-7712,1745152648992510700,1
230176,502,-314,2189,149,-422,-7715,1745152648992510700,1
230368,542,-272,2240,161,-338,-7721,1745152648992510700,1
230560,583,-228,2287,155,-295,-7713,1745152648992510700,1
230752,633,-183,2334,140,-311,-7714,1745152648992510700,1
230944,690,-138,2384,112,-354,-7711,1745152648992510700,1
231136,752,-88,2439,135,-428,-7718,1745152648992510700,1
231328,818,-40,2497,178,-561,-7780,1745152648992510700,1
231520,892,6,2559,262,-689,-7744,1745152648992510700,1
231712,973,50,2626,367,-793,-7700,1745152648992510700,1
231904,1046,91,2695,488,-904,-7569,1745152648992510700,1
232096,1096,125,2760,626,-1043,-7301,1745152649052725462,1
232288,1120,157,2819,713,-1154,-6982,1745152649052725462,1
232480,1121,188,2874,741,-1213,-6685,1745152649052725462,1
232672,1102,222,2925,725,-1247,-6366,1745152649052725462,1
232864,1065,263,2974,671,-1186,-6148,1745152649052725462,1
233056,1015,314,3020,587,-1027,-6088,1745152649052725462,1
233248,958,375,3067,540,-791,-6128,1745152649052725462,1
233440,899,443,3115,546,-548,-6234,1745152649052725462,1
233632,843,512,3166,643,-312,-6354,1745152649052725462,1
233824,790,582,3221,770,-149,-6464,1745152649052725462,1
234016,744,648,3277,909,-28,-6614,1745152649052725462,1
234208,707,707,3331,1052,94,-6805,1745152649052725462,1
234400,674,760,3382,1169,187,-7014,1745152649116896803,1
234592,648,811,3430,1293,311,-7181,1745152649116896803,1
234784,629,860,3470,1391,469,-7307,1745152649116896803,1
234976,618,909,3505,1490,618,-7384,1745152649116896803,1
235168,615,958,3533,1564,762,-7381,1745152649116896803,1
235360,624,1007,3552,1636,872,-7393,1745152649116896803,1
235552,643,1057,3570,1709,963,-7366,1745152649116896803,1
235744,670,1109,3586,1795,1040,-7333,1745152649116896803,1
235936,698,1160,3599,1897,1100,-7350,1745152649116896803,1
236128,722,1208,3613,2042,1101,-7315,1745152649116896803,1
236320,740,1251,3625,2202,1082,-7264,1745152649116896803,1
236512,755,1289,3638,2380,1064,-7223,1745152649116896803,1
236704,770,1321,3650,2576,1060,-7205,1745152649169017317,1
236896,787,1347,3665,2781,1102,-7237,1745152649169017317,1
237088,809,1367,3677,2999,1187,-7312,1745152649169017317,1
237280,833,1381,3685,3189,1312,-7406,1745152649169017317,1
237472,864,1392,3687,3360,1426,-7520,1745152649169017317,1
237664,901,1401,3685,3493,1528,-7691,1745152649169017317,1
237856,944,1410,3681,3649,1603,-7878,1745152649169017317,1
238048,990,1415,3676,3818,1620,-8043,1745152649169017317,1
238240,1037,1413,3671,3973,1597,-8173,1745152649169017317,1
238432,1079,1411,3670,4126,1523,-8266,1745152649169017317,1
238624,1109,1410,3668,4277,1428,-8249,1745152649169017317,1
238816,1124,1406,3666,4399,1344,-8184,1745152649169017317,1
239008,1124,1396,3665,4501,1285,-8052,1745152649233827714,1
239200,1111,1383,3659,4572,1297,-7947,1745152649233827714,1
239392,1086,1362,3642,4615,1333,-7915,1745152649233827714,1
239584,1052,1333,3609,4656,1362,-7904,1745152649233827714,1
239776,1012,1301,3564,4637,1335,-7832,1745152649233827714,1
239968,977,1268,3533,4550,1260,-7753,1745152649233827714,1
240160,945,1239,3524,4519,1084,-7666,1745152649233827714,1
240352,911,1221,3520,4506,890,-7677,1745152649233827714,1
240544,871,1215,3514,4525,721,-7771,1745152649233827714,1
240736,819,1220,3503,4581,616,-8031,1745152649233827714,1
240928,759,1233,3488,4688,680,-8338,1745152649233827714,1
241120,698,1251,3472,4875,891,-8649,1745152649233827714,1
241312,659,1268,3448,5118,1257,-8840,1745152649284240795,1
241504,653,1270,3415,5413,1681,-8830,1745152649284240795,1
241696,682,1263,3357,5673,2096,-8814,1745152649284240795,1
241888,724,1231,3280,5864,2485,-8833,1745152649284240795,1
242080,765,1175,3188,6001,2781,-8836,1745152649284240795,1
242272,795,1148,3092,6053,2946,-8884,1745152649284240795,1
242464,814,1055,2999,6008,2981,-8846,1745152649284240795,1
242656,825,942,2917,5809,2887,-8677,1745152649284240795,1
242848,823,837,2833,5532,2760,-8512,1745152649284240795,1
243040,803,737,2733,5159,2660,-8346,1745152649284240795,1
243232,759,648,2624,4711,2595,-8257,1745152649284240795,1
243424,697,560,2514,4291,2492,-8144,1745152649284240795,1
243616,621,494,2405,3885,2298,-8089,1745152649346589236,1
243808,533,424,2306,3493,1936,-8035,1745152649346589236,1
244000,435,359,2218,3091,1468,-7945,1745152649346589236,1
244192,324,308,2138,2740,995,-7857,1745152649346589236,1
244384,190,271,2053,2423,686,-7909,1745152649346589236,1
244576,28,252,1955,2136,484,-7970,1745152649346589236,1
244768,-140,242,1857,1903,408,-8032,1745152649346589236,1
244960,-304,242,1763,1738,434,-8079,1745152649346589236,1
245152,-446,245,1672,1665,551,-8090,1745152649346589236,1
245344,-563,255,1581,1645,706,-8105,1745152649346589236,1
245536,-658,263,1491,1673,863,-8132,1745152649346589236,1
245728,-730,266,1407,1727,968,-8132,1745152649346589236,1
245920,-782,266,1333,1796,1065,-8117,1745152649402759348,1
246112,-820,257,1263,1865,1137,-8012,1745152649402759348,1
246304,-845,245,1195,1908,1216,-7911,1745152649402759348,1
246496,-849,224,1128,1953,1338,-7801,1745152649402759348,1
246688,-830,198,1059,1942,1454,-7736,1745152649402759348,1
246880,-790,175,991,1844,1514,-7676,1745152649402759348,1
247072,-732,151,926,1740,1485,-7735,1745152649402759348,1
247264,-670,138,868,1580,1355,-7840,1745152649402759348,1
247456,-612,134,824,1451,1191,-7964,1745152649402759348,1
247648,-564,135,791,1340,1031,-8031,1745152649402759348,1
247840,-535,138,767,1266,909,-8050,1745152649402759348,1
248032,-518,139,742,1241,844,-8061,1745152649402759348,1
248224,-505,141,716,1235,822,-8008,1745152649466078614,1
248416,-493,143,692,1224,816,-7978,1745152649466078614,1
248608,-473,147,667,1264,700,-7725,1745152649466078614,1
248800,-444,144,638,1262,576,-8014,1745152649466078614,1
248992,-413,138,601,1285,497,-8052,1745152649466078614,1
249184,-408,140,564,1246,442,-8119,1745152649466078614,1
249376,-416,135,528,1230,367,-8146,1745152649466078614,1
249568,-429,129,493,1184,301,-8069,1745152649466078614,1
249760,-432,120,457,1128,273,-8027,1745152649466078614,1
249952,-428,114,419,1024,323,-8017,1745152649466078614,1
250144,-415,110,381,893,476,-8058,1745152649466078614,1
250336,-400,117,343,786,625,-8109,1745152649466078614,1
250528,-374,127,303,717,704,-8142,1745152649519489584,1
250720,-330,140,267,692,681,-8188,1745152649519489584,1
250912,-278,155,239,708,587,-8175,1745152649519489584,1
251104,-225,168,217,755,450,-8163,1745152649519489584,1
251296,-181,182,195,818,289,-8127,1745152649519489584,1
251488,-148,185,169,1021,110,-8162,1745152649519489584,1
251680,-146,181,125,1293,-180,-8181,1745152649519489584,1
251872,-165,173,70,1373,-399,-8153,1745152649519489584,1
252064,-184,154,45,1375,-526,-8094,1745152649519489584,1
252256,-196,124,52,1348,-578,-8074,1745152649519489584,1
252448,-203,88,65,1263,-506,-8157,1745152649519489584,1
252640,-216,60,66,1203,-359,-8242,1745152649519489584,1
252832,-226,48,56,1108,-199,-8257,1745152649588662494,1
253024,-231,44,41,1058,-108,-8291,1745152649588662494,1
253216,-239,46,22,1012,-133,-8361,1745152649588662494,1
253408,-247,52,1,989,-256,-8414,1745152649588662494,1
253600,-259,58,-20,989,-442,-8422,1745152649588662494,1
253792,-271,61,-34,1012,-613,-8403,1745152649588662494,1
253984,-279,63,-39,1024,-783,-8374,1745152649588662494,1
254176,-283,61,-39,1048,-841,-8387,1745152649588662494,1
254368,-293,61,-42,1051,-815,-8371,1745152649588662494,1
254560,-302,64,-46,1039,-757,-8286,1745152649588662494,1
254752,-303,68,-55,1046,-695,-8208,1745152649588662494,1
254944,-292,71,-67,1077,-729,-8153,1745152649588662494,1
255136,-270,74,-81,1116,-834,-8095,1745152649635279412,1
255328,-241,77,-90,1153,-936,-8054,1745152649635279412,1
255520,-212,78,-93,1189,-1005,-8038,1745152649635279412,1
255712,-188,75,-93,1215,-1016,-8004,1745152649635279412,1
255904,-167,69,-91,1244,-962,-8015,1745152649635279412,1
256096,-146,61,-91,1272,-852,-8088,1745152649635279412,1
256288,-130,51,-97,1279,-764,-8114,1745152649635279412,1
256480,-114,41,-104,1265,-751,-8140,1745152649635279412,1
256672,-94,33,-114,1267,-773,-8161,1745152649635279412,1
256864,-75,27,-119,1244,-837,-8197,1745152649635279412,1
257056,-62,23,-122,1265,-928,-8238,1745152649635279412,1
257248,-53,21,-122,1276,-971,-8232,1745152649635279412,1
257440,-47,17,-119,1272,-1040,-8203,1745152649695370009,1
257632,-44,10,-117,1304,-1112,-8208,1745152649695370009,1
257824,-49,6,-122,1277,-1211,-8174,1745152649695370009,1
258016,-53,2,-127,1273,-1331,-8156,1745152649695370009,1
258208,-60,-1,-132,1221,-1429,-8158,1745152649695370009,1
258400,-70,-1,-136,1209,-1470,-8151,1745152649695370009,1
258592,-85,1,-142,1216,-1468,-8149,1745152649695370009,1
258784,-99,4,-147,1217,-1465,-8146,1745152649695370009,1
258976,-113,6,-150,1244,-1459,-8120,1745152649695370009,1
259168,-127,6,-149,1259,-1487,-8106,1745152649695370009,1
259360,-145,5,-144,1290,-1503,-8151,1745152649695370009,1
259552,-163,1,-137,1333,-1487,-8152,1745152649695370009,1
259744,-178,-6,-128,1375,-1422,-8106,1745152649756718771,1
259936,-189,-15,-115,1406,-1338,-8081,1745152649756718771,1
260128,-197,-24,-106,1455,-1285,-8074,1745152649756718771,1
260320,-204,-32,-103,1456,-1245,-8047,1745152649756718771,1
260512,-211,-41,-103,1473,-1213,-8049,1745152649756718771,1
260704,-216,-48,-101,1446,-1228,-8056,1745152649756718771,1
260896,-222,-55,-98,1428,-1229,-8060,1745152649756718771,1
261088,-224,-62,-96,1403,-1248,-8049,1745152649756718771,1
261280,-223,-68,-92,1383,-1278,-8030,1745152649756718771,1
261472,-221,-73,-87,1361,-1345,-7997,1745152649756718771,1
261664,-221,-75,-86,1330,-1394,-8012,1745152649756718771,1
261856,-231,-74,-90,1295,-1432,-8065,1745152649756718771,1
262048,-249,-69,-99,1286,-1438,-8070,1745152649810356094,1
262240,-265,-67,-109,1269,-1407,-8062,1745152649810356094,1
262432,-272,-65,-117,1266,-1361,-8060,1745152649810356094,1
262624,-270,-62,-120,1234,-1257,-8088,1745152649810356094,1
262816,-264,-58,-126,1231,-1167,-8118,1745152649810356094,1
263008,-253,-52,-134,1232,-1076,-8122,1745152649810356094,1
263200,-237,-46,-143,1212,-1015,-8079,1745152649810356094,1
263392,-217,-40,-149,1218,-976,-8039,1745152649810356094,1
263584,-189,-33,-150,1240,-960,-8036,1745152649810356094,1
263776,-158,-25,-147,1239,-939,-8054,1745152649810356094,1
263968,-128,-21,-143,1277,-960,-8038,1745152649810356094,1
264160,-96,-19,-137,1317,-979,-8027,1745152649810356094,1
264352,-66,-17,-131,1328,-1018,-8045,1745152649869834769,1
264544,-41,-16,-125,1345,-1056,-8065,1745152649869834769,1
264736,-23,-15,-121,1364,-1101,-8071,1745152649869834769,1
264928,-7,-14,-116,1348,-1145,-8086,1745152649869834769,1
265120,3,-14,-112,1331,-1193,-8139,1745152649869834769,1
265312,8,-11,-109,1321,-1238,-8139,1745152649869834769,1
265504,9,-9,-106,1347,-1322,-8062,1745152649869834769,1
265696,7,-6,-103,1321,-1381,-8012,1745152649869834769,1
265888,3,-4,-99,1330,-1422,-7980,1745152649869834769,1
266080,-5,-2,-97,1359,-1411,-7959,1745152649869834769,1
266272,-16,-3,-97,1387,-1394,-7940,1745152649869834769,1
266464,-24,-4,-98,1405,-1362,-7963,1745152649869834769,1
266656,-24,-7,-98,1406,-1270,-8001,1745152649936786189,1
266848,-20,-9,-100,1418,-1171,-8022,1745152649936786189,1
267040,-16,-11,-103,1437,-1093,-8039,1745152649936786189,1
267232,-11,-12,-106,1434,-1067,-8030,1745152649936786189,1
267424,-5,-16,-106,1422,-1061,-7977,1745152649936786189,1
267616,4,-20,-103,1420,-1078,-7963,1745152649936786189,1
267808,14,-24,-98,1398,-1084,-7947,1745152649936786189,1
268000,24,-25,-95,1380,-1121,-7943,1745152649936786189,1
268192,32,-27,-95,1372,-1181,-7925,1745152649936786189,1
268384,40,-28,-96,1376,-1282,-7914,1745152649936786189,1
268576,46,-27,-94,1359,-1397,-7877,1745152649936786189,1
268768,48,-25,-88,1342,-1522,-7854,1745152649936786189,1
268960,43,-25,-82,1344,-1561,-7876,1745152649997439280,1
269152,28,-26,-77,1340,-1497,-7899,1745152649997439280,1
269344,6,-27,-74,1340,-1384,-7926,1745152649997439280,1
269536,-11,-28,-71,1344,-1274,-7949,1745152649997439280,1
269728,-16,-27,-66,1346,-1194,-7988,1745152649997439280,1
269920,-12,-28,-59,1342,-1140,-8012,1745152649997439280,1
270112,-9,-25,-54,1336,-1115,-8062,1745152649997439280,1
270304,-9,-23,-53,1315,-1148,-8087,1745152649997439280,1
270496,-13,-21,-53,1314,-1175,-8080,1745152649997439280,1
270688,-19,-19,-52,1295,-1179,-8087,1745152649997439280,1
270880,-23,-18,-49,1290,-1180,-8031,1745152649997439280,1
271072,-22,-17,-48,1287,-1126,-8012,1745152649997439280,1
271264,-18,-16,-50,1299,-1095,-7968,1745152650045700194,1
271456,-10,-15,-55,1309,-1097,-7931,1745152650045700194,1
271648,-1,-15,-62,1318,-1146,-7930,1745152650045700194,1
271840,7,-17,-66,1319,-1158,-7934,1745152650045700194,1
272032,10,-20,-66,1322,-1164,-7926,1745152650045700194,1
272224,7,-22,-63,1339,-1185,-7911,1745152650045700194,1
272416,3,-25,-59,1348,-1191,-7906,1745152650045700194,1
272608,1,-29,-54,1374,-1169,-7897,1745152650045700194,1
272800,-3,-33,-48,1398,-1141,-7889,1745152650045700194,1
272992,-6,-38,-44,1414,-1127,-7898,1745152650045700194,1
273184,-8,-43,-41,1409,-1097,-7909,1745152650045700194,1
273376,-11,-47,-42,1394,-1103,-7936,1745152650045700194,1
273568,-14,-53,-43,1383,-1097,-7959,1745152650108460297,1
273760,-16,-57,-43,1352,-1111,-7991,1745152650108460297,1
273952,-18,-58,-45,1308,-1075,-8047,1745152650108460297,1
274144,-21,-57,-46,1274,-1067,-8090,1745152650108460297,1
274336,-26,-55,-49,1250,-1050,-8098,1745152650108460297,1
274528,-28,-50,-52,1243,-1036,-8095,1745152650108460297,1
274720,-28,-46,-55,1220,-1023,-8063,1745152650108460297,1
274912,-29,-41,-58,1204,-1014,-8032,1745152650108460297,1
275104,-28,-36,-61,1212,-1013,-7974,1745152650108460297,1
275296,-25,-33,-62,1221,-1036,-7908,1745152650108460297,1
275488,-14,-30,-58,1212,-1054,-7842,1745152650108460297,1
275680,2,-27,-53,1240,-1036,-7855,1745152650108460297,1
275872,14,-23,-52,1253,-1016,-7882,1745152650160951589,1
276064,19,-20,-55,1290,-1058,-7886,1745152650160951589,1
276256,22,-19,-58,1299,-1072,-7899,1745152650160951589,1
276448,25,-19,-59,1320,-1100,-7898,1745152650160951589,1
276640,25,-21,-59,1338,-1096,-7901,1745152650160951589,1
276832,20,-22,-58,1336,-1095,-7897,1745152650160951589,1
277024,12,-24,-57,1356,-1100,-7899,1745152650160951589,1
277216,4,-25,-56,1342,-1086,-7864,1745152650160951589,1
277408,-3,-27,-54,1330,-1100,-7853,1745152650160951589,1
277600,-7,-28,-50,1326,-1100,-7866,1745152650160951589,1
277792,-6,-29,-46,1306,-1093,-7882,1745152650160951589,1
277984,-3,-28,-44,1293,-1053,-7849,1745152650160951589,1
278176,3,-25,-43,1278,-1037,-7862,1745152650224581164,1
278368,12,-22,-46,1259,-1010,-7861,1745152650224581164,1
278560,18,-18,-50,1239,-1013,-7857,1745152650224581164,1
278752,22,-14,-55,1253,-1039,-7853,1745152650224581164,1
278944,23,-10,-61,1257,-1054,-7875,1745152650224581164,1
279136,21,-6,-64,1261,-1102,-7885,1745152650224581164,1
279328,17,-3,-65,1271,-1139,-7871,1745152650224581164,1
279520,11,-2,-64,1301,-1167,-7855,1745152650224581164,1
279712,4,-1,-62,1300,-1186,-7828,1745152650224581164,1
279904,-4,-2,-58,1310,-1182,-7803,1745152650224581164,1
280096,-9,-5,-55,1309,-1155,-7766,1745152650224581164,1
280288,-12,-6,-52,1281,-1131,-7751,1745152650224581164,1
280480,-11,-6,-51,1278,-1078,-7755,1745152650278067759,1
280672,-4,-5,-49,1250,-1025,-7780,1745152650278067759,1
280864,8,-3,-48,1254,-983,-7785,1745152650278067759,1
281056,21,-1,-47,1256,-970,-7817,1745152650278067759,1
281248,33,2,-46,1253,-1002,-7824,1745152650278067759,1
281440,44,4,-45,1259,-1063,-7837,1745152650278067759,1
281632,53,4,-41,1267,-1126,-7854,1745152650278067759,1
281824,54,3,-37,1257,-1164,-7895,1745152650278067759,1
282016,47,4,-34,1258,-1155,-7909,1745152650278067759,1
282208,36,3,-31,1252,-1126,-7888,1745152650278067759,1
282400,26,4,-31,1241,-1054,-7871,1745152650278067759,1
282592,20,6,-33,1251,-993,-7853,1745152650278067759,1
282784,20,9,-37,1251,-931,-7830,1745152650344720848,1
282976,28,13,-43,1266,-879,-7816,1745152650344720848,1
283168,41,16,-50,1265,-832,-7856,1745152650344720848,1
283360,58,20,-60,1276,-759,-7888,1745152650344720848,1
283552,78,23,-68,1303,-728,-7853,1745152650344720848,1
283744,102,26,-76,1314,-769,-7837,1745152650344720848,1
283936,130,25,-80,1325,-822,-7837,1745152650344720848,1
284128,160,23,-82,1341,-899,-7830,1745152650344720848,1
284320,186,17,-85,1352,-1017,-7821,1745152650344720848,1
284512,208,14,-86,1330,-1149,-7794,1745152650344720848,1
284704,226,12,-87,1311,-1265,-7778,1745152650344720848,1
284896,237,11,-86,1306,-1344,-7767,1745152650344720848,1
285088,241,10,-83,1303,-1379,-7775,1745152650407133819,1
285280,239,9,-81,1303,-1378,-7778,1745152650407133819,1
285472,227,8,-79,1293,-1377,-7810,1745152650407133819,1
285664,212,10,-77,1291,-1354,-7823,1745152650407133819,1
285856,197,12,-71,1308,-1376,-7841,1745152650407133819,1
286048,179,15,-66,1318,-1397,-7871,1745152650407133819,1
286240,155,19,-58,1326,-1464,-7901,1745152650407133819,1
286432,127,23,-51,1341,-1498,-7927,1745152650407133819,1
286624,95,26,-43,1348,-1497,-7946,1745152650407133819,1
286816,59,27,-38,1363,-1470,-7965,1745152650407133819,1
287008,21,26,-36,1356,-1393,-7952,1745152650407133819,1
287200,-12,26,-38,1327,-1348,-7909,1745152650407133819,1
287392,-35,27,-39,1305,-1291,-7879,1745152650453920058,1
287584,-44,28,-38,1281,-1234,-7840,1745152650453920058,1
287776,-46,30,-37,1265,-1186,-7815,1745152650453920058,1
287968,-45,33,-40,1276,-1134,-7813,1745152650453920058,1
288160,-40,36,-45,1269,-1156,-7825,1745152650453920058,1
288352,-27,37,-48,1288,-1152,-7840,1745152650453920058,1
288544,-9,37,-46,1315,-1145,-7826,1745152650453920058,1
288736,8,33,-42,1334,-1178,-7833,1745152650453920058,1
288928,25,28,-40,1355,-1222,-7852,1745152650453920058,1
289120,38,23,-40,1348,-1237,-7859,1745152650453920058,1
289312,43,20,-39,1334,-1265,-7890,1745152650453920058,1
289504,44,18,-38,1303,-1295,-7909,1745152650453920058,1
289696,43,18,-38,1294,-1282,-7913,1745152650512539627,1
289888,43,19,-36,1280,-1252,-7940,1745152650512539627,1
290080,41,21,-36,1276,-1251,-7939,1745152650512539627,1
290272,38,24,-39,1264,-1238,-7953,1745152650512539627,1
290464,35,28,-43,1279,-1245,-7960,1745152650512539627,1
290656,32,31,-45,1284,-1284,-7961,1745152650512539627,1
290848,28,33,-46,1290,-1331,-7943,1745152650512539627,1
291040,22,34,-44,1281,-1388,-7921,1745152650512539627,1
291232,15,34,-40,1297,-1417,-7900,1745152650512539627,1
291424,8,36,-37,1288,-1386,-7925,1745152650512539627,1
291616,0,36,-37,1282,-1327,-7920,1745152650512539627,1
291808,-2,37,-38,1295,-1265,-7900,1745152650512539627,1
292000,1,39,-41,1308,-1205,-7885,1745152650572153718,1
292192,5,38,-42,1327,-1169,-7892,1745152650572153718,1
292384,8,39,-43,1329,-1192,-7897,1745152650572153718,1
292576,7,38,-43,1357,-1227,-7919,1745152650572153718,1
292768,3,36,-43,1358,-1265,-7958,1745152650572153718,1
292960,-3,32,-42,1393,-1277,-7984,1745152650572153718,1
293152,-9,27,-41,1392,-1261,-8000,1745152650572153718,1
293344,-14,23,-39,1390,-1219,-8003,1745152650572153718,1
293536,-17,19,-41,1376,-1169,-7995,1745152650572153718,1
293728,-17,15,-44,1365,-1134,-7964,1745152650572153718,1
293920,-15,11,-48,1351,-1133,-7943,1745152650572153718,1
294112,-5,8,-53,1331,-1156,-7942,1745152650572153718,1
294304,9,6,-55,1300,-1183,-7956,1745152650630448029,1
294496,23,6,-54,1274,-1192,-7998,1745152650630448029,1
294688,37,9,-53,1246,-1173,-8058,1745152650630448029,1
294880,44,12,-51,1239,-1150,-8091,1745152650630448029,1
295072,49,16,-51,1259,-1127,-8095,1745152650630448029,1
295264,56,19,-52,1301,-1126,-8103,1745152650630448029,1
295456,64,21,-51,1324,-1092,-8101,1745152650630448029,1
295648,73,21,-50,1328,-1081,-8088,1745152650630448029,1
295840,80,22,-51,1333,-1090,-8055,1745152650630448029,1
296032,84,24,-52,1324,-1117,-8028,1745152650630448029,1
296224,91,24,-52,1316,-1152,-8000,1745152650630448029,1
296416,99,23,-52,1314,-1165,-8016,1745152650630448029,1
296608,102,23,-55,1317,-1137,-8026,1745152650687227615,1
296800,100,25,-62,1352,-1106,-8015,1745152650687227615,1
296992,96,26,-72,1370,-1093,-7983,1745152650687227615,1
297184,94,24,-82,1399,-1109,-7946,1745152650687227615,1
297376,94,20,-89,1415,-1146,-7896,1745152650687227615,1
297568,95,14,-92,1435,-1195,-7876,1745152650687227615,1
297760,91,8,-92,1439,-1212,-7874,1745152650687227615,1
297952,81,3,-94,1443,-1191,-7908,1745152650687227615,1
298144,66,-3,-98,1449,-1157,-7921,1745152650687227615,1
298336,50,-8,-105,1456,-1162,-7946,1745152650687227615,1
298528,37,-11,-111,1455,-1121,-7946,1745152650687227615,1
298720,27,-13,-116,1445,-1089,-7930,1745152650687227615,1
298912,19,-15,-123,1453,-1048,-7916,1745152650750496985,1
299104,12,-15,-132,1439,-1014,-7907,1745152650750496985,1
299296,7,-15,-142,1422,-969,-7892,1745152650750496985,1
299488,7,-17,-152,1400,-931,-7893,1745152650750496985,1
299680,9,-17,-160,1375,-882,-7904,1745152650750496985,1
299872,10,-17,-169,1358,-879,-7912,1745152650750496985,1
300064,10,-14,-179,1349,-926,-7866,1745152650750496985,1
300256,16,-10,-186,1350,-1051,-7793,1745152650750496985,1
300448,30,-7,-185,1365,-1147,-7770,1745152650750496985,1
300640,41,-8,-183,1354,-1169,-7773,1745152650750496985,1
300832,38,-7,-184,1361,-1132,-7769,1745152650750496985,1
301024,27,-5,-189,1371,-1083,-7743,1745152650750496985,1
301216,19,-4,-195,1380,-1000,-7721,1745152650812248087,1
301408,20,-6,-200,1389,-967,-7724,1745152650812248087,1
301600,25,-7,-203,1381,-972,-7709,1745152650812248087,1
301792,36,-9,-202,1384,-1033,-7736,1745152650812248087,1
301984,48,-11,-199,1369,-1119,-7787,1745152650812248087,1
302176,54,-13,-197,1366,-1130,-7840,1745152650812248087,1
302368,48,-14,-197,1337,-1111,-7905,1745152650812248087,1
302560,35,-12,-199,1314,-1056,-7930,1745152650812248087,1
302752,22,-8,-202,1313,-988,-7946,1745152650812248087,1
302944,14,-3,-205,1318,-932,-7918,1745152650812248087,1
303136,15,1,-208,1337,-890,-7902,1745152650812248087,1
303328,21,4,-212,1360,-868,-7868,1745152650812248087,1
303520,27,6,-217,1395,-866,-7838,1745152650866323791,1
303712,32,5,-225,1400,-843,-7814,1745152650866323791,1
303904,31,3,-233,1422,-861,-7786,1745152650866323791,1
304096,28,1,-240,1410,-851,-7770,1745152650866323791,1
304288,23,-3,-246,1404,-837,-7748,1745152650866323791,1
304480,18,-5,-254,1413,-846,-7729,1745152650866323791,1
304672,15,-7,-262,1389,-860,-7713,1745152650866323791,1
304864,18,-8,-271,1370,-848,-7691,1745152650866323791,1
305056,23,-9,-277,1361,-831,-7615,1745152650866323791,1
305248,29,-10,-283,1350,-828,-7549,1745152650866323791,1
305440,41,-10,-284,1344,-862,-7465,1745152650866323791,1
305632,59,-12,-282,1321,-908,-7418,1745152650866323791,1
305824,80,-14,-276,1263,-964,-7397,1745152650920224653,1
306016,100,-15,-268,1218,-960,-7385,1745152650920224653,1
306208,115,-10,-261,1149,-974,-7395,1745152650920224653,1
306400,128,1,-256,1092,-960,-7435,1745152650920224653,1
306592,136,16,-253,1058,-954,-7481,1745152650920224653,1
306784,143,33,-246,1059,-970,-7512,1745152650920224653,1
306976,146,52,-236,1081,-976,-7585,1745152650920224653,1
307168,145,70,-224,1150,-940,-7666,1745152650920224653,1
307360,141,87,-212,1221,-912,-7728,1745152650920224653,1
307552,139,100,-199,1307,-856,-7784,1745152650920224653,1
307744,137,110,-188,1398,-803,-7817,1745152650920224653,1
307936,133,118,-180,1482,-740,-7844,1745152650920224653,1
308128,129,126,-180,1546,-683,-7864,1745152650980941702,1
308320,126,130,-186,1596,-625,-7864,1745152650980941702,1
308512,126,130,-197,1639,-591,-7870,1745152650980941702,1
308704,128,126,-210,1670,-579,-7874,1745152650980941702,1
308896,128,118,-224,1668,-595,-7865,1745152650980941702,1
309088,123,109,-239,1674,-649,-7844,1745152650980941702,1
309280,114,99,-252,1683,-726,-7818,1745152650980941702,1
309472,102,86,-265,1666,-804,-7824,1745152650980941702,1
309664,82,73,-281,1676,-818,-7847,1745152650980941702,1
309856,53,60,-305,1686,-818,-7881,1745152650980941702,1
310048,15,46,-334,1704,-753,-7883,1745152650980941702,1
310240,-22,29,-363,1709,-653,-7916,1745152650980941702,1
310432,-56,12,-392,1737,-508,-7971,1745152651041241724,1
310624,-87,-4,-424,1724,-349,-8020,1745152651041241724,1
310816,-117,-18,-458,1722,-184,-8075,1745152651041241724,1
311008,-144,-30,-494,1707,-46,-8153,1745152651041241724,1
311200,-170,-41,-533,1697,70,-8222,1745152651041241724,1
311392,-194,-51,-570,1716,145,-8299,1745152651041241724,1
311584,-218,-58,-606,1743,237,-8398,1745152651041241724,1
311776,-245,-66,-642,1777,329,-8472,1745152651041241724,1
311968,-277,-73,-680,1836,378,-8519,1745152651041241724,1
312160,-311,-81,-722,1908,441,-8526,1745152651041241724,1
312352,-352,-92,-768,1959,509,-8491,1745152651041241724,1
312544,-395,-105,-815,1993,597,-8432,1745152651041241724,1
312736,-437,-119,-864,2023,720,-8379,1745152651095994974,1
312928,-475,-135,-913,2009,865,-8340,1745152651095994974,1
313120,-502,-149,-961,1994,1028,-8264,1745152651095994974,1
313312,-517,-161,-1011,1952,1240,-8207,1745152651095994974,1
313504,-518,-172,-1066,1917,1414,-8166,1745152651095994974,1
313696,-511,-178,-1123,1889,1586,-8142,1745152651095994974,1
313888,-492,-179,-1181,1833,1744,-8225,1745152651095994974,1
314080,-459,-172,-1238,1830,1908,-8373,1745152651095994974,1
314272,-415,-164,-1297,1867,2024,-8536,1745152651095994974,1
314464,-362,-160,-1357,1945,2118,-8713,1745152651095994974,1
314656,-306,-160,-1419,2033,2160,-8851,1745152651095994974,1
314848,-254,-166,-1478,2130,2162,-8938,1745152651095994974,1
315040,-211,-178,-1536,2229,2144,-9004,1745152651155949270,1
315232,-177,-194,-1593,2307,2144,-9020,1745152651155949270,1
315424,-148,-214,-1647,2365,2144,-9002,1745152651155949270,1
315616,-124,-240,-1700,2391,2153,-8944,1745152651155949270,1
315808,-104,-265,-1754,2427,2175,-8901,1745152651155949270,1
316000,-84,-290,-1807,2441,2228,-8876,1745152651155949270,1
316192,-67,-313,-1857,2468,2231,-8854,1745152651155949270,1
316384,-55,-337,-1908,2504,2248,-8850,1745152651155949270,1
316576,-52,-362,-1957,2539,2180,-8815,1745152651155949270,1
316768,-64,-385,-2005,2560,2064,-8845,1745152651155949270,1
316960,-84,-407,-2053,2565,1975,-8946,1745152651155949270,1
317152,-111,-429,-2098,2596,1945,-9043,1745152651155949270,1
317344,-146,-450,-2142,2615,1932,-9056,1745152651224690413,1
317536,-191,-465,-2188,2633,1929,-9054,1745152651224690413,1
317728,-241,-478,-2235,2693,1957,-9032,1745152651224690413,1
317920,-284,-489,-2285,2731,1990,-9003,1745152651224690413,1
318112,-319,-501,-2333,2740,2053,-8949,1745152651224690413,1
318304,-345,-513,-2378,2794,2137,-8901,1745152651224690413,1
318496,-363,-524,-2424,2804,2221,-8825,1745152651224690413,1
318688,-370,-535,-2470,2816,2295,-8750,1745152651224690413,1
318880,-365,-547,-2515,2825,2359,-8689,1745152651224690413,1
319072,-346,-558,-2559,2827,2410,-8613,1745152651224690413,1
319264,-318,-564,-2605,2842,2446,-8539,1745152651224690413,1
319456,-282,-567,-2650,2850,2466,-8494,1745152651224690413,1
319648,-239,-569,-2694,2874,2507,-8499,1745152651272402269,1
319840,-188,-571,-2734,2869,2540,-8513,1745152651272402269,1
320032,-131,-574,-2771,2865,2538,-8493,1745152651272402269,1
320224,-68,-576,-2802,2850,2534,-8494,1745152651272402269,1
320416,-2,-578,-2825,2840,2529,-8474,1745152651272402269,1
320608,68,-576,-2845,2787,2513,-8480,1745152651272402269,1
320800,138,-570,-2866,2746,2483,-8447,1745152651272402269,1
320992,204,-565,-2886,2717,2389,-8363,1745152651272402269,1
321184,263,-559,-2907,2685,2239,-8337,1745152651272402269,1
321376,316,-552,-2927,2637,2056,-8253,1745152651272402269,1
321568,361,-542,-2943,2540,1917,-8149,1745152651272402269,1
321760,400,-529,-2951,2457,1779,-8072,1745152651272402269,1
321952,429,-516,-2957,2369,1664,-7987,1745152651331439230,1
322144,451,-505,-2963,2298,1537,-7928,1745152651331439230,1
322336,465,-490,-2969,2227,1425,-7905,1745152651331439230,1
322528,476,-475,-2975,2172,1339,-7839,1745152651331439230,1
322720,484,-459,-2979,2163,1230,-7798,1745152651331439230,1
322912,489,-445,-2981,2161,1162,-7782,1745152651331439230,1
323104,490,-433,-2980,2167,1105,-7728,1745152651331439230,1
323296,489,-426,-2973,2172,1035,-7656,1745152651331439230,1
323488,487,-421,-2965,2171,990,-7605,1745152651331439230,1
323680,488,-416,-2954,2160,976,-7586,1745152651331439230,1
323872,497,-413,-2941,2120,983,-7556,1745152651331439230,1
324064,509,-407,-2930,2073,967,-7488,1745152651331439230,1
324256,522,-399,-2919,2024,902,-7418,1745152651388778758,1
324448,538,-390,-2906,1979,760,-7349,1745152651388778758,1
324640,555,-384,-2890,1933,593,-7300,1745152651388778758,1
324832,568,-378,-2871,1898,410,-7331,1745152651388778758,1
325024,576,-372,-2851,1836,266,-7413,1745152651388778758,1
325216,576,-366,-2831,1790,175,-7494,1745152651388778758,1
325408,570,-357,-2809,1761,114,-7528,1745152651388778758,1
325600,559,-346,-2786,1766,91,-7463,1745152651388778758,1
325792,546,-334,-2763,1779,69,-7347,1745152651388778758,1
325984,541,-327,-2741,1805,26,-7290,1745152651388778758,1
326176,539,-328,-2719,1833,-24,-7214,1745152651388778758,1
326368,534,-332,-2701,1845,-100,-7185,1745152651388778758,1
326560,522,-337,-2684,1846,-201,-7179,1745152651449904345,1
326752,502,-342,-2665,1821,-305,-7169,1745152651449904345,1
326944,475,-347,-2642,1792,-437,-7137,1745152651449904345,1
327136,445,-350,-2616,1765,-569,-7077,1745152651449904345,1
327328,414,-354,-2591,1724,-666,-7033,1745152651449904345,1
327520,384,-355,-2570,1680,-724,-7110,1745152651449904345,1
327712,355,-354,-2550,1608,-739,-7171,1745152651449904345,1
327904,327,-350,-2528,1571,-731,-7217,1745152651449904345,1
328096,301,-342,-2502,1541,-742,-7196,1745152651449904345,1
328288,278,-331,-2475,1534,-745,-7174,1745152651449904345,1
328480,260,-322,-2446,1551,-763,-7164,1745152651449904345,1
328672,249,-316,-2419,1545,-793,-7163,1745152651449904345,1
328864,244,-310,-2391,1523,-817,-7173,1745152651533358583,1
329056,245,-304,-2361,1502,-838,-7198,1745152651533358583,1
329248,247,-295,-2331,1490,-862,-7187,1745152651533358583,1
329440,252,-284,-2302,1479,-873,-7178,1745152651533358583,1
329632,260,-273,-2271,1479,-885,-7150,1745152651533358583,1
329824,270,-263,-2240,1440,-879,-7120,1745152651533358583,1
330016,283,-254,-2207,1429,-888,-7058,1745152651533358583,1
330208,296,-245,-2175,1434,-939,-7006,1745152651533358583,1
330400,304,-232,-2145,1431,-998,-6974,1745152651533358583,1
330592,306,-219,-2114,1457,-1088,-6964,1745152651533358583,1
330784,300,-206,-2082,1465,-1178,-6965,1745152651533358583,1
330976,289,-193,-2046,1481,-1274,-6935,1745152651533358583,1
331168,271,-183,-2007,1517,-1363,-6874,1745152651569195235,1
331360,246,-174,-1964,1556,-1428,-6789,1745152651569195235,1
331552,217,-167,-1917,1563,-1465,-6715,1745152651569195235,1
331744,186,-161,-1872,1582,-1482,-6707,1745152651569195235,1
331936,153,-158,-1831,1593,-1504,-6763,1745152651569195235,1
332128,123,-158,-1793,1562,-1537,-6809,1745152651569195235,1
332320,92,-159,-1754,1517,-1625,-6818,1745152651569195235,1
332512,62,-157,-1714,1474,-1714,-6828,1745152651569195235,1
332704,31,-152,-1671,1397,-1776,-6867,1745152651569195235,1
332896,-2,-146,-1630,1303,-1831,-6924,1745152651569195235,1
333088,-38,-136,-1590,1215,-1858,-6976,1745152651569195235,1
333280,-70,-126,-1549,1121,-1901,-7042,1745152651569195235,1
333472,-93,-112,-1504,1039,-1893,-7098,1745152651637445809,1
333664,-108,-93,-1454,977,-1829,-7183,1745152651637445809,1
333856,-117,-71,-1408,911,-1769,-7326,1745152651637445809,1
334048,-123,-46,-1365,901,-1705,-7492,1745152651637445809,1
334240,-120,-20,-1323,961,-1653,-7673,1745152651637445809,1
334432,-104,4,-1280,1050,-1639,-7762,1745152651637445809,1
334624,-77,25,-1232,1179,-1636,-7816,1745152651637445809,1
334816,-41,42,-1181,1311,-1657,-7877,1745152651637445809,1
335008,0,52,-1131,1439,-1673,-7878,1745152651637445809,1
335200,42,52,-1080,1527,-1717,-7850,1745152651637445809,1
335392,82,44,-1030,1577,-1827,-7786,1745152651637445809,1
335584,113,35,-981,1575,-1965,-7697,1745152651637445809,1
335776,129,26,-937,1569,-2131,-7616,1745152651685149540,1
335968,128,21,-895,1522,-2257,-7594,1745152651685149540,1
336160,108,18,-852,1505,-2388,-7601,1745152651685149540,1
336352,73,12,-806,1461,-2535,-7616,1745152651685149540,1
336544,26,7,-756,1473,-2649,-7668,1745152651685149540,1
336736,-32,4,-705,1487,-2758,-7748,1745152651685149540,1
336928,-97,4,-662,1459,-2782,-7815,1745152651685149540,1
337120,-163,15,-620,1452,-2748,-7906,1745152651685149540,1
337312,-220,26,-580,1502,-2651,-8012,1745152651685149540,1
337504,-264,39,-543,1545,-2560,-8053,1745152651685149540,1
337696,-289,46,-508,1624,-2440,-8135,1745152651685149540,1
337888,-296,54,-472,1705,-2328,-8236,1745152651685149540,1
338080,-288,59,-439,1789,-2224,-8294,1745152651749039738,1
338272,-268,64,-406,1852,-2100,-8299,1745152651749039738,1
338464,-244,65,-374,1912,-2026,-8258,1745152651749039738,1
338656,-217,65,-347,1923,-2008,-8237,1745152651749039738,1
338848,-191,63,-322,1913,-2026,-8191,1745152651749039738,1
339040,-169,66,-296,1845,-2105,-8161,1745152651749039738,1
339232,-155,69,-268,1781,-2167,-8133,1745152651749039738,1
339424,-155,78,-238,1718,-2221,-8074,1745152651749039738,1
339616,-169,90,-209,1674,-2265,-8002,1745152651749039738,1
339808,-192,106,-183,1627,-2252,-7968,1745152651749039738,1
340000,-223,128,-161,1597,-2219,-7980,1745152651749039738,1
340192,-250,152,-140,1603,-2178,-7995,1745152651749039738,1
340384,-269,176,-119,1610,-2110,-7972,1745152651809719131,1
340576,-282,202,-99,1603,-2036,-8019,1745152651809719131,1
340768,-288,228,-81,1635,-1939,-8092,1745152651809719131,1
340960,-284,254,-69,1699,-1835,-8143,1745152651809719131,1
341152,-268,278,-61,1778,-1748,-8200,1745152651809719131,1
341344,-240,298,-55,1837,-1662,-8259,1745152651809719131,1
341536,-207,316,-49,1880,-1589,-8305,1745152651809719131,1
341728,-172,330,-41,1948,-1543,-8310,1745152651809719131,1
341920,-136,340,-33,1969,-1536,-8266,1745152651809719131,1
342112,-105,345,-21,1969,-1579,-8245,1745152651809719131,1
342304,-77,348,-7,1957,-1598,-8216,1745152651809719131,1
342496,-55,353,8,1895,-1636,-8172,1745152651809719131,1
342688,-41,361,24,1825,-1695,-8148,1745152651910259671,1
342880,-34,374,38,1763,-1716,-8124,1745152651910259671,1
343072,-32,390,53,1709,-1732,-8101,1745152651910259671,1
343264,-31,409,71,1668,-1711,-8061,1745152651910259671,1
343456,-32,427,91,1674,-1620,-8033,1745152651910259671,1
343648,-27,447,110,1700,-1516,-8001,1745152651910259671,1
343840,-17,466,126,1732,-1379,-8022,1745152651910259671,1
344032,0,486,138,1760,-1246,-8057,1745152651910259671,1
344224,21,506,149,1811,-1172,-8063,1745152651910259671,1
344416,47,522,161,1878,-1087,-8045,1745152651910259671,1
344608,76,534,181,1915,-1069,-8015,1745152651910259671,1
344800,99,544,198,1951,-1071,-7985,1745152651910259671,1
344992,122,554,215,1965,-1103,-7916,1745152651954838952,1
345184,136,564,236,1932,-1162,-7884,1745152651954838952,1
345376,136,584,256,1914,-1219,-7891,1745152651954838952,1
345568,134,602,269,1907,-1278,-7802,1745152651954838952,1
345760,130,617,287,1882,-1299,-7699,1745152651954838952,1
345952,126,635,310,1879,-1348,-7518,1745152651954838952,1
346144,123,651,327,1872,-1407,-7323,1745152651954838952,1
346336,121,676,341,1843,-1445,-7137,1745152651954838952,1
346528,120,701,358,1823,-1449,-7010,1745152651954838952,1
346720,124,724,379,1847,-1441,-6813,1745152651954838952,1
346912,124,744,399,1900,-1400,-6750,1745152651954838952,1
347104,129,753,412,2020,-1331,-6945,1745152651954838952,1
347296,151,726,402,2180,-1266,-7303,1745152652117672464,1
347488,169,645,365,2418,-1270,-8146,1745152652117672464,1
347680,187,523,303,2742,-1326,-8974,1745152652117672464,1
347872,235,378,235,3073,-1527,-9222,1745152652117672464,1
348064,280,223,188,3285,-1702,-9226,1745152652117672464,1
348256,304,93,175,3419,-1808,-9172,1745152652117672464,1
348448,306,5,174,3424,-1738,-9052,1745152652117672464,1
348640,290,-56,171,3330,-1442,-8864,1745152652117672464,1
348832,264,-105,161,3102,-1029,-8709,1745152652117672464,1
349024,231,-140,137,2825,-629,-8641,1745152652117672464,1
349216,188,-155,104,2513,-322,-8470,1745152652117672464,1
349408,130,-154,69,2190,-135,-8366,1745152652117672464,1
349600,62,-130,42,1902,-39,-8335,1745152652225174086,1
349792,-5,-93,31,1671,14,-8401,1745152652225174086,1
349984,-54,-52,42,1505,4,-8533,1745152652225174086,1
350176,-82,-18,74,1446,31,-8687,1745152652225174086,1
350368,-94,5,109,1489,137,-8858,1745152652225174086,1
350560,-94,21,133,1585,316,-9043,1745152652225174086,1
350752,-76,28,141,1728,494,-9187,1745152652225174086,1
350944,-38,26,132,1847,630,-9273,1745152652225174086,1
351136,13,14,112,1946,758,-9268,1745152652225174086,1
351328,65,4,91,1958,822,-9205,1745152652225174086,1
351520,117,-8,75,1920,793,-9161,1745152652225174086,1
351712,158,-17,68,1863,652,-9178,1745152652225174086,1
351904,182,-23,65,1770,383,-9198,1745152652260551367,1
352096,192,-38,63,1666,-20,-9269,1745152652260551367,1
352288,181,-55,64,1569,-478,-9243,1745152652260551367,1
352480,147,-56,76,1449,-948,-9160,1745152652260551367,1
352672,91,-55,92,1353,-1336,-9020,1745152652260551367,1
352864,21,-51,111,1267,-1616,-8908,1745152652260551367,1
353056,-53,-42,124,1229,-1769,-8764,1745152652260551367,1
353248,-112,-42,132,1204,-1787,-8521,1745152652260551367,1
353440,-147,-42,133,1199,-1714,-8271,1745152652260551367,1
353632,-164,-33,124,1217,-1544,-8079,1745152652260551367,1
353824,-172,-25,110,1224,-1366,-7899,1745152652260551367,1
354016,-170,-21,96,1226,-1221,-7713,1745152652260551367,1
354208,-154,-17,86,1248,-1105,-7599,1745152652267870050,1
354400,-129,-16,78,1269,-1032,-7566,1745152652267870050,1
354592,-103,-16,68,1266,-949,-7558,1745152652267870050,1
354784,-79,-15,54,1259,-866,-7567,1745152652267870050,1
354976,-58,-12,38,1257,-793,-7596,1745152652267870050,1
355168,-34,-10,23,1268,-729,-7621,1745152652267870050,1
355360,-6,-8,9,1278,-671,-7682,1745152652267870050,1
355552,18,-7,-4,1268,-631,-7827,1745152652267870050,1
355744,31,-6,-14,1266,-555,-7944,1745152652267870050,1
355936,30,-5,-17,1257,-508,-8060,1745152652267870050,1
356128,20,-3,-11,1258,-496,-8158,1745152652267870050,1
356320,9,1,-3,1266,-474,-8217,1745152652267870050,1
356512,2,4,5,1276,-443,-8275,1745152652296466664,1
356704,-2,15,9,1278,-391,-8336,1745152652296466664,1
356896,-5,-1,11,1260,-357,-8381,1745152652296466664,1
357088,-5,-10,7,1223,-329,-8353,1745152652296466664,1
357280,-8,4,7,1199,-350,-8366,1745152652296466664,1
357472,-11,-3,8,1144,-384,-8350,1745152652296466664,1
357664,-18,-2,12,1101,-429,-8313,1745152652296466664,1
357856,-29,-2,18,1042,-445,-8253,1745152652296466664,1
358048,-41,3,26,1042,-471,-8148,1745152652296466664,1
358240,-50,12,35,1050,-494,-8052,1745152652296466664,1
358432,-53,19,42,1071,-495,-7942,1745152652296466664,1
358624,-51,23,44,1107,-508,-7862,1745152652296466664,1
358816,-51,24,44,1165,-512,-7798,1745152652303637901,1
359008,-53,24,42,1217,-526,-7727,1745152652303637901,1
359200,-53,23,39,1278,-527,-7697,1745152652303637901,1
359392,-53,24,36,1313,-540,-7669,1745152652303637901,1
359584,-47,21,35,1344,-567,-7661,1745152652303637901,1
359776,-37,19,34,1368,-554,-7691,1745152652303637901,1
359968,-25,16,28,1381,-561,-7706,1745152652303637901,1
360160,-14,14,24,1378,-545,-7714,1745152652303637901,1
360352,-2,12,20,1374,-576,-7746,1745152652303637901,1
360544,12,9,18,1395,-561,-7770,1745152652303637901,1
360736,23,8,18,1399,-569,-7860,1745152652303637901,1
360928,31,5,17,1402,-555,-7929,1745152652303637901,1
361120,34,1,15,1407,-552,-8009,1745152652361421435,1
361312,32,-3,13,1399,-565,-8083,1745152652361421435,1
361504,23,-4,11,1411,-548,-8165,1745152652361421435,1
361696,11,-5,7,1408,-565,-8243,1745152652361421435,1
361888,-1,-6,3,1409,-574,-8252,1745152652361421435,1
362080,-10,-8,1,1396,-556,-8267,1745152652361421435,1
362272,-15,-8,1,1398,-554,-8287,1745152652361421435,1
362464,-19,-10,2,1364,-520,-8285,1745152652361421435,1
362656,-22,-10,3,1340,-504,-8284,1745152652361421435,1
362848,-23,0,4,1341,-524,-8248,1745152652361421435,1
363040,-22,-2,8,1324,-534,-8218,1745152652361421435,1
363232,-21,-29,6,1281,-577,-8146,1745152652361421435,1
363424,-20,-6,6,1249,-626,-8114,1745152652412790758,1
363616,-20,-5,5,1215,-666,-8035,1745152652412790758,1
363808,-20,-4,5,1208,-671,-7975,1745152652412790758,1
364000,-19,-3,8,1179,-698,-7970,1745152652412790758,1
364192,-16,-1,10,1172,-688,-7956,1745152652412790758,1
364384,-14,3,10,1178,-654,-7992,1745152652412790758,1
364576,-18,7,8,1172,-618,-8017,1745152652412790758,1
364768,-21,11,9,1209,-590,-7998,1745152652412790758,1
364960,-8,1,10,721,-651,-3970,1745152652412790758,1
365152,-383,-34,-60,102,-7313,-8354,1745152652412790758,1
365344,-875,57,-204,2038,-4106,-10664,1745152652412790758,1
365536,-645,-158,-97,3473,2173,-6614,1745152652412790758,1
365728,-328,-243,172,2902,3489,-6267,1745152652460013504,1
365920,-118,-247,204,1467,1685,-7713,1745152652460013504,1
366112,-147,-226,-11,845,415,-8456,1745152652460013504,1
366304,-121,-226,-180,1040,192,-8118,1745152652460013504,1
366496,-14,-258,-168,1118,100,-7896,1745152652460013504,1
366688,85,-265,-76,917,-47,-8192,1745152652460013504,1
366880,126,-253,-13,784,-44,-8366,1745152652460013504,1
367072,126,-220,8,748,181,-8281,1745152652460013504,1
367264,131,-207,12,636,337,-8158,1745152652460013504,1
367456,159,-183,9,557,194,-8124,1745152652460013504,1
367648,192,-150,0,597,-40,-8143,1745152652460013504,1
367840,227,-127,-7,805,-162,-8109,1745152652460013504,1
409312,-25,49,0,1214,12,-7891,1745152653556096616,2
409504,-56,47,-3,961,-831,-8397,1745152653556096616,2
409696,-13,-20,-9,1103,-534,-8059,1745152653556096616,2
409888,-21,-36,0,1014,-403,-8066,1745152653556096616,2
410080,-44,-14,15,995,-428,-8130,1745152653556096616,2
410272,-44,-24,12,973,-399,-8142,1745152653556096616,2
410464,-59,-19,6,964,-376,-8124,1745152653556096616,2
410656,-64,-9,4,953,-295,-8064,1745152653556096616,2
410848,-56,-12,7,956,-216,-8026,1745152653556096616,2
411040,-55,-9,12,1055,-221,-8024,1745152653556096616,2
411232,-47,-16,16,1110,-216,-8003,1745152653556096616,2
411424,-35,-24,19,1057,-187,-8009,1745152653556096616,2
411616,-28,-20,19,-27,-1,-1,1745152653627168310,2
411808,-20,-19,14,951,-225,-8013,1745152653627168310,2
412000,-17,-15,10,910,-271,-8003,1745152653627168310,2
412192,-16,-8,8,903,-274,-7995,1745152653627168310,2
412384,-17,-2,9,925,-291,-8018,1745152653627168310,2
412576,-22,5,10,973,-314,-8042,1745152653627168310,2
412768,-34,9,9,1013,-438,-8108,1745152653627168310,2
412960,-55,4,8,1074,-557,-8123,1745152653627168310,2
413152,-75,-3,11,1140,-535,-8119,1745152653627168310,2
413344,-87,-14,19,1166,-450,-8108,1745152653627168310,2
413536,-98,-25,23,1174,-412,-8108,1745152653627168310,2
413728,-110,-32,18,1123,-407,-8108,1745152653627168310,2
413920,-119,-36,9,1071,-430,-8105,1745152653668821576,2
414112,-125,-36,1,1048,-388,-8126,1745152653668821576,2
414304,-128,-35,-2,1056,-336,-8163,1745152653668821576,2
414496,-134,-34,-2,1072,-308,-8167,1745152653668821576,2
414688,-134,-32,-1,1107,-163,-8196,1745152653668821576,2
414880,-126,-31,4,1125,-60,-8223,1745152653668821576,2
415072,-116,-29,7,1103,-19,-8238,1745152653668821576,2
415264,-102,-21,7,1023,-9,-8262,1745152653668821576,2
415456,-84,-9,4,961,-5,-8223,1745152653668821576,2
415648,-64,8,0,904,3,-8170,1745152653668821576,2
415840,-44,27,-1,891,12,-8127,1745152653668821576,2
416032,-32,44,-4,953,-53,-8098,1745152653668821576,2
416224,-27,56,-6,1025,-126,-8081,1745152653747888666,2
416416,-27,66,-5,1063,-172,-8076,1745152653747888666,2
416608,-27,76,-4,1068,-182,-8060,1745152653747888666,2
416800,-25,89,-3,1028,-181,-8085,1745152653747888666,2
416992,-26,107,-6,947,-175,-8176,1745152653747888666,2
417184,-36,126,-13,926,-836,-7936,1745152653747888666,2
417376,-73,174,-25,989,364,-8702,1745152653747888666,2
417568,-11,178,-11,798,0,-8003,1745152653747888666,2
417760,-24,229,-14,784,-346,-8581,1745152653747888666,2
417952,-18,260,-30,907,-363,-8552,1745152653747888666,2
418144,-18,285,-34,1088,-348,-8561,1745152653747888666,2
418336,-26,304,-27,1248,-300,-8649,1745152653747888666,2
418528,-37,315,-24,1391,-305,-8693,1745152653805645847,2
418720,-50,313,-26,1612,-307,-8729,1745152653805645847,2
418912,-57,298,-35,1641,-391,-8735,1745152653805645847,2
419104,-71,290,-48,1800,-474,-8845,1745152653805645847,2
419296,-93,243,-58,2076,-591,-8974,1745152653805645847,2
419488,-117,230,-71,1581,-957,-8939,1745152653805645847,2
419680,-141,192,-93,2846,-997,-9224,1745152653805645847,2
419872,-363,-13,-110,3934,-1906,-9557,1745152653805645847,2
420064,-501,-97,-116,3590,-1962,-9699,1745152653805645847,2
420256,-647,-226,-106,3138,-1808,-9579,1745152653805645847,2
420448,-761,-273,-109,2694,-1531,-9585,1745152653805645847,2
420640,-854,-269,-131,2328,-1225,-9688,1745152653805645847,2
420832,-898,-287,-163,2061,-938,-9480,1745152653842611655,2
421024,-905,-278,-195,1902,-751,-9047,1745152653842611655,2
421216,-897,-262,-222,1781,-659,-8843,1745152653842611655,2
421408,-877,-247,-236,1796,-679,-8579,1745152653842611655,2
421600,-855,-218,-237,1847,-734,-8420,1745152653842611655,2
421792,-851,-194,-232,2023,-737,-8265,1745152653842611655,2
421984,-847,-175,-229,2190,-644,-8009,1745152653842611655,2
422176,-834,-174,-222,2421,-410,-8202,1745152653842611655,2
422368,-849,-174,-219,2557,-215,-7510,1745152653842611655,2
422560,-859,-146,-247,2546,94,-7380,1745152653842611655,2
422752,-857,-128,-297,2542,408,-7460,1745152653842611655,2
422944,-851,-115,-352,2594,525,-7302,1745152653842611655,2
423136,-831,-109,-399,2659,548,-7524,1745152653905742641,2
423328,-797,-117,-441,2771,630,-7861,1745152653905742641,2
423520,-721,-135,-476,2963,872,-8220,1745152653905742641,2
423712,-595,-121,-496,3225,1200,-8100,1745152653905742641,2
423904,-457,-69,-499,3586,1334,-8100,1745152653905742641,2
424096,-359,-43,-498,4069,1167,-8378,1745152653905742641,2
424288,-231,-128,-527,4597,849,-8842,1745152653905742641,2
424480,-70,-307,-586,4982,537,-9319,1745152653905742641,2
424672,53,-485,-652,5065,290,-9766,1745152653905742641,2
424864,137,-624,-709,4842,44,-9991,1745152653905742641,2
425056,169,-714,-752,4386,-315,-9810,1745152653905742641,2
425248,170,-738,-769,4094,-771,-9118,1745152653905742641,2
425440,125,-757,-747,3854,-1137,-9400,1745152654481480662,2
425440,125,-757,-747,3854,-1137,-9400,1745152654481480662,2
425824,-181,-936,-778,2969,-1406,-8684,1745152654481480662,2
426016,-415,-936,-780,2737,-951,-8223,1745152654481480662,2
426208,-684,-845,-701,3095,-318,-8032,1745152654481480662,2
426400,-1043,-718,-463,3912,-87,-7252,1745152654481480662,2
426592,-1228,-790,-256,4599,63,-7446,1745152654481480662,2
426784,-1167,-1022,-220,4811,346,-7723,1745152654481480662,2
426976,-1041,-1243,-302,4472,461,-8005,1745152654481480662,2
427168,-960,-1368,-388,3927,81,-8219,1745152654481480662,2
427360,-915,-1402,-422,3319,-536,-8350,1745152654481480662,2
427552,-865,-1403,-382,2811,-932,-8591,1745152654481480662,2
427744,-831,-1389,-290,2414,-1075,-8708,1745152654527773937,2
427936,-786,-1369,-205,2091,-935,-8841,1745152654527773937,2
428128,-742,-1334,-159,1810,-686,-8784,1745152654527773937,2
428320,-682,-1277,-141,1610,-461,-8621,1745152654527773937,2
428512,-594,-1205,-127,1529,-316,-8498,1745152654527773937,2
428704,-485,-1136,-103,1534,-277,-8436,1745152654527773937,2
428896,-369,-1075,-62,1598,-319,-8415,1745152654527773937,2
429088,-250,-1031,-3,1612,-377,-8357,1745152654527773937,2
429280,-134,-996,71,1608,-497,-8270,1745152654527773937,2
429472,-23,-960,146,1521,-549,-8236,1745152654527773937,2
429664,71,-921,222,1344,-670,-8149,1745152654527773937,2
429856,156,-885,296,1163,-842,-7935,1745152654527773937,2
430048,235,-841,373,872,-999,-7716,1745152654620953711,2
430240,307,-788,458,630,-1132,-7539,1745152654620953711,2
430432,372,-726,542,424,-1243,-7364,1745152654620953711,2
430624,428,-663,626,272,-1340,-7156,1745152654620953711,2
430816,478,-604,710,170,-1441,-6925,1745152654620953711,2
431008,518,-548,800,108,-1569,-6744,1745152654620953711,2
431200,558,-503,892,117,-1724,-6585,1745152654620953711,2
431392,590,-465,983,147,-1861,-6488,1745152654620953711,2
431584,605,-433,1065,167,-2077,-6476,1745152654620953711,2
431776,623,-408,1139,150,-2319,-6473,1745152654620953711,2
431968,651,-382,1216,82,-2509,-6487,1745152654620953711,2
432160,677,-353,1296,-4,-2607,-6559,1745152654620953711,2
432352,686,-321,1377,-41,-2667,-6714,1745152654628391716,2
432544,672,-287,1455,-80,-2685,-6785,1745152654628391716,2
432736,644,-252,1532,-97,-2688,-6713,1745152654628391716,2
432928,616,-213,1609,-93,-2678,-6652,1745152654628391716,2
433120,591,-173,1686,-70,-2630,-6647,1745152654628391716,2
433312,566,-136,1752,-34,-2549,-6668,1745152654628391716,2
433504,530,-97,1814,-8,-2412,-6804,1745152654628391716,2
433696,488,-58,1876,-3,-2279,-6942,1745152654628391716,2
433888,447,-17,1947,-1,-2110,-6999,1745152654628391716,2
434080,413,21,2029,40,-1948,-7030,1745152654628391716,2
434272,388,58,2115,97,-1772,-7071,1745152654628391716,2
434464,368,93,2196,137,-1615,-7098,1745152654628391716,2
434656,355,126,2271,204,-1479,-7172,1745152654669308634,2
434848,344,158,2337,239,-1347,-7243,1745152654669308634,2
435040,336,188,2398,293,-1243,-7315,1745152654669308634,2
435232,336,216,2455,293,-1164,-7367,1745152654669308634,2
435424,344,243,2513,320,-1090,-7421,1745152654669308634,2
435616,364,268,2575,324,-987,-7455,1745152654669308634,2
435808,392,291,2640,354,-878,-7482,1745152654669308634,2
436000,422,315,2700,416,-758,-7600,1745152654669308634,2
436192,442,336,2754,520,-596,-7669,1745152654669308634,2
436192,442,336,2754,520,-596,-7669,1745152654669308634,2
436576,445,375,2854,751,-183,-7752,1745152654669308634,2
436768,433,395,2900,865,35,-7799,1745152654669308634,2
436960,418,413,2947,922,272,-7840,1745152654711106846,2
437152,400,430,2990,975,461,-7912,1745152654711106846,2
437344,382,445,3027,1009,622,-7985,1745152654711106846,2
437536,364,459,3061,1038,710,-8061,1745152654711106846,2
437728,345,470,3094,1070,743,-8124,1745152654711106846,2
437920,322,481,3128,1080,765,-8161,1745152654711106846,2
438112,298,495,3163,1097,758,-8195,1745152654711106846,2
438304,275,508,3198,1124,750,-8176,1745152654711106846,2
438496,256,526,3232,1148,773,-8201,1745152654711106846,2
438688,240,545,3263,1208,808,-8235,1745152654711106846,2
438880,230,562,3291,1325,859,-8180,1745152654711106846,2
439072,229,575,3318,1471,953,-8187,1745152654711106846,2
439264,237,579,3342,1628,1096,-8190,1745152654759726402,2
439456,245,583,3362,1747,1291,-8167,1745152654759726402,2
439648,255,591,3382,1843,1521,-8251,1745152654759726402,2
439840,266,598,3400,1898,1770,-8223,1745152654759726402,2
440032,284,614,3417,1947,2023,-8235,1745152654759726402,2
440224,312,635,3434,2018,2288,-8315,1745152654759726402,2
440416,342,649,3446,2102,2496,-8355,1745152654759726402,2
440608,362,659,3454,2166,2615,-8372,1745152654759726402,2
440800,374,664,3462,2221,2645,-8429,1745152654759726402,2
440992,377,671,3479,2274,2573,-8432,1745152654759726402,2
441184,369,680,3500,2317,2434,-8349,1745152654759726402,2
441376,348,689,3522,2352,2281,-8285,1745152654759726402,2
441568,315,696,3542,2381,2112,-8178,1745152654811527700,2
441760,275,701,3559,2393,1976,-8075,1745152654811527700,2
441952,231,709,3574,2425,1846,-7966,1745152654811527700,2
442144,188,714,3585,2496,1740,-7863,1745152654811527700,2
442336,149,717,3581,2596,1676,-7841,1745152654811527700,2
442528,118,719,3560,2710,1647,-7824,1745152654811527700,2
442720,90,719,3530,2820,1613,-7796,1745152654811527700,2
442912,68,716,3503,2958,1599,-7792,1745152654811527700,2
443104,56,710,3477,3156,1565,-7856,1745152654811527700,2
443296,46,700,3444,3334,1588,-7985,1745152654811527700,2
443488,31,688,3411,3492,1659,-8126,1745152654811527700,2
443680,7,678,3379,3633,1698,-8235,1745152654811527700,2
443872,-24,665,3352,3761,1729,-8323,1745152654854387568,2
444064,-55,653,3329,3864,1781,-8405,1745152654854387568,2
444256,-83,644,3309,3948,1911,-8411,1745152654854387568,2
444448,-106,641,3286,3999,2060,-8333,1745152654854387568,2
444640,-119,636,3256,4041,2267,-8283,1745152654854387568,2
444832,-125,625,3224,4082,2484,-8243,1745152654854387568,2
445024,-129,611,3190,4122,2658,-8179,1745152654854387568,2
445216,-132,596,3157,4141,2740,-8110,1745152654854387568,2
445408,-129,588,3125,4187,2761,-8111,1745152654854387568,2
445600,-122,573,3087,4222,2749,-8101,1745152654854387568,2
445792,-115,553,3042,4267,2721,-8102,1745152654854387568,2
445984,-107,526,2991,4283,2680,-8121,1745152654854387568,2
446176,-97,508,2939,4308,2638,-8096,1745152654912708598,2
446368,-90,487,2889,4327,2593,-8079,1745152654912708598,2
446560,-83,446,2837,4319,2543,-8079,1745152654912708598,2
446752,-85,414,2781,4267,2471,-8126,1745152654912708598,2
446944,-95,378,2722,4208,2381,-8173,1745152654912708598,2
447136,-111,362,2665,4141,2245,-8151,1745152654912708598,2
447328,-126,343,2614,4072,2125,-8125,1745152654912708598,2
447520,-139,312,2567,3980,2097,-8016,1745152654912708598,2
447712,-149,292,2526,3844,2114,-7941,1745152654912708598,2
447904,-160,277,2491,3744,2151,-7920,1745152654912708598,2
448096,-175,260,2446,3671,2169,-7903,1745152654912708598,2
448288,-198,234,2380,3575,2175,-7920,1745152654912708598,2
448480,-229,235,2303,3497,2154,-7929,1745152654949007798,2
448672,-268,232,2231,3445,2094,-7891,1745152654949007798,2
448864,-300,206,2168,3361,2106,-7763,1745152654949007798,2
449056,-327,189,2112,3300,2142,-7683,1745152654949007798,2
449248,-354,168,2052,3248,2183,-7591,1745152654949007798,2
449440,-381,148,1983,3138,2234,-7543,1745152654949007798,2
449632,-408,133,1914,2975,2293,-7567,1745152654949007798,2
449824,-434,110,1852,2834,2262,-7534,1745152654949007798,2
450016,-455,100,1789,2711,2174,-7535,1745152654949007798,2
450208,-471,103,1727,2615,2030,-7543,1745152654949007798,2
450400,-476,78,1672,2500,1909,-7474,1745152654949007798,2
450592,-477,73,1625,2361,1802,-7435,1745152654949007798,2
450784,-472,72,1578,2258,1752,-7396,1745152654991500951,2
450976,-464,70,1521,2236,1705,-7343,1745152654991500951,2
451168,-454,66,1456,2137,1660,-7312,1745152654991500951,2
451360,-436,60,1395,2054,1658,-7344,1745152654991500951,2
451552,-413,61,1346,1960,1687,-7349,1745152654991500951,2
451744,-387,68,1302,1909,1758,-7391,1745152654991500951,2
451936,-356,77,1256,1874,1874,-7451,1745152654991500951,2
452128,-321,88,1212,1880,2007,-7506,1745152654991500951,2
452320,-277,95,1169,1899,2128,-7528,1745152654991500951,2
452512,-228,96,1125,1958,2196,-7511,1745152654991500951,2
452704,-174,95,1081,1961,2225,-7552,1745152654991500951,2
452896,-120,97,1042,1968,2218,-7633,1745152654991500951,2
453088,-69,98,1004,1945,2100,-7724,1745152655034407382,2
453280,-27,96,971,1922,1920,-7756,1745152655034407382,2
453472,10,94,940,1894,1728,-7778,1745152655034407382,2
453664,35,95,908,1859,1553,-7817,1745152655034407382,2
453856,45,98,870,1836,1428,-7801,1745152655034407382,2
454048,43,100,831,1803,1320,-7754,1745152655034407382,2
454240,40,99,798,1764,1290,-7725,1745152655034407382,2
454432,41,94,767,1737,1327,-7713,1745152655034407382,2
454624,43,88,736,1693,1388,-7696,1745152655034407382,2
454816,51,84,704,1650,1458,-7691,1745152655034407382,2
455008,66,84,671,1605,1490,-7730,1745152655034407382,2
455200,83,86,640,1574,1480,-7744,1745152655034407382,2
455392,97,91,610,1550,1419,-7771,1745152655083510684,2
455584,105,95,581,1549,1364,-7839,1745152655083510684,2
455776,107,98,556,1538,1340,-7889,1745152655083510684,2
455968,102,100,530,1585,1329,-7925,1745152655083510684,2
456160,94,100,501,1615,1325,-7962,1745152655083510684,2
456352,88,98,471,1657,1224,-8007,1745152655083510684,2
456544,84,93,442,1684,1045,-8003,1745152655083510684,2
456736,86,87,420,1681,836,-7988,1745152655083510684,2
456928,89,81,404,1682,662,-7967,1745152655083510684,2
457120,88,72,390,1656,537,-7942,1745152655083510684,2
457312,67,66,374,1640,510,-7959,1745152655083510684,2
457504,34,64,355,1598,565,-7967,1745152655083510684,2
457696,-1,62,337,1571,670,-7998,1745152655128451731,2
457888,-34,61,325,1548,770,-8016,1745152655128451731,2
458080,-54,61,315,1525,876,-8038,1745152655128451731,2
458272,-60,60,308,1525,908,-8039,1745152655128451731,2
458464,-57,59,301,1516,952,-8079,1745152655128451731,2
458656,-52,60,292,1514,975,-8142,1745152655128451731,2
458848,-54,60,280,1507,993,-8179,1745152655128451731,2
459040,-61,60,265,1521,1017,-8181,1745152655128451731,2
459232,-70,59,247,1521,1018,-8181,1745152655128451731,2
459424,-79,57,227,1527,970,-8179,1745152655128451731,2
459616,-80,55,206,1543,891,-8147,1745152655128451731,2
459808,-70,50,184,1517,792,-8130,1745152655128451731,2
460000,-59,46,166,1512,682,-8142,1745152655175165732,2
460192,-56,47,148,1493,593,-8119,1745152655175165732,2
460384,-58,50,128,1481,535,-8058,1745152655175165732,2
460576,-58,51,112,1479,485,-8042,1745152655175165732,2
460768,-57,49,98,1499,492,-8085,1745152655175165732,2
460960,-59,47,87,1523,443,-8064,1745152655175165732,2
461152,-58,43,80,1544,401,-8063,1745152655175165732,2
461344,-54,38,77,1549,368,-8054,1745152655175165732,2
461536,-50,34,76,1559,377,-8040,1745152655175165732,2
461728,-50,30,71,1556,410,-8061,1745152655175165732,2
461920,-54,27,66,1534,458,-8072,1745152655175165732,2
462112,-59,23,60,1514,479,-8088,1745152655175165732,2
462304,-59,23,59,1517,519,-8141,1745152655219932510,2
462496,-55,27,60,1505,531,-8198,1745152655219932510,2
462688,-45,29,59,1509,500,-8254,1745152655219932510,2
462880,-32,31,58,1531,453,-8261,1745152655219932510,2
463072,-16,31,58,1553,364,-8275,1745152655219932510,2
463264,-5,33,57,1548,249,-8293,1745152655219932510,2
463456,-2,35,58,1527,135,-8282,1745152655219932510,2
463648,-1,37,58,1528,32,-8261,1745152655219932510,2
463840,-1,36,57,1507,2,-8237,1745152655219932510,2
464032,-5,38,51,1500,-23,-8211,1745152655219932510,2
464224,-13,41,44,1472,-27,-8164,1745152655219932510,2
464416,-21,43,39,1479,-33,-8133,1745152655219932510,2
464608,-23,46,35,1471,-38,-8120,1745152655273199315,2
464800,-23,50,34,1507,-43,-8098,1745152655273199315,2
464992,-23,54,32,1535,-24,-8112,1745152655273199315,2
465184,-24,57,26,1593,12,-8128,1745152655273199315,2
465376,-25,59,18,1657,29,-8108,1745152655273199315,2
465568,-19,56,11,1688,12,-8098,1745152655273199315,2
465760,-10,48,5,1728,-17,-8093,1745152655273199315,2
465952,1,39,2,1753,-82,-8090,1745152655273199315,2
466144,11,28,-1,1775,-117,-8069,1745152655273199315,2
466336,18,20,-6,1759,-154,-8046,1745152655273199315,2
466528,24,10,-12,1774,-180,-8036,1745152655273199315,2
466720,26,3,-19,1760,-224,-7938,1745152655273199315,2
466912,33,-8,-26,1753,-237,-8138,1745152655322931778,2
467104,31,-19,-34,1731,-243,-8118,1745152655322931778,2
467296,24,-21,-40,1682,-242,-8108,1745152655322931778,2
467488,17,-22,-44,1676,-226,-8101,1745152655322931778,2
467680,8,-24,-50,1675,-209,-8071,1745152655322931778,2
467872,-4,-23,-61,1679,-188,-8059,1745152655322931778,2
468064,-11,-23,-71,1672,-232,-8036,1745152655322931778,2
468256,-13,-23,-80,1678,-279,-7992,1745152655322931778,2
468448,-14,-22,-89,1691,-353,-7983,1745152655322931778,2
468640,-17,-22,-100,1688,-394,-7967,1745152655322931778,2
468832,-22,-22,-111,1699,-432,-7933,1745152655322931778,2
469024,-23,-25,-119,1676,-396,-7925,1745152655322931778,2
469216,-20,-27,-126,1669,-379,-7907,1745152655358687962,2
469408,-12,-29,-132,1654,-349,-7899,1745152655358687962,2
469600,-1,-28,-135,1640,-314,-7890,1745152655358687962,2
469792,14,-26,-139,1638,-274,-7916,1745152655358687962,2
469984,30,-24,-143,1656,-277,-7909,1745152655358687962,2
470176,47,-22,-144,1660,-306,-7909,1745152655358687962,2
470368,63,-21,-144,1678,-407,-7914,1745152655358687962,2
470560,76,-21,-139,1694,-490,-7918,1745152655358687962,2
470752,85,-24,-133,1684,-564,-7922,1745152655358687962,2
470944,84,-26,-129,1674,-599,-7907,1745152655358687962,2
471136,78,-26,-126,1663,-643,-7898,1745152655358687962,2
471328,70,-28,-127,1643,-645,-7869,1745152655358687962,2
471520,68,-28,-128,1610,-656,-7856,1745152655406398567,2
471712,70,-27,-126,1579,-668,-7868,1745152655406398567,2
471904,72,-23,-124,1574,-675,-7873,1745152655406398567,2
472096,69,-17,-122,1585,-643,-7878,1745152655406398567,2
472288,64,-12,-120,1611,-624,-7878,1745152655406398567,2
472480,58,-9,-119,1659,-631,-7907,1745152655406398567,2
472672,55,-7,-118,1679,-646,-7909,1745152655406398567,2
472864,57,-10,-114,1693,-657,-7915,1745152655406398567,2
473056,60,-12,-110,1694,-677,-7917,1745152655406398567,2
473248,63,-13,-110,1700,-716,-7889,1745152655406398567,2
473440,63,-13,-112,1676,-754,-7851,1745152655406398567,2
473632,65,-12,-114,1661,-775,-7827,1745152655406398567,2
473824,65,-9,-113,1646,-783,-7824,1745152655455525931,2
474016,66,-6,-111,1630,-798,-7786,1745152655455525931,2
474208,70,-4,-109,1636,-773,-7795,1745152655455525931,2
474400,74,-3,-106,1653,-746,-7827,1745152655455525931,2
474592,74,-3,-106,1672,-714,-7862,1745152655455525931,2
474784,72,-5,-107,1680,-682,-7895,1745152655455525931,2
474976,68,-5,-108,1689,-704,-7911,1745152655455525931,2
475168,65,-6,-108,1705,-756,-7931,1745152655455525931,2
475360,62,-8,-107,1723,-826,-7909,1745152655455525931,2
475552,58,-11,-105,1695,-906,-7898,1745152655455525931,2
475744,50,-13,-101,1681,-961,-7863,1745152655455525931,2
475936,41,-15,-97,1647,-984,-7860,1745152655455525931,2
476128,28,-15,-92,1637,-971,-7866,1745152655529190571,2
476320,14,-14,-91,1618,-934,-7872,1745152655529190571,2
476512,2,-10,-88,1584,-875,-7869,1745152655529190571,2
476704,1,-6,-87,1576,-837,-7882,1745152655529190571,2
476896,7,-2,-84,1569,-796,-7919,1745152655529190571,2
477088,13,0,-82,1573,-784,-7955,1745152655529190571,2
477280,16,2,-79,1614,-776,-7981,1745152655529190571,2
477472,18,2,-75,1637,-773,-7974,1745152655529190571,2
477664,16,0,-69,1661,-775,-7954,1745152655529190571,2
477856,12,-2,-64,1668,-757,-7930,1745152655529190571,2
478048,12,-6,-58,1663,-796,-7874,1745152655529190571,2
478240,17,-7,-51,1655,-846,-7831,1745152655529190571,2
478432,29,-8,-44,1652,-901,-7778,1745152655574686718,2
478624,40,-8,-37,1628,-953,-7746,1745152655574686718,2
478816,45,-6,-32,1597,-966,-7743,1745152655574686718,2
479008,47,-3,-30,1593,-980,-7770,1745152655574686718,2
479200,47,1,-27,1589,-944,-7834,1745152655574686718,2
479392,46,5,-23,1614,-910,-7889,1745152655574686718,2
479584,45,8,-19,1640,-884,-7908,1745152655574686718,2
479776,42,11,-16,1663,-898,-7932,1745152655574686718,2
479968,39,12,-12,1670,-899,-7960,1745152655574686718,2
480160,35,12,-7,1693,-885,-7983,1745152655574686718,2
480352,26,12,-3,1681,-871,-7981,1745152655574686718,2
480544,11,13,1,1666,-860,-7960,1745152655574686718,2
480736,0,15,3,1630,-843,-7917,1745152655632759520,2
480928,-2,18,3,1607,-788,-7900,1745152655632759520,2
481120,-1,22,3,1591,-728,-7893,1745152655632759520,2
481312,2,28,-2,1585,-679,-7903,1745152655632759520,2
481504,8,32,-9,1583,-667,-7906,1745152655632759520,2
481696,17,33,-17,1610,-691,-7896,1745152655632759520,2
481888,27,31,-22,1634,-745,-7885,1745152655632759520,2
482080,36,27,-22,1677,-818,-7873,1745152655632759520,2
482272,39,20,-21,1705,-878,-7861,1745152655632759520,2
482464,37,13,-21,1741,-907,-7853,1745152655632759520,2
482656,31,6,-22,1739,-912,-7827,1745152655632759520,2
482848,26,-1,-22,1735,-853,-7817,1745152655632759520,2
483040,26,-4,-21,1705,-781,-7823,1745152655693928180,2
483232,31,-5,-22,1687,-744,-7829,1745152655693928180,2
483424,44,-4,-22,1659,-701,-7832,1745152655693928180,2
483616,64,-4,-20,1622,-696,-7878,1745152655693928180,2
483808,78,-1,-19,1592,-702,-7944,1745152655693928180,2
484000,83,5,-19,1578,-748,-7969,1745152655693928180,2
484192,80,11,-17,1587,-828,-7988,1745152655693928180,2
484384,79,16,-10,1596,-868,-7996,1745152655693928180,2
484576,76,20,-2,1608,-861,-7992,1745152655693928180,2
484768,69,21,2,1607,-827,-7980,1745152655693928180,2
484960,56,23,2,1633,-847,-7943,1745152655693928180,2
485152,47,26,0,1634,-867,-7890,1745152655693928180,2
485344,44,26,2,1628,-907,-7865,1745152655747787220,2
485536,42,26,6,1621,-915,-7871,1745152655747787220,2
485728,35,28,9,1627,-904,-7880,1745152655747787220,2
485920,26,30,11,1642,-887,-7871,1745152655747787220,2
486112,18,31,13,1687,-858,-7853,1745152655747787220,2
486304,9,29,15,1721,-808,-7856,1745152655747787220,2
486496,-2,27,15,1730,-738,-7847,1745152655747787220,2
486688,-11,24,15,1761,-688,-7819,1745152655747787220,2
486880,-13,20,15,1766,-690,-7809,1745152655747787220,2
487072,-8,15,16,1796,-712,-7800,1745152655747787220,2
487264,2,10,17,1765,-758,-7822,1745152655747787220,2
487456,10,6,19,1744,-781,-7845,1745152655747787220,2
487648,17,4,21,1713,-779,-7877,1745152655808130575,2
487840,18,3,19,1663,-710,-7910,1745152655808130575,2
488032,14,5,16,1632,-666,-7904,1745152655808130575,2
488224,11,10,12,1618,-628,-7893,1745152655808130575,2
488416,14,16,10,1615,-618,-7868,1745152655808130575,2
488608,22,20,10,1625,-613,-7860,1745152655808130575,2
488800,28,24,11,1653,-645,-7882,1745152655808130575,2
488992,28,28,10,1684,-707,-7881,1745152655808130575,2
489184,21,30,10,1702,-784,-7866,1745152655808130575,2
489376,16,29,12,1714,-853,-7870,1745152655808130575,2
489568,11,28,17,1711,-860,-7878,1745152655808130575,2
489760,3,26,20,1693,-796,-7894,1745152655808130575,2
489952,-11,26,18,1681,-708,-7891,1745152655875125588,2
490144,-21,28,16,1676,-653,-7826,1745152655875125588,2
490336,-21,29,14,1665,-645,-7802,1745152655875125588,2
490528,-11,29,15,1673,-669,-7791,1745152655875125588,2
490720,-1,30,17,1667,-681,-7808,1745152655875125588,2
490912,7,30,21,1699,-703,-7848,1745152655875125588,2
491104,10,29,25,1724,-704,-7894,1745152655875125588,2
491296,11,25,26,1724,-702,-7933,1745152655875125588,2
491488,11,22,26,1739,-689,-7951,1745152655875125588,2
491680,10,18,27,1730,-655,-7971,1745152655875125588,2
491872,9,16,27,1715,-629,-7984,1745152655875125588,2
492064,5,15,23,1678,-610,-7946,1745152655875125588,2
492256,4,18,19,1635,-643,-7913,1745152655919037687,2
492448,11,21,16,1621,-646,-7896,1745152655919037687,2
492640,17,25,14,1618,-620,-7905,1745152655919037687,2
492832,16,29,10,1626,-608,-7927,1745152655919037687,2
493024,11,32,5,1645,-637,-7901,1745152655919037687,2
493216,9,33,4,1674,-662,-7894,1745152655919037687,2
493408,12,32,4,1686,-680,-7899,1745152655919037687,2
493600,12,28,5,1716,-704,-7910,1745152655919037687,2
493792,9,26,6,1708,-694,-7922,1745152655919037687,2
493984,3,24,8,1720,-665,-7911,1745152655919037687,2
494176,0,23,10,1703,-610,-7900,1745152655919037687,2
494368,-1,21,9,1694,-557,-7945,1745152655919037687,2
494560,-4,23,8,1692,-511,-7939,1745152655981508053,2
494752,0,22,7,1697,-523,-7942,1745152655981508053,2
494944,6,22,7,1702,-554,-7944,1745152655981508053,2
495136,11,22,8,1706,-580,-7946,1745152655981508053,2
495328,9,21,7,1702,-612,-7956,1745152655981508053,2
495520,3,21,2,1701,-614,-7956,1745152655981508053,2
495712,-1,20,-1,1699,-602,-7933,1745152655981508053,2
495904,-2,18,-6,1692,-582,-7948,1745152655981508053,2
496096,-2,18,-11,1688,-526,-7946,1745152655981508053,2
496288,-1,20,-17,1680,-508,-7930,1745152655981508053,2
496480,3,21,-24,1647,-525,-7901,1745152655981508053,2
496672,13,21,-27,1653,-560,-7884,1745152655981508053,2
496864,26,22,-27,1643,-617,-7914,1745152656042073177,2
497056,36,22,-24,1653,-639,-7948,1745152656042073177,2
497248,40,23,-20,1665,-626,-7989,1745152656042073177,2
497440,37,25,-19,1680,-594,-7996,1745152656042073177,2
497632,34,25,-18,1700,-562,-7996,1745152656042073177,2
497824,33,26,-17,1705,-528,-7977,1745152656042073177,2
498016,34,24,-16,1716,-546,-7920,1745152656042073177,2
498208,40,22,-14,1733,-595,-7866,1745152656042073177,2
498400,48,20,-10,1729,-669,-7848,1745152656042073177,2
498592,53,18,-6,1711,-700,-7877,1745152656042073177,2
498784,50,16,-4,1701,-718,-7900,1745152656042073177,2
498976,43,16,-3,1692,-724,-7924,1745152656042073177,2
499168,35,15,-3,1676,-703,-7924,1745152656093026618,2
499360,28,16,-3,1670,-694,-7926,1745152656093026618,2
499552,25,17,-3,1670,-688,-7926,1745152656093026618,2
499744,20,19,-1,1689,-688,-7964,1745152656093026618,2
499936,12,20,-1,1697,-694,-7998,1745152656093026618,2
500128,1,21,-1,1710,-701,-8021,1745152656093026618,2
500320,-10,21,0,1714,-701,-8029,1745152656093026618,2
500512,-21,22,0,1728,-700,-8021,1745152656093026618,2
500704,-29,21,1,1739,-674,-8008,1745152656093026618,2
500896,-33,18,-1,1733,-639,-8024,1745152656093026618,2
501088,-39,17,-5,1737,-585,-7981,1745152656093026618,2
501280,-41,16,-10,1711,-558,-7931,1745152656093026618,2
501472,-34,14,-15,1700,-556,-7896,1745152656152759562,2
501664,-19,13,-18,1688,-577,-7879,1745152656152759562,2
501856,-2,12,-21,1675,-611,-7871,1745152656152759562,2
502048,8,13,-24,1674,-644,-7896,1745152656152759562,2
502240,15,14,-26,1693,-659,-7923,1745152656152759562,2
502432,17,13,-27,1713,-662,-7920,1745152656152759562,2
502624,18,10,-29,1732,-656,-7942,1745152656152759562,2
502816,22,6,-27,1729,-690,-7974,1745152656152759562,2
503008,25,4,-25,1732,-670,-8001,1745152656152759562,2
503200,25,2,-23,1721,-675,-7992,1745152656152759562,2
503392,21,2,-23,1714,-652,-7962,1745152656152759562,2
503584,17,2,-25,1706,-620,-7912,1745152656152759562,2
503776,15,1,-28,1701,-606,-7908,1745152656211937928,2
503968,15,1,-31,1678,-584,-7887,1745152656211937928,2
504160,14,3,-35,1683,-626,-7861,1745152656211937928,2
504352,19,7,-36,1694,-713,-7828,1745152656211937928,2
504544,30,9,-34,1714,-795,-7832,1745152656211937928,2
504736,40,9,-31,1700,-782,-7893,1745152656211937928,2
504928,36,11,-30,1716,-716,-7924,1745152656211937928,2
505120,24,12,-33,1730,-656,-7926,1745152656211937928,2
505312,14,14,-36,1731,-626,-7898,1745152656211937928,2
505504,13,15,-36,1739,-641,-7884,1745152656211937928,2
505696,20,14,-33,1746,-686,-7894,1745152656211937928,2
505888,24,14,-31,1745,-713,-7903,1745152656211937928,2
506080,21,15,-30,1728,-731,-7897,1745152656290511897,2
506272,12,18,-31,1735,-705,-7921,1745152656290511897,2
506464,-3,20,-33,1735,-667,-7931,1745152656290511897,2
506656,-20,22,-39,1734,-618,-7915,1745152656290511897,2
506848,-34,23,-44,1724,-578,-7891,1745152656290511897,2
507040,-40,23,-50,1738,-565,-7858,1745152656290511897,2
507232,-34,21,-55,1741,-562,-7834,1745152656290511897,2
507424,-20,16,-60,1736,-539,-7863,1745152656290511897,2
507616,-11,12,-69,1741,-502,-7890,1745152656290511897,2
507808,-10,9,-81,1729,-459,-7893,1745152656290511897,2
508000,-6,7,-92,1721,-466,-7858,1745152656290511897,2
508192,4,4,-99,1726,-523,-7848,1745152656290511897,2
508384,20,2,-101,1724,-583,-7845,1745152656328731548,2
508576,40,0,-100,1738,-632,-7883,1745152656328731548,2
508768,56,-3,-100,1738,-657,-7957,1745152656328731548,2
508960,60,-5,-104,1734,-642,-8010,1745152656328731548,2
509152,54,-5,-110,1747,-605,-8028,1745152656328731548,2
509344,51,-4,-113,1715,-634,-7987,1745152656328731548,2
509536,57,-4,-113,1712,-689,-7935,1745152656328731548,2
509728,71,-4,-110,1710,-774,-7910,1745152656328731548,2
509920,83,-5,-104,1696,-845,-7934,1745152656328731548,2
510112,85,-4,-101,1675,-846,-7959,1745152656328731548,2
510304,77,-2,-101,1671,-843,-7963,1745152656328731548,2
510496,65,0,-101,1687,-811,-7967,1745152656328731548,2
510688,53,3,-100,1713,-828,-7913,1745152656382875689,2
510880,46,7,-97,1735,-892,-7885,1745152656382875689,2
511072,48,7,-90,1765,-947,-7859,1745152656382875689,2
511264,43,6,-83,1777,-971,-7847,1745152656382875689,2
511456,33,3,-81,1794,-934,-7864,1745152656382875689,2
511648,17,0,-80,1792,-856,-7884,1745152656382875689,2
511840,-2,-2,-83,1801,-783,-7889,1745152656382875689,2
512032,-16,-3,-84,1787,-704,-7887,1745152656382875689,2
512224,-23,-2,-86,1788,-672,-7861,1745152656382875689,2
512416,-21,-2,-88,1782,-666,-7845,1745152656382875689,2
512608,-13,-4,-92,1758,-648,-7852,1745152656382875689,2
512800,-9,-5,-100,1753,-606,-7886,1745152656382875689,2
512992,-11,-3,-109,1739,-538,-7912,1745152656455490859,2
513184,-14,-1,-119,1747,-431,-7909,1745152656455490859,2
513376,-12,1,-132,1761,-346,-7923,1745152656455490859,2
513568,-7,1,-146,1774,-297,-7907,1745152656455490859,2
513760,1,-1,-161,1801,-290,-7906,1745152656455490859,2
513952,12,-5,-177,1820,-338,-7899,1745152656455490859,2
514144,22,-10,-193,1829,-330,-7904,1745152656455490859,2
514336,28,-15,-209,1825,-329,-7926,1745152656455490859,2
514528,30,-19,-225,1818,-237,-7969,1745152656455490859,2
514720,27,-23,-244,1818,-136,-8025,1745152656455490859,2
514912,23,-28,-266,1821,-10,-8042,1745152656455490859,2
515104,16,-31,-290,1838,109,-8056,1745152656455490859,2
515296,11,-38,-317,1852,241,-8108,1745152656496201008,2
515488,8,-45,-346,1883,374,-8196,1745152656496201008,2
515680,5,-55,-376,1923,534,-8314,1745152656496201008,2
515872,0,-64,-411,1958,734,-8438,1745152656496201008,2
516064,-11,-72,-450,2009,970,-8484,1745152656496201008,2
516256,-26,-84,-495,2087,1182,-8518,1745152656496201008,2
516448,-43,-97,-549,2160,1423,-8589,1745152656496201008,2
516640,-58,-116,-611,2239,1660,-8695,1745152656496201008,2
516832,-77,-134,-678,2330,1943,-8805,1745152656496201008,2
517024,-97,-155,-750,2420,2250,-8913,1745152656496201008,2
517216,-122,-177,-829,2543,2548,-8923,1745152656496201008,2
517408,-148,-201,-918,2659,2824,-8850,1745152656496201008,2
517600,-175,-229,-1010,2782,3022,-8732,1745152656557589978,2
517792,-200,-258,-1105,2866,3167,-8637,1745152656557589978,2
517984,-225,-288,-1201,2944,3269,-8543,1745152656557589978,2
518176,-253,-315,-1299,3000,3360,-8409,1745152656557589978,2
518368,-286,-335,-1398,3057,3390,-8270,1745152656557589978,2
518560,-321,-360,-1499,3106,3357,-8143,1745152656557589978,2
518752,-352,-357,-1601,3191,3386,-8067,1745152656557589978,2
518944,-380,-348,-1698,3276,3445,-7973,1745152656557589978,2
519136,-396,-359,-1796,3389,3509,-7867,1745152656557589978,2
519328,-393,-364,-1894,3476,3625,-7745,1745152656557589978,2
519520,-366,-361,-1993,3561,3764,-7660,1745152656557589978,2
519712,-324,-356,-2090,3694,3855,-7536,1745152656557589978,2
519904,-270,-356,-2188,3801,3872,-7348,1745152656614811122,2
520096,-209,-363,-2290,3896,3879,-7198,1745152656614811122,2
520288,-140,-374,-2390,3957,3869,-7157,1745152656614811122,2
