timestamp,gyr_x,gyr_y,gyr_z,acc_x,acc_y,acc_z,pkt_time_ns
210017,144,-79,-306,4084,-1887,-8417,1745186944464415035
210209,-38,36,-337,4349,-1160,-8980,1745186944464415035
210401,1,16,-371,3982,-670,-9301,1745186944464415035
210593,-75,-19,-370,3541,-483,-9297,1745186944464415035
210785,-126,-20,-351,3034,-414,-8914,1745186944464415035
210977,-29,-36,-353,2689,-175,-9051,1745186944464415035
211169,-88,-76,-322,2688,28,-8881,1745186944464415035
211361,-106,-114,-249,2706,-229,-8561,1745186944464415035
211553,-84,-150,-186,2708,-392,-8567,1745186944464415035
211745,-129,-181,-162,2731,-519,-8498,1745186944464415035
211937,-156,-222,-178,2592,-428,-8326,1745186944464415035
212129,-147,-277,-179,2654,-104,-8256,1745186944464415035
212321,-135,-321,-160,2620,22,-8247,1745186944517707465
212513,-133,-345,-150,2351,109,-8196,1745186944517707465
212705,-121,-367,-152,2066,57,-8325,1745186944517707465
212897,-117,-364,-156,1756,-22,-8433,1745186944517707465
213089,-95,-368,-154,1552,145,-8519,1745186944517707465
213281,-45,-361,-144,1512,641,-8710,1745186944517707465
213473,16,-348,-115,1418,1227,-8876,1745186944517707465
213665,81,-323,-87,1292,1301,-8992,1745186944517707465
213857,127,-303,-79,1053,982,-9025,1745186944517707465
214049,186,-264,-82,658,924,-8983,1745186944517707465
214241,178,-225,-91,270,-109,-9016,1745186944517707465
214433,324,-190,-69,563,1925,-8347,1745186944517707465
214625,343,-184,0,-457,-189,-8303,1745186944576257503
214817,152,-16,1,-2220,-2933,-7694,1745186944576257503
215009,60,158,-48,-2650,-2908,-7144,1745186944576257503
215201,-1,202,-14,-1593,-2333,-7437,1745186944576257503
215393,-214,273,91,-318,-1641,-7579,1745186944576257503
215585,-406,254,183,851,-1013,-7612,1745186944576257503
215777,-557,238,232,1850,-301,-7609,1745186944576257503
215969,-666,230,209,2689,272,-7588,1745186944576257503
216161,-629,184,139,3103,705,-7541,1745186944576257503
216353,-532,116,69,3249,1198,-7529,1745186944576257503
216545,-447,45,13,3105,1435,-7473,1745186944576257503
216737,-339,-19,-12,2709,1425,-7464,1745186944576257503
216929,-217,-64,-12,2237,1305,-7504,1745186944636477421
217121,-105,-80,-8,1798,1063,-7560,1745186944636477421
217313,-7,-70,-9,1460,801,-7551,1745186944636477421
217505,69,-47,-10,1309,547,-7567,1745186944636477421
217697,121,-21,-6,1322,344,-7580,1745186944636477421
217889,154,0,-1,1447,169,-7612,1745186944636477421
218081,172,13,0,1576,68,-7628,1745186944636477421
218273,184,16,0,1734,18,-7668,1745186944636477421
218465,190,11,-5,1829,10,-7732,1745186944636477421
218657,188,1,-16,1899,-37,-7723,1745186944636477421
218849,186,-11,-30,1858,-58,-7553,1745186944636477421
219041,192,-20,-41,1800,-109,-7655,1745186944636477421
219233,200,-25,-51,1764,-126,-7758,1745186944692988936
219425,201,-29,-59,1737,-102,-7770,1745186944692988936
219617,197,-33,-66,1683,-83,-7803,1745186944692988936
219809,193,-37,-67,1643,-69,-7900,1745186944692988936
220001,192,-37,-67,1629,-84,-7947,1745186944692988936
220193,194,-34,-65,1614,-68,-7996,1745186944692988936
220385,186,-30,-59,1618,-85,-8115,1745186944692988936
220577,186,-29,-58,1628,-98,-8112,1745186944692988936
220769,195,-30,-67,1578,-84,-8183,1745186944692988936
220961,197,-30,-79,1511,-105,-8258,1745186944692988936
221153,190,-26,-84,1435,-167,-8303,1745186944692988936
221345,182,-20,-79,1370,-206,-8312,1745186944692988936
221537,171,-12,-73,1313,-256,-8272,1745186944753174532
221729,155,-2,-67,1301,-292,-8233,1745186944753174532
221921,132,6,-58,1306,-311,-8207,1745186944753174532
222113,106,13,-47,1335,-305,-8179,1745186944753174532
222305,79,19,-35,1397,-313,-8139,1745186944753174532
222497,55,23,-27,1464,-279,-8119,1745186944753174532
222689,36,28,-24,1521,-290,-8084,1745186944753174532
222881,22,31,-24,1569,-246,-8064,1745186944753174532
223073,14,33,-26,1617,-176,-8046,1745186944753174532
223265,7,36,-27,1647,-108,-8020,1745186944753174532
223457,3,38,-28,1679,-28,-8010,1745186944753174532
223649,4,41,-29,1702,10,-8018,1745186944753174532
223841,8,43,-30,1721,30,-8028,1745186944825639131
224033,18,44,-33,1729,38,-7988,1745186944825639131
224225,32,46,-34,1725,61,-7979,1745186944825639131
224417,47,49,-35,1703,37,-7949,1745186944825639131
224609,62,50,-36,1715,-20,-7914,1745186944825639131
224801,74,51,-37,1704,-97,-7885,1745186944825639131
224993,84,52,-36,1678,-189,-7868,1745186944825639131
225185,90,53,-34,1681,-225,-7895,1745186944825639131
225377,89,55,-34,1678,-249,-7934,1745186944825639131
225569,84,57,-34,1678,-229,-7951,1745186944825639131
225761,80,57,-36,1692,-226,-7958,1745186944825639131
225953,78,55,-35,1703,-231,-7948,1745186944825639131
226145,75,52,-34,1705,-232,-7945,1745186944872707034
226337,70,48,-32,1708,-232,-7947,1745186944872707034
226529,63,46,-29,1685,-223,-7960,1745186944872707034
226721,58,42,-26,1692,-223,-7944,1745186944872707034
226913,53,41,-25,1666,-193,-7892,1745186944872707034
227105,52,42,-25,1675,-176,-7839,1745186944872707034
227297,53,44,-27,1688,-138,-7887,1745186944872707034
227489,54,47,-31,1699,-82,-7885,1745186944872707034
227681,60,50,-36,1700,-58,-7885,1745186944872707034
227873,74,52,-36,1687,-43,-7734,1745186944872707034
228065,99,62,-35,1683,-46,-7668,1745186944872707034
228257,127,69,-35,1709,-16,-7798,1745186944872707034
228449,152,80,-38,1736,-1,-7875,1745186944930526975
228641,176,86,-45,1756,21,-7836,1745186944930526975
228833,196,97,-52,1757,-2,-7882,1745186944930526975
229025,214,104,-51,1766,-88,-7854,1745186944930526975
229217,234,108,-50,1720,-303,-7963,1745186944930526975
229409,161,114,-42,1732,-494,-7831,1745186944930526975
229601,145,115,-40,1723,-596,-8078,1745186944930526975
229793,151,126,-20,1774,-660,-8242,1745186944930526975
229985,117,134,-13,1848,-661,-8346,1745186944930526975
230177,97,109,-34,1781,-665,-8381,1745186944930526975
230369,76,115,-49,1755,-652,-8385,1745186944930526975
230561,49,118,-57,1742,-629,-8373,1745186944930526975
230753,32,114,-59,1714,-566,-8306,1745186944985084237
230945,20,121,-46,1736,-554,-8292,1745186944985084237
231137,-7,118,-42,1759,-529,-8241,1745186944985084237
231329,-25,111,-32,1803,-525,-8204,1745186944985084237
231521,-46,101,-27,1839,-517,-8144,1745186944985084237
231713,-62,89,-25,1844,-469,-8065,1745186944985084237
231905,-63,85,-17,1882,-395,-8012,1745186944985084237
232097,-66,86,-9,1948,-302,-7951,1745186944985084237
232289,-70,73,-10,1965,-215,-7820,1745186944985084237
232481,-67,63,-11,1967,-142,-7756,1745186944985084237
232673,-63,58,-10,1978,-113,-7759,1745186944985084237
232865,-64,48,-11,1965,-136,-7727,1745186944985084237
233057,-55,32,-11,1953,-218,-7702,1745186945045917483
233249,-52,27,-16,1899,-226,-7700,1745186945045917483
233441,-47,20,-15,1847,-212,-7669,1745186945045917483
233633,-35,20,-12,1792,-213,-7697,1745186945045917483
233825,-27,28,-8,1820,-194,-7748,1745186945045917483
234017,-35,23,-26,1792,-181,-7784,1745186945045917483
234209,-35,19,-33,1787,-190,-7828,1745186945045917483
234401,-24,22,-38,1765,-181,-7877,1745186945045917483
234593,-18,27,-40,1771,-181,-7932,1745186945045917483
234785,-11,30,-42,1747,-216,-7946,1745186945045917483
234977,4,36,-41,1721,-200,-7993,1745186945045917483
235169,15,47,-38,1752,-191,-8013,1745186945045917483
235361,13,52,-44,1735,-200,-8063,1745186945102382019
235553,8,48,-54,1716,-219,-8119,1745186945102382019
235745,3,52,-58,1709,-265,-8253,1745186945102382019
235937,-16,66,-63,1689,-378,-8350,1745186945102382019
236129,-39,68,-70,1658,-571,-8382,1745186945102382019
236321,-68,78,-75,1636,-887,-8509,1745186945102382019
236513,-109,97,-80,1682,-1187,-8732,1745186945102382019
236705,-165,113,-87,1792,-1387,-8910,1745186945102382019
236897,-238,129,-97,1938,-1531,-9002,1745186945102382019
237089,-327,141,-113,2030,-1691,-9081,1745186945102382019
237281,-409,159,-113,2216,-1958,-9327,1745186945102382019
237473,-507,173,-113,2461,-2236,-9624,1745186945102382019
237665,-630,169,-115,2806,-2622,-9915,1745186945163667293
237857,-800,147,-136,3147,-3059,-10175,1745186945163667293
238049,-975,97,-170,3481,-3417,-10479,1745186945163667293
238241,-1172,57,-193,3748,-3395,-10762,1745186945163667293
238433,-1428,33,-202,4074,-2939,-10889,1745186945163667293
238625,-1656,-8,-233,4407,-2054,-11009,1745186945163667293
238817,-1805,-4,-213,4779,-790,-10817,1745186945163667293
239009,-1962,100,-85,5273,444,-10829,1745186945163667293
239201,-2119,173,48,5587,1828,-10794,1745186945163667293
239393,-2301,147,-12,5806,2672,-10753,1745186945163667293
239585,-2164,10,-236,5748,3082,-10786,1745186945163667293
239777,-1827,-126,-449,5555,3436,-10759,1745186945163667293
239969,-1427,-134,-551,5419,3768,-10824,1745186945231398289
240161,-1037,-80,-586,5432,4028,-10908,1745186945231398289
240353,-642,-36,-599,5592,4141,-11032,1745186945231398289
240545,-245,-19,-609,5811,4134,-11052,1745186945231398289
240737,147,-25,-632,6062,3928,-11010,1745186945231398289
240929,522,-46,-681,6317,3614,-10896,1745186945231398289
241121,858,-68,-752,6470,3293,-10717,1745186945231398289
241313,1129,-79,-841,6571,2998,-10483,1745186945231398289
241505,1325,-94,-935,6598,2718,-10223,1745186945231398289
241697,1456,-102,-1014,6638,2408,-10102,1745186945231398289
241889,1533,-120,-1067,6634,2056,-9941,1745186945231398289
242081,1567,-133,-1090,6658,1673,-9673,1745186945231398289
242273,1554,-142,-1085,6674,1348,-9399,1745186945280850233
242465,1494,-145,-1059,6719,959,-9118,1745186945280850233
242657,1390,-144,-1015,6804,532,-8857,1745186945280850233
242849,1249,-142,-958,6905,85,-8572,1745186945280850233
243041,1083,-142,-896,6968,-285,-8277,1745186945280850233
243233,912,-148,-835,7068,-482,-8005,1745186945280850233
243425,756,-157,-786,7181,-499,-7865,1745186945280850233
243617,624,-154,-754,7262,-341,-7756,1745186945280850233
243809,515,-151,-739,7313,-198,-7779,1745186945280850233
244001,446,-156,-716,7395,-54,-7677,1745186945280850233
244193,432,-153,-671,7461,130,-7450,1745186945280850233
244385,458,-146,-618,7539,223,-7392,1745186945280850233
244577,498,-154,-574,7647,188,-7270,1745186945335554785
244769,533,-180,-535,7668,34,-7144,1745186945335554785
244961,579,-213,-478,7654,-276,-7080,1745186945335554785
245153,660,-273,-388,7559,-673,-7179,1745186945335554785
245345,780,-360,-283,7421,-1079,-7316,1745186945335554785
245537,921,-444,-192,7178,-1326,-7477,1745186945335554785
245729,1036,-505,-133,6890,-1574,-7741,1745186945335554785
245921,1103,-535,-98,6616,-1749,-7995,1745186945335554785
246113,1123,-546,-69,6363,-1927,-8102,1745186945335554785
246305,1107,-541,-26,6110,-2119,-8116,1745186945335554785
246497,1069,-532,45,5897,-2325,-8086,1745186945335554785
246689,1018,-523,134,5702,-2537,-8098,1745186945335554785
246881,959,-510,231,5524,-2682,-8037,1745186945395604758
247073,900,-503,331,5399,-2826,-7952,1745186945395604758
247265,840,-498,442,5296,-2953,-7873,1745186945395604758
247457,775,-498,560,5189,-3030,-7734,1745186945395604758
247649,704,-505,678,5072,-3145,-7569,1745186945395604758
247841,627,-513,799,4922,-3260,-7420,1745186945395604758
248033,544,-521,933,4770,-3417,-7165,1745186945395604758
248225,473,-530,1077,4601,-3555,-6936,1745186945395604758
248417,425,-536,1224,4433,-3677,-6731,1745186945395604758
248609,403,-539,1372,4228,-3747,-6564,1745186945395604758
248801,391,-547,1519,4016,-3759,-6395,1745186945395604758
248993,379,-555,1663,3834,-3787,-6251,1745186945395604758
249185,359,-553,1806,3604,-3859,-6105,1745186945452689340
249377,323,-542,1949,3410,-3978,-6000,1745186945452689340
249569,268,-525,2090,3230,-4142,-5954,1745186945452689340
249761,200,-507,2231,3101,-4285,-5949,1745186945452689340
249953,128,-491,2372,2958,-4394,-5923,1745186945452689340
250145,59,-480,2515,2856,-4463,-5913,1745186945452689340
250337,1,-473,2645,2770,-4444,-5907,1745186945452689340
250529,-50,-471,2762,2689,-4343,-5898,1745186945452689340
250721,-100,-465,2872,2553,-4193,-5873,1745186945452689340
250913,-143,-457,2971,2393,-3995,-5864,1745186945452689340
251105,-182,-442,3062,2238,-3760,-5884,1745186945452689340
251297,-216,-417,3149,2119,-3453,-5929,1745186945452689340
251489,-238,-386,3239,2022,-3111,-5913,1745186945513894250
251681,-237,-349,3336,1952,-2752,-5896,1745186945513894250
251873,-217,-309,3436,1916,-2439,-5848,1745186945513894250
252065,-186,-276,3538,1901,-2177,-5838,1745186945513894250
252257,-151,-251,3639,1909,-1999,-5819,1745186945513894250
252449,-113,-233,3739,1929,-1875,-5815,1745186945513894250
252641,-67,-217,3839,1962,-1821,-5839,1745186945513894250
252833,-11,-201,3942,2007,-1814,-5921,1745186945513894250
253025,44,-182,4044,2017,-1834,-6045,1745186945513894250
253217,88,-164,4141,2064,-1896,-6152,1745186945513894250
253409,115,-150,4231,2084,-1942,-6200,1745186945513894250
253601,117,-143,4313,2077,-1989,-6258,1745186945513894250
253793,97,-123,4391,2056,-2000,-6326,1745186945569192599
253985,65,-115,4471,2014,-1999,-6345,1745186945569192599
254177,22,-122,4550,1954,-2031,-6369,1745186945569192599
254369,-36,-124,4625,1898,-2118,-6336,1745186945569192599
254561,-98,-102,4692,1806,-2228,-6212,1745186945569192599
254753,-154,-78,4751,1757,-2321,-6048,1745186945569192599
254945,-211,-52,4801,1704,-2374,-5905,1745186945569192599
255137,-282,-19,4847,1709,-2411,-5752,1745186945569192599
255329,-360,13,4889,1728,-2451,-5509,1745186945569192599
255521,-442,37,4931,1753,-2468,-5286,1745186945569192599
255713,-529,59,4976,1814,-2366,-5137,1745186945569192599
255905,-630,89,5020,1893,-2129,-5022,1745186945569192599
256097,-743,130,5061,2020,-1810,-4922,1745186945638980243
256289,-854,177,5097,2178,-1439,-4929,1745186945638980243
256481,-952,218,5129,2361,-1068,-5000,1745186945638980243
256673,-1020,248,5155,2555,-711,-4998,1745186945638980243
256865,-1056,265,5179,2765,-345,-5000,1745186945638980243
257057,-1060,271,5201,2951,-10,-5019,1745186945638980243
257249,-1048,277,5221,3147,318,-5039,1745186945638980243
257441,-1018,284,5247,3362,548,-5137,1745186945638980243
257633,-1006,274,5274,3614,724,-5307,1745186945638980243
257825,-999,252,5303,3841,804,-5407,1745186945638980243
258017,-1004,227,5337,4030,825,-5447,1745186945638980243
258209,-1013,192,5381,4230,902,-5548,1745186945638980243
258401,-1033,159,5431,4427,1085,-5565,1745186945685781117
258593,-1077,132,5485,4641,1361,-5526,1745186945685781117
258785,-1139,118,5547,4901,1809,-5631,1745186945685781117
258977,-1207,126,5616,5189,2342,-5693,1745186945685781117
259169,-1260,148,5689,5490,2828,-5793,1745186945685781117
259361,-1269,158,5766,5893,3235,-5851,1745186945685781117
259553,-1216,155,5844,6350,3553,-5782,1745186945685781117
259745,-1115,146,5924,6844,3750,-5638,1745186945685781117
259937,-1012,143,6019,7364,3783,-5625,1745186945685781117
260129,-927,170,6140,8002,3654,-5800,1745186945685781117
260321,-882,154,6261,8580,3329,-6014,1745186945685781117
260513,-883,80,6350,9105,2804,-6137,1745186945685781117
260705,-927,-28,6389,9488,2345,-6184,1745186945744574747
260897,-1010,-159,6370,9755,1904,-6219,1745186945744574747
261089,-1116,-254,6316,9953,1652,-6176,1745186945744574747
261281,-1262,-309,6228,10108,1559,-6172,1745186945744574747
261473,-1441,-335,6097,10247,1612,-6109,1745186945744574747
261665,-1636,-354,5930,10396,1871,-6022,1745186945744574747
261857,-1848,-360,5747,10457,2318,-5813,1745186945744574747
262049,-2062,-376,5575,10587,2833,-5503,1745186945744574747
262241,-2245,-381,5416,10682,3641,-5072,1745186945744574747
262433,-2399,-388,5244,10849,4767,-4699,1745186945744574747
262625,-2527,-447,5014,11031,6191,-4385,1745186945744574747
262817,-2626,-557,4730,11113,7903,-4572,1745186945744574747
263009,-2691,-716,4440,11059,9795,-5205,1745186945804862477
263201,-2713,-898,4202,10880,11998,-5715,1745186945804862477
263393,-2672,-1107,3968,10096,15383,-7782,1745186945804862477
263585,-3301,-1427,3791,9060,16101,-3565,1745186945804862477
263777,-2380,-1622,3535,8708,18895,-5581,1745186945804862477
263969,-1950,-1857,3318,6547,19451,-3948,1745186945804862477
264161,-1538,-2006,3079,4380,19138,-4214,1745186945804862477
264353,-1130,-1984,2815,1767,17503,-4960,1745186945804862477
264545,-692,-1771,2550,-600,14458,-5312,1745186945804862477
264737,-179,-1388,2253,-2385,10639,-5735,1745186945804862477
264929,348,-905,1899,-2894,6812,-6056,1745186945804862477
265121,763,-459,1488,-4888,3460,-6212,1745186945804862477
265313,972,-101,1052,-3704,1017,-6334,1745186945860856185
265505,1009,258,687,-2748,-451,-6226,1745186945860856185
265697,863,516,416,-1604,-718,-7520,1745186945860856185
265889,435,711,195,-282,-324,-7320,1745186945860856185
266081,66,804,17,611,1025,-7587,1745186945860856185
266273,-300,826,-116,1194,2988,-7636,1745186945860856185
266465,-649,796,-213,1501,5206,-7727,1745186945860856185
266657,-952,740,-276,1596,7346,-7763,1745186945860856185
266849,-1175,653,-278,1630,9100,-7875,1745186945860856185
267041,-1274,550,-191,1664,10089,-7785,1745186945860856185
267233,-1208,437,-25,1633,10190,-7316,1745186945860856185
267425,-974,292,180,1562,9574,-6760,1745186945860856185
267617,-629,155,389,1306,8419,-6667,1745186945921189748
267809,-275,1,580,896,6920,-6413,1745186945921189748
268001,32,-116,731,342,5372,-6559,1745186945921189748
268193,252,-182,840,-302,3976,-6928,1745186945921189748
268385,368,-203,927,-846,2703,-7371,1745186945921189748
268577,402,-184,1006,-1190,1719,-7861,1745186945921189748
268769,364,-136,1077,-1250,1139,-8138,1745186945921189748
268961,253,-88,1127,-1042,1067,-8197,1745186945921189748
269153,86,-58,1150,-635,1491,-8161,1745186945921189748
269345,-107,-47,1141,-200,2370,-8027,1745186945921189748
269537,-274,-63,1117,199,3527,-7785,1745186945921189748
269729,-366,-99,1088,464,4758,-7526,1745186945921189748
269921,-367,-146,1052,567,5831,-7227,1745186945994933606
270113,-291,-195,1008,503,6522,-6922,1745186945994933606
270305,-152,-232,953,329,6790,-6737,1745186945994933606
270497,12,-253,884,59,6797,-6664,1745186945994933606
270689,162,-253,815,-205,6557,-6739,1745186945994933606
270881,274,-222,751,-429,6065,-6916,1745186945994933606
271073,346,-164,690,-509,5376,-7177,1745186945994933606
271265,385,-98,618,-429,4734,-7521,1745186945994933606
271457,377,-36,532,-305,4363,-7793,1745186945994933606
271649,325,10,452,-173,4268,-7993,1745186945994933606
271841,249,39,393,-11,4383,-8084,1745186945994933606
272033,173,49,356,156,4612,-8090,1745186945994933606
272225,116,50,334,311,4857,-8064,1745186946036921243
272417,84,46,319,396,5128,-8124,1745186946036921243
272609,70,38,304,430,5347,-8113,1745186946036921243
272801,61,22,288,379,5503,-8116,1745186946036921243
272993,53,6,277,271,5594,-8104,1745186946036921243
273185,40,-2,266,137,5612,-8111,1745186946036921243
273377,20,-6,250,41,5614,-8081,1745186946036921243
273569,-9,-3,227,-55,5657,-8061,1745186946036921243
273761,-44,7,197,-82,5805,-7993,1745186946036921243
273953,-80,18,168,-85,5985,-7949,1745186946036921243
274145,-110,29,138,-17,6113,-7932,1745186946036921243
274337,-121,37,108,95,6124,-7818,1745186946036921243
274529,-109,36,76,143,6159,-7692,1745186946094596133
274721,-90,25,41,169,6233,-7643,1745186946094596133
274913,-75,7,5,114,6402,-7632,1745186946094596133
275105,-65,-9,-30,-22,6601,-7657,1745186946094596133
275297,-45,-20,-57,-161,6811,-7701,1745186946094596133
275489,-9,-22,-89,-252,6940,-7715,1745186946094596133
275681,39,-14,-133,-286,6997,-7712,1745186946094596133
275873,98,-1,-182,-263,7000,-7716,1745186946094596133
276065,157,17,-230,-182,6938,-7738,1745186946094596133
276257,206,30,-279,-73,6879,-7717,1745186946094596133
276449,244,34,-328,56,6850,-7750,1745186946094596133
276641,270,28,-383,145,6831,-7837,1745186946094596133
276833,285,17,-436,196,6828,-7938,1745186946157229623
277025,293,3,-487,194,6830,-7990,1745186946157229623
277217,300,-8,-532,165,6816,-7998,1745186946157229623
277409,308,-21,-577,101,6780,-8002,1745186946157229623
277601,316,-31,-622,11,6738,-8052,1745186946157229623
277793,323,-38,-668,-94,6665,-8100,1745186946157229623
277985,324,-37,-716,-143,6513,-8207,1745186946157229623
278177,316,-33,-763,-169,6343,-8263,1745186946157229623
278369,296,-25,-809,-197,6175,-8322,1745186946157229623
278561,260,-21,-851,-152,6049,-8417,1745186946157229623
278753,213,-18,-894,-88,6021,-8484,1745186946157229623
278945,167,-12,-941,-12,6081,-8513,1745186946157229623
279137,122,-5,-993,49,6263,-8479,1745186946214404569
279329,75,-3,-1051,131,6442,-8457,1745186946214404569
279521,41,-11,-1108,214,6539,-8360,1745186946214404569
279713,19,-26,-1160,267,6659,-8190,1745186946214404569
279905,8,-45,-1208,270,6758,-8052,1745186946214404569
280097,-7,-66,-1259,233,6907,-7990,1745186946214404569
280289,-26,-79,-1314,154,7055,-7951,1745186946214404569
280481,-37,-82,-1368,86,7170,-7922,1745186946214404569
280673,-34,-78,-1420,87,7265,-8000,1745186946214404569
280865,-17,-71,-1475,119,7246,-8130,1745186946214404569
281057,2,-64,-1534,208,7176,-8206,1745186946214404569
281249,12,-60,-1598,331,7033,-8229,1745186946214404569
281441,14,-57,-1664,422,6874,-8210,1745186946269377453
281633,8,-54,-1726,487,6708,-8168,1745186946269377453
281825,-6,-57,-1784,539,6583,-8131,1745186946269377453
282017,-26,-61,-1839,570,6514,-8114,1745186946269377453
282209,-54,-62,-1896,587,6534,-8119,1745186946269377453
282401,-93,-62,-1958,633,6608,-8098,1745186946269377453
282593,-138,-58,-2021,663,6681,-8000,1745186946269377453
282785,-181,-59,-2077,687,6753,-7922,1745186946269377453
282977,-213,-61,-2124,688,6856,-7822,1745186946269377453
283169,-233,-66,-2161,653,7016,-7817,1745186946269377453
283361,-243,-74,-2194,624,7198,-7877,1745186946269377453
283553,-231,-79,-2227,662,7283,-7923,1745186946269377453
283745,-192,-79,-2256,705,7350,-7919,1745186946331158242
283937,-123,-71,-2283,807,7347,-7887,1745186946331158242
284129,-41,-63,-2317,887,7291,-7846,1745186946331158242
284321,45,-53,-2354,984,7144,-7781,1745186946331158242
284513,129,-43,-2396,1082,6936,-7694,1745186946331158242
284705,210,-33,-2441,1198,6695,-7600,1745186946331158242
284897,285,-23,-2488,1324,6475,-7540,1745186946331158242
285089,350,-16,-2537,1484,6295,-7596,1745186946331158242
285281,399,-13,-2590,1647,6146,-7715,1745186946331158242
285473,436,-10,-2645,1817,6021,-7754,1745186946331158242
285665,470,-3,-2695,1984,5854,-7735,1745186946331158242
285857,505,-2,-2743,2120,5744,-7682,1745186946331158242
285857,505,-2,-2743,2120,5744,-7682,1745186946396532333
286241,578,-28,-2826,2257,5409,-7580,1745186946396532333
286433,616,-50,-2865,2262,5173,-7498,1745186946396532333
286625,660,-67,-2898,2231,4915,-7441,1745186946396532333
286817,699,-74,-2927,2218,4657,-7401,1745186946396532333
287009,728,-82,-2959,2212,4366,-7374,1745186946396532333
287201,741,-88,-2990,2178,4121,-7301,1745186946396532333
287393,742,-91,-3021,2170,3882,-7248,1745186946396532333
287585,737,-90,-3050,2158,3731,-7175,1745186946396532333
287777,731,-86,-3074,2179,3642,-7147,1745186946396532333
287969,730,-77,-3095,2249,3611,-7152,1745186946396532333
288161,743,-59,-3114,2379,3596,-7177,1745186946396532333
288353,772,-40,-3137,2519,3532,-7155,1745186946447112183
288545,816,-29,-3165,2660,3425,-7097,1745186946447112183
288737,867,-30,-3198,2776,3302,-7015,1745186946447112183
288929,918,-44,-3235,2848,3142,-6950,1745186946447112183
289121,964,-64,-3268,2875,2985,-6885,1745186946447112183
289313,1009,-87,-3294,2901,2827,-6892,1745186946447112183
289505,1053,-110,-3310,2911,2693,-6915,1745186946447112183
289697,1094,-132,-3322,2922,2546,-6908,1745186946447112183
289889,1131,-151,-3334,2944,2454,-6890,1745186946447112183
290081,1154,-171,-3353,2970,2322,-6860,1745186946447112183
290273,1161,-192,-3375,2987,2208,-6792,1745186946447112183
290465,1167,-211,-3394,3005,2056,-6776,1745186946447112183
290657,1178,-231,-3409,3040,1922,-6751,1745186946509245366
290849,1199,-254,-3423,3060,1851,-6694,1745186946509245366
291041,1223,-280,-3440,3109,1807,-6685,1745186946509245366
291233,1242,-309,-3466,3161,1831,-6655,1745186946509245366
291425,1255,-338,-3498,3217,1873,-6554,1745186946509245366
291617,1268,-363,-3530,3321,1922,-6362,1745186946509245366
291809,1265,-376,-3555,3437,1905,-6243,1745186946509245366
292001,1246,-378,-3573,3570,1831,-6305,1745186946509245366
292193,1220,-385,-3588,3712,1716,-6320,1745186946509245366
292385,1203,-406,-3605,3809,1581,-6253,1745186946509245366
292577,1200,-442,-3620,3850,1434,-6112,1745186946509245366
292769,1205,-486,-3635,3859,1278,-5964,1745186946509245366
292961,1208,-530,-3649,3826,1106,-5838,1745186946562486598
293153,1205,-570,-3662,3772,924,-5712,1745186946562486598
293345,1191,-609,-3672,3703,702,-5553,1745186946562486598
293537,1164,-643,-3678,3657,498,-5432,1745186946562486598
293729,1125,-679,-3682,3577,365,-5317,1745186946562486598
293921,1069,-720,-3684,3499,214,-5288,1745186946562486598
294113,998,-766,-3683,3420,37,-5211,1745186946562486598
294305,913,-812,-3673,3325,-200,-5093,1745186946562486598
294497,815,-856,-3655,3197,-509,-4947,1745186946562486598
294689,699,-894,-3622,3040,-876,-4822,1745186946562486598
294881,566,-925,-3583,2875,-1235,-4662,1745186946562486598
295073,422,-950,-3542,2737,-1538,-4535,1745186946562486598
295265,271,-967,-3503,2536,-1724,-4324,1745186946628707816
295457,116,-960,-3468,2332,-1878,-4161,1745186946628707816
295649,-37,-950,-3436,2175,-1910,-3958,1745186946628707816
295841,-185,-934,-3414,2003,-1817,-3820,1745186946628707816
296033,-318,-916,-3404,1804,-1726,-3691,1745186946628707816
296225,-433,-893,-3400,1585,-1608,-3594,1745186946628707816
296417,-532,-858,-3391,1377,-1505,-3515,1745186946628707816
296609,-615,-815,-3378,1167,-1468,-3527,1745186946628707816
296801,-682,-768,-3358,994,-1439,-3616,1745186946628707816
296993,-737,-718,-3331,861,-1434,-3728,1745186946628707816
297185,-783,-667,-3297,758,-1462,-3879,1745186946628707816
297377,-826,-619,-3257,702,-1530,-4015,1745186946628707816
297569,-870,-570,-3215,671,-1611,-4167,1745186946679212094
297761,-913,-522,-3172,668,-1640,-4298,1745186946679212094
297953,-952,-479,-3124,677,-1621,-4253,1745186946679212094
298145,-992,-434,-3071,731,-1586,-4009,1745186946679212094
298337,-1020,-387,-3020,737,-1545,-3932,1745186946679212094
298529,-1027,-328,-2971,756,-1453,-3930,1745186946679212094
298721,-990,-259,-2928,731,-1371,-3935,1745186946679212094
298913,-907,-196,-2898,698,-1377,-3965,1745186946679212094
299105,-788,-146,-2880,626,-1443,-4077,1745186946679212094
299297,-646,-98,-2864,512,-1527,-4172,1745186946679212094
299489,-506,-50,-2842,412,-1618,-4254,1745186946679212094
299681,-379,13,-2813,307,-1753,-4383,1745186946679212094
299873,-281,72,-2774,222,-2000,-4583,1745186946739603730
300065,-215,143,-2724,227,-2305,-4788,1745186946739603730
300257,-166,221,-2663,265,-2540,-5247,1745186946739603730
300449,-121,292,-2594,424,-2712,-6016,1745186946739603730
300641,-77,346,-2521,621,-2863,-6807,1745186946739603730
300833,-15,380,-2447,867,-3212,-7115,1745186946739603730
301025,92,391,-2366,1189,-3518,-8148,1745186946739603730
301217,63,389,-2290,1440,-4094,-8108,1745186946739603730
301409,99,385,-2208,1588,-4616,-8262,1745186946739603730
301601,148,372,-2119,1653,-5077,-8234,1745186946739603730
301793,179,340,-2022,1784,-5445,-8237,1745186946739603730
301985,144,303,-1906,1691,-6023,-8154,1745186946739603730
302177,44,256,-1879,1431,-6269,-7804,1745186946796192796
302369,-80,223,-1854,1202,-6132,-7397,1745186946796192796
302561,-231,212,-1776,929,-6226,-7136,1745186946796192796
302753,-403,227,-1661,687,-6113,-6994,1745186946796192796
302945,-576,257,-1529,503,-5902,-7023,1745186946796192796
303137,-726,303,-1398,389,-5569,-7190,1745186946796192796
303329,-827,359,-1268,304,-5222,-7175,1745186946796192796
303521,-879,421,-1145,330,-4976,-7088,1745186946796192796
303713,-897,474,-1037,399,-4962,-7130,1745186946796192796
303905,-917,502,-938,522,-5116,-7181,1745186946796192796
304097,-945,536,-840,663,-5312,-7305,1745186946796192796
304289,-978,580,-740,766,-5367,-7449,1745186946796192796
304481,-1015,622,-639,847,-5264,-7438,1745186946869704885
304673,-1035,661,-553,982,-4956,-7389,1745186946869704885
304865,-1025,702,-486,1113,-4589,-7244,1745186946869704885
305057,-984,741,-440,1258,-4250,-7213,1745186946869704885
305249,-915,780,-414,1397,-4029,-7327,1745186946869704885
305441,-834,820,-407,1502,-3921,-7603,1745186946869704885
305633,-753,859,-413,1595,-3952,-7969,1745186946869704885
305825,-682,899,-422,1654,-4063,-8301,1745186946869704885
306017,-627,941,-430,1748,-4217,-8661,1745186946869704885
306209,-589,974,-435,1823,-4350,-9089,1745186946869704885
306401,-569,996,-437,1919,-4353,-9452,1745186946869704885
306593,-555,1024,-435,2038,-4318,-9787,1745186946869704885
306785,-551,1044,-426,2178,-4198,-9988,1745186946918832093
307169,-585,1041,-421,2450,-3830,-10164,1745186946918832093
307361,-612,1036,-417,2537,-3570,-10121,1745186946918832093
307553,-625,1041,-407,2604,-3269,-10041,1745186946918832093
307745,-613,1051,-385,2664,-2973,-9966,1745186946918832093
307937,-572,1059,-354,2757,-2694,-9853,1745186946918832093
308129,-504,1066,-317,2861,-2516,-9692,1745186946918832093
308321,-417,1066,-308,2929,-2693,-9563,1745186946918832093
308513,-332,1058,-364,3161,-1873,-9659,1745186946918832093
308705,-303,1070,-234,3242,-2377,-9804,1745186946918832093
308897,-261,1059,-180,3284,-2455,-9912,1745186946918832093
309089,-226,1036,-141,3345,-2526,-10039,1745186946918832093
309281,-195,1007,-101,3373,-2604,-10094,1745186946978815347
309473,-170,983,-63,3365,-2624,-10109,1745186946978815347
309665,-144,957,-30,3336,-2610,-10117,1745186946978815347
309857,-124,937,-2,3309,-2602,-10052,1745186946978815347
310049,-116,918,21,3291,-2627,-9979,1745186946978815347
310241,-115,902,40,3249,-2660,-9870,1745186946978815347
310433,-130,895,54,3253,-2771,-9762,1745186946978815347
310625,-152,886,60,3292,-2864,-9720,1745186946978815347
310817,-182,876,71,3290,-3038,-9685,1745186946978815347
311009,-221,864,90,3270,-3221,-9638,1745186946978815347
311201,-267,857,111,3309,-3300,-9650,1745186946978815347
311393,-311,859,129,3345,-3232,-9579,1745186946978815347
311585,-349,857,141,3404,-3100,-9470,1745186947035194259
311777,-374,854,143,3550,-2866,-9373,1745186947035194259
311969,-385,843,142,3675,-2631,-9255,1745186947035194259
312161,-379,818,144,3763,-2471,-9148,1745186947035194259
312353,-357,782,140,3857,-2281,-8903,1745186947035194259
312545,-301,752,141,3959,-1735,-9491,1745186947035194259
312737,-274,704,159,4116,-1423,-8738,1745186947035194259
312929,-330,659,168,4240,-2008,-8535,1745186947035194259
313121,-315,580,159,4224,-2545,-8826,1745186947035194259
313313,-273,494,178,4206,-2189,-9080,1745186947035194259
313505,-222,410,192,4150,-1556,-9752,1745186947035194259
313697,-173,328,203,4127,-1197,-10248,1745186947035194259
313889,-96,251,193,4082,-1043,-10475,1745186947095259075
314081,1,190,146,4007,-976,-10590,1745186947095259075
314273,68,114,82,3887,-1103,-10517,1745186947095259075
314465,97,62,37,3717,-1365,-10499,1745186947095259075
314657,110,20,22,3563,-1609,-10472,1745186947095259075
314849,106,-18,30,3363,-1834,-10277,1745186947095259075
315041,72,-49,37,3132,-2137,-10079,1745186947095259075
315233,-13,-75,25,2862,-2423,-9873,1745186947095259075
315425,-157,-84,3,2537,-2606,-9670,1745186947095259075
315617,-348,-58,-7,2259,-2571,-9388,1745186947095259075
315809,-550,3,5,2155,-2259,-9032,1745186947095259075
316001,-735,63,27,2116,-1755,-8698,1745186947095259075
316193,-887,99,37,2151,-1231,-8392,1745186947177036661
316385,-999,109,33,2171,-770,-8187,1745186947177036661
316577,-1075,110,23,2143,-392,-8136,1745186947177036661
316769,-1102,110,7,2147,53,-8217,1745186947177036661
316961,-1065,116,-11,2152,697,-8458,1745186947177036661
317153,-942,117,-28,2214,1605,-8967,1745186947177036661
317345,-761,112,-52,2357,2751,-9779,1745186947177036661
317537,-586,101,-71,2647,3363,-9630,1745186947177036661
317729,-134,65,-102,2915,4082,-10180,1745186947177036661
317921,234,-5,-189,3013,3884,-10476,1745186947177036661
318113,426,-97,-280,2784,2827,-10453,1745186947177036661
318305,500,-169,-327,2382,1250,-10262,1745186947177036661
318497,490,-234,-304,1908,-324,-10068,1745186947223700089
318689,422,-270,-227,1436,-1388,-9820,1745186947223700089
318881,303,-290,-161,997,-1749,-9567,1745186947223700089
319073,151,-276,-145,645,-1702,-9365,1745186947223700089
319265,-4,-234,-161,388,-1526,-9089,1745186947223700089
319457,-106,-190,-171,355,-1328,-8938,1745186947223700089
319649,-171,-153,-161,434,-1133,-8938,1745186947223700089
319841,-230,-126,-134,580,-1073,-8919,1745186947223700089
320033,-291,-114,-102,772,-1149,-8887,1745186947223700089
320225,-355,-112,-82,984,-1236,-8810,1745186947223700089
320417,-433,-115,-80,1226,-1285,-8656,1745186947223700089
320609,-520,-124,-87,1463,-1328,-8496,1745186947223700089
320801,-616,-141,-92,1648,-1360,-8314,1745186947279148853
320993,-928,-190,-12,2203,-4763,-9697,1745186947279148853
321185,-1472,-327,315,3020,-5621,-7105,1745186947279148853
321377,-1550,-410,362,2265,-1509,-7896,1745186947279148853
321569,-1620,-406,86,1226,780,-7707,1745186947279148853
321761,-1546,-324,-202,682,721,-7842,1745186947279148853
321953,-1436,-250,-243,599,456,-8018,1745186947279148853
322145,-1329,-209,-107,550,786,-7960,1745186947279148853
322337,-1209,-186,28,593,1129,-7865,1745186947279148853
322529,-1092,-167,89,861,1256,-7781,1745186947279148853
322721,-993,-140,76,1240,1252,-7682,1745186947279148853
322913,-906,-120,24,1569,1091,-7618,1745186947279148853
323105,-821,-124,-33,1783,975,-7584,1745186947334999593
323297,-743,-141,-71,1819,939,-7545,1745186947334999593
323489,-667,-172,-91,1686,958,-7523,1745186947334999593
323681,-606,-206,-100,1521,1127,-7537,1745186947334999593
323873,-559,-242,-108,1618,1285,-7553,1745186947334999593
324065,-518,-294,-124,1860,1389,-7561,1745186947334999593
324257,-475,-356,-156,1930,1622,-7595,1745186947334999593
324449,-430,-409,-204,1816,1809,-7608,1745186947334999593
324641,-382,-453,-249,1648,1800,-7655,1745186947334999593
324833,-343,-495,-276,1530,1587,-7709,1745186947334999593
325025,-321,-528,-284,1227,1539,-7795,1745186947334999593
325217,-291,-529,-280,587,1676,-7606,1745186947334999593
325409,-55,-295,-321,-2534,4598,-6187,1745186947390869552
325601,447,118,-527,-3528,5908,-7684,1745186947390869552
325793,600,230,-574,-2319,3271,-7575,1745186947390869552
325985,691,338,-371,-716,556,-8127,1745186947390869552
326177,424,261,19,1272,-3402,-7537,1745186947390869552
326369,268,236,318,2033,-2593,-7280,1745186947390869552
326561,490,185,278,1999,656,-7855,1745186947390869552
326753,311,146,63,2541,1030,-8162,1745186947390869552
326945,168,101,-151,2516,851,-7872,1745186947390869552
327137,168,26,-218,2225,481,-7813,1745186947390869552
327329,203,-54,-151,1843,125,-7815,1745186947390869552
327521,247,-108,-55,1373,80,-7882,1745186947390869552
327713,243,-119,-7,961,121,-7854,1745186947451412749
327905,220,-113,-23,661,145,-7872,1745186947451412749
328097,202,-76,-58,543,156,-7922,1745186947451412749
328289,181,-42,-74,603,176,-7988,1745186947451412749
328481,159,-18,-68,790,219,-8031,1745186947451412749
328673,139,-9,-51,989,274,-8044,1745186947451412749
328865,126,-12,-47,1165,359,-8044,1745186947451412749
329057,122,-13,-54,1202,277,-8041,1745186947451412749
329249,98,-6,-60,1118,60,-8115,1745186947451412749
329441,91,-14,-62,1184,339,-8170,1745186947451412749
329633,98,-29,-66,1249,598,-8201,1745186947451412749
329825,108,-48,-73,1257,677,-8216,1745186947451412749
330017,119,-50,-82,1152,636,-8219,1745186947515852941
330209,126,-48,-84,1071,558,-8249,1745186947515852941
330401,128,-40,-76,937,442,-8318,1745186947515852941
330593,111,-51,-67,1415,-419,-8400,1745186947515852941
330785,-97,-113,-93,1690,-1652,-8450,1745186947515852941
330977,-242,-121,-123,1124,-1682,-8013,1745186947515852941
331169,-303,-106,-137,613,-937,-8322,1745186947515852941
331361,-375,-54,-140,191,-143,-8310,1745186947515852941
331553,-401,-4,-142,-62,465,-8304,1745186947515852941
331745,-398,37,-149,130,637,-8214,1745186947515852941
331937,-381,44,-152,832,589,-8178,1745186947515852941
332129,-347,18,-140,1519,645,-8120,1745186947515852941
332321,-304,-16,-110,1716,702,-8056,1745186947578795074
332513,-230,-41,-88,1717,752,-7734,1745186947578795074
332705,-110,-87,-88,1847,913,-8061,1745186947578795074
332897,-67,-157,-88,1840,1093,-7962,1745186947578795074
333089,-12,-205,-80,1507,1276,-7815,1745186947578795074
333281,106,-235,-78,1287,1574,-8430,1745186947578795074
333473,42,-246,-89,1160,1580,-8008,1745186947578795074
333665,69,-263,-98,1183,1237,-8027,1745186947578795074
333857,114,-280,-107,1226,1066,-8071,1745186947578795074
334049,142,-291,-109,1183,816,-8041,1745186947578795074
334241,173,-294,-113,1023,635,-8053,1745186947578795074
334433,196,-294,-111,881,623,-8081,1745186947578795074
335009,99,-315,69,541,181,-8078,1745186948535571282
370721,-88,-145,-2,1870,-541,-7321,1745186948535571282
370913,-121,-222,-1,1457,-1278,-7689,1745186948535571282
371105,-205,-66,-5,1345,67,-7549,1745186948535571282
371297,-170,-81,11,1362,140,-7796,1745186948535571282
371489,-158,-25,-10,1336,-211,-7971,1745186948535571282
371681,-136,-24,-42,1253,-598,-8109,1745186948535571282
371873,-168,-4,-49,1399,-810,-8183,1745186948535571282
372065,-203,9,-44,1854,-914,-8226,1745186948535571282
372257,-250,-43,-41,2177,-963,-8274,1745186948535571282
372449,-330,-68,-47,2322,-1121,-8369,1745186948535571282
372641,-403,-94,-69,2192,-1122,-8454,1745186948535571282
372833,-456,-124,-95,1918,-742,-8520,1745186948596458070
373025,-461,-122,-105,1652,-27,-8586,1745186948596458070
373217,-421,-113,-93,1460,532,-8782,1745186948596458070
373409,-373,-80,-80,1175,801,-8968,1745186948596458070
373601,-291,-6,-77,769,1320,-9135,1745186948596458070
373793,-171,77,-56,556,1647,-9329,1745186948596458070
373985,-51,168,-25,563,1738,-9491,1745186948596458070
374177,69,249,19,908,1705,-9581,1745186948596458070
374369,202,303,66,1404,1268,-8448,1745186948596458070
374561,256,311,109,1591,2568,-10082,1745186948596458070
374753,379,366,182,2225,2485,-11139,1745186948596458070
374945,-271,144,202,3581,-84,-3394,1745186948596458070
375137,724,-13,121,3373,-164,-9852,1745186948650687731
375329,432,-153,91,2522,-1993,-7083,1745186948650687731
375521,239,-127,69,1706,-2772,-7297,1745186948650687731
375713,52,-123,65,1089,-2885,-7206,1745186948650687731
375905,-142,-100,62,730,-2654,-7074,1745186948650687731
376097,-286,-41,19,441,-1844,-7149,1745186948650687731
376289,-379,21,-23,499,-940,-7011,1745186948650687731
376481,-388,90,-46,552,-9,-7001,1745186948650687731
376673,-320,139,-24,1014,512,-7174,1745186948650687731
376865,-225,160,0,1379,803,-7361,1745186948650687731
377057,-140,167,22,1637,857,-7406,1745186948650687731
377249,-62,164,31,1757,810,-7467,1745186948650687731
377441,-2,155,28,1738,837,-7577,1745186948712586853
377633,40,143,29,1625,866,-7657,1745186948712586853
377825,81,135,47,1570,946,-7672,1745186948712586853
378017,81,177,105,1572,1371,-7189,1745186948712586853
378209,-47,193,93,1606,1676,-7021,1745186948712586853
378401,-106,190,70,1746,2020,-6897,1745186948712586853
378593,-138,243,112,1993,2341,-7160,1745186948712586853
378785,-179,259,140,2326,2594,-7627,1745186948712586853
378977,-211,247,136,2539,3167,-7822,1745186948712586853
379169,-172,246,96,2588,4112,-7804,1745186948712586853
379361,-35,248,41,2685,4748,-7881,1745186948712586853
379553,127,205,-32,2895,4583,-8243,1745186948712586853
379745,187,99,-117,3127,3278,-8555,1745186948767823640
379937,136,-64,-213,3221,1389,-8975,1745186948767823640
380129,18,-219,-301,3128,-247,-8650,1745186948767823640
380321,-101,-331,-365,2893,-982,-8311,1745186948767823640
380513,-195,-397,-407,2620,-1009,-7952,1745186948767823640
380705,-225,-420,-434,2428,-762,-7973,1745186948767823640
380897,-175,-432,-455,2259,-659,-8087,1745186948767823640
381089,-39,-462,-471,1975,-970,-8160,1745186948767823640
381281,149,-509,-464,1580,-1543,-8324,1745186948767823640
381473,315,-553,-434,1129,-2140,-8371,1745186948767823640
381665,397,-574,-400,697,-2561,-8268,1745186948767823640
381857,406,-567,-372,280,-2797,-8168,1745186948767823640
382049,380,-539,-349,-100,-2845,-8074,1745186948829939218
382241,342,-492,-312,-408,-2825,-7980,1745186948829939218
382433,322,-430,-245,-608,-2750,-7866,1745186948829939218
382625,314,-357,-159,-648,-2678,-7857,1745186948829939218
382817,301,-279,-80,-575,-2595,-7877,1745186948829939218
383009,271,-207,-20,-416,-2465,-7751,1745186948829939218
383201,228,-133,23,-179,-2162,-7497,1745186948829939218
383393,184,-63,56,144,-1627,-7298,1745186948829939218
383585,138,0,78,576,-1056,-7254,1745186948829939218
383777,104,52,92,1002,-547,-7104,1745186948829939218
383969,95,91,98,1375,-139,-6959,1745186948829939218
384161,108,121,86,1718,160,-6915,1745186948829939218
384161,108,121,86,1718,160,-6915,1745186948885981883
384545,171,164,19,2160,152,-6838,1745186948885981883
384737,242,179,-8,2280,36,-6823,1745186948885981883
384929,313,194,-25,2330,19,-6918,1745186948885981883
385121,366,207,-47,2365,35,-7101,1745186948885981883
385313,411,218,-74,2378,29,-7397,1745186948885981883
385505,459,219,-95,2346,-117,-7758,1745186948885981883
385697,519,209,-110,2257,-302,-8070,1745186948885981883
385889,578,196,-123,2103,-457,-8269,1745186948885981883
386081,619,187,-138,1986,-550,-8329,1745186948885981883
386273,638,181,-154,1853,-600,-8317,1745186948885981883
386465,650,179,-167,1754,-645,-8293,1745186948885981883
386657,657,174,-169,1681,-690,-8303,1745186948945292383
386849,657,166,-162,1623,-804,-8353,1745186948945292383
387041,646,156,-149,1594,-951,-8429,1745186948945292383
387233,624,144,-139,1552,-1131,-8477,1745186948945292383
387425,587,130,-131,1508,-1316,-8437,1745186948945292383
387617,538,119,-123,1470,-1436,-8433,1745186948945292383
387809,468,109,-115,1439,-1506,-8378,1745186948945292383
388001,399,105,-108,1424,-1431,-8322,1745186948945292383
388193,337,103,-98,1467,-1322,-8276,1745186948945292383
388385,287,99,-90,1498,-1118,-8359,1745186948945292383
388577,242,90,-82,1541,-1007,-8432,1745186948945292383
388769,200,78,-70,1569,-1059,-8454,1745186948945292383
388961,169,60,-52,1548,-1149,-8459,1745186949004090909
389153,147,45,-40,1519,-1171,-8472,1745186949004090909
389345,132,36,-37,1478,-1122,-8461,1745186949004090909
389537,125,34,-41,1432,-1048,-8423,1745186949004090909
389729,126,35,-45,1406,-947,-8385,1745186949004090909
389921,124,35,-46,1362,-823,-8356,1745186949004090909
390113,109,37,-42,1340,-732,-8298,1745186949004090909
390305,92,39,-34,1346,-698,-8241,1745186949004090909
390497,73,41,-27,1354,-704,-8187,1745186949004090909
390689,59,45,-22,1370,-681,-8143,1745186949004090909
390881,50,51,-21,1394,-609,-8056,1745186949004090909
391073,43,61,-22,1428,-548,-7972,1745186949004090909
391265,45,69,-22,1469,-499,-7901,1745186949060548466
391457,53,77,-18,1541,-467,-7879,1745186949060548466
391649,64,85,-13,1569,-472,-7892,1745186949060548466
391841,75,90,-8,1634,-531,-7931,1745186949060548466
392033,89,93,-6,1686,-589,-7993,1745186949060548466
392225,102,97,-3,1715,-681,-8037,1745186949060548466
392417,112,100,5,1733,-749,-8085,1745186949060548466
392609,116,99,18,1752,-792,-8112,1745186949060548466
392801,116,98,33,1764,-874,-8152,1745186949060548466
392993,108,96,48,1797,-956,-8189,1745186949060548466
393185,91,93,58,1824,-991,-8228,1745186949060548466
393377,65,89,65,1828,-1060,-8200,1745186949060548466
393569,35,84,71,1825,-1051,-8123,1745186949124952669
393761,1,78,78,1804,-1065,-8060,1745186949124952669
393953,-32,74,86,1769,-1042,-8152,1745186949124952669
394145,-65,67,88,1773,-1019,-8263,1745186949124952669
394337,-99,64,87,1744,-1009,-8224,1745186949124952669
394529,-131,62,86,1738,-897,-8137,1745186949124952669
394721,-165,61,86,1746,-733,-8075,1745186949124952669
394913,-198,63,86,1771,-614,-8034,1745186949124952669
395105,-217,60,86,1791,-497,-8006,1745186949124952669
395297,-223,52,85,1823,-409,-8007,1745186949124952669
395489,-223,42,80,1829,-335,-8004,1745186949124952669
395681,-221,32,74,1809,-310,-7947,1745186949124952669
395873,-209,21,70,1769,-310,-7961,1745186949178578585
396065,-191,6,63,1731,-319,-7925,1745186949178578585
396257,-169,-9,53,1661,-114,-7883,1745186949178578585
396449,-155,-19,40,1606,59,-7933,1745186949178578585
396641,-149,-20,32,1557,-11,-7818,1745186949178578585
396833,-106,-17,25,1491,-152,-7676,1745186949178578585
397025,-53,-15,5,1347,-197,-7435,1745186949178578585
397217,-22,-9,-29,1155,-141,-7295,1745186949178578585
397409,-16,8,-53,982,-78,-7170,1745186949178578585
397601,-16,36,-51,885,-171,-7170,1745186949178578585
397793,-1,69,-25,893,-361,-7248,1745186949178578585
397985,20,99,3,998,-565,-7380,1745186949178578585
398177,35,121,10,1162,-747,-7452,1745186949235331869
398369,43,137,-4,1344,-804,-7455,1745186949235331869
398561,50,149,-26,1495,-793,-7446,1745186949235331869
398753,62,159,-41,1645,-755,-7475,1745186949235331869
398945,75,161,-49,1738,-741,-7539,1745186949235331869
399137,85,157,-52,1798,-830,-7596,1745186949235331869
399329,93,148,-54,1867,-976,-7670,1745186949235331869
399521,95,140,-54,1891,-1133,-7715,1745186949235331869
399713,92,133,-50,1908,-1274,-7762,1745186949235331869
399905,83,124,-40,1949,-1387,-7819,1745186949235331869
400097,66,114,-28,1983,-1436,-7925,1745186949235331869
400289,46,100,-19,2026,-1387,-7998,1745186949235331869
400481,21,84,-16,2062,-1344,-8000,1745186949295835171
400673,-5,68,-17,2076,-1304,-7931,1745186949295835171
400865,-28,53,-20,2082,-1232,-7886,1745186949295835171
401057,-47,39,-20,2047,-1122,-7880,1745186949295835171
401249,-64,26,-18,2023,-1071,-7860,1745186949295835171
401441,-78,16,-13,1985,-1006,-7861,1745186949295835171
401633,-90,7,-5,1936,-984,-7808,1745186949295835171
401825,-100,2,4,1897,-989,-7808,1745186949295835171
402017,-107,-2,14,1883,-951,-7823,1745186949295835171
402209,-113,-5,23,1846,-942,-7841,1745186949295835171
402401,-118,-7,26,1848,-886,-7870,1745186949295835171
402593,-127,-7,25,1815,-856,-7869,1745186949295835171
402785,-135,-7,20,1805,-837,-7900,1745186949355394991
402977,-142,-8,16,1778,-852,-7882,1745186949355394991
403169,-154,-11,14,1738,-792,-7881,1745186949355394991
403361,-168,-10,14,1714,-745,-7857,1745186949355394991
403553,-183,-7,18,1671,-692,-7820,1745186949355394991
403745,-190,-4,24,1640,-643,-7816,1745186949355394991
403937,-191,-1,29,1629,-601,-7842,1745186949355394991
404129,-188,3,34,1637,-575,-7882,1745186949355394991
404321,-185,6,34,1645,-572,-7938,1745186949355394991
404513,-185,10,31,1638,-551,-7972,1745186949355394991
404705,-184,13,28,1651,-511,-8016,1745186949355394991
404897,-181,17,26,1649,-469,-8044,1745186949355394991
405089,-175,20,26,1644,-460,-8086,1745186949417339321
405281,-166,23,27,1664,-479,-8192,1745186949417339321
405473,-158,23,29,1705,-499,-8237,1745186949417339321
405665,-151,24,29,1721,-519,-8233,1745186949417339321
405857,-143,24,29,1750,-556,-8197,1745186949417339321
406049,-140,22,28,1769,-576,-8186,1745186949417339321
406241,-139,19,26,1786,-556,-8128,1745186949417339321
406433,-139,18,25,1784,-572,-8097,1745186949417339321
406625,-137,16,24,1775,-557,-8069,1745186949417339321
406817,-132,15,22,1754,-533,-8080,1745186949417339321
407009,-120,19,18,1766,-427,-8149,1745186949417339321
407201,-99,28,15,1808,-279,-8240,1745186949417339321
407393,-75,31,11,1818,-178,-8332,1745186949468857236
407585,-48,32,5,1855,-162,-8463,1745186949468857236
407777,-16,25,2,1885,-182,-8620,1745186949468857236
407969,18,9,1,1873,-235,-8727,1745186949468857236
408161,48,-11,1,1832,-327,-8881,1745186949468857236
408353,72,-26,0,1808,-386,-9025,1745186949468857236
408545,100,-37,-6,1826,-460,-9139,1745186949468857236
408737,135,-52,-16,1834,-446,-9264,1745186949468857236
408929,173,-64,-26,1864,-515,-9381,1745186949468857236
409121,212,-77,-32,1869,-612,-9486,1745186949468857236
409313,246,-99,-31,1892,-710,-9622,1745186949468857236
409505,275,-121,-28,1929,-808,-9704,1745186949468857236
409697,296,-137,-26,1956,-896,-9768,1745186949535896623
409889,304,-150,-33,1994,-951,-9846,1745186949535896623
410081,301,-157,-42,2058,-994,-9952,1745186949535896623
410273,293,-163,-46,2148,-1016,-10085,1745186949535896623
410465,285,-170,-41,2261,-1054,-10171,1745186949535896623
410657,280,-172,-32,2362,-1077,-10277,1745186949535896623
410849,267,-164,-27,2449,-1115,-10005,1745186949535896623
411041,240,-146,-18,2601,-1242,-9870,1745186949535896623
411233,230,-134,-9,2814,-1086,-10365,1745186949535896623
411425,221,-116,-8,3131,-858,-10932,1745186949535896623
411617,180,-102,-14,3459,-865,-11272,1745186949535896623
411809,149,-108,-20,3701,-1025,-11523,1745186949535896623
412001,157,-125,-12,3898,-1090,-11659,1745186949591310596
412193,198,-111,0,4123,-961,-11870,1745186949591310596
412385,248,-107,-7,4336,-743,-11876,1745186949591310596
412577,247,-91,-46,4598,-464,-11971,1745186949591310596
412769,190,-60,-117,4901,-310,-12136,1745186949591310596
412961,130,-5,-184,5296,-274,-12182,1745186949591310596
413153,118,54,-215,5715,-405,-11954,1745186949591310596
413345,159,86,-221,6125,-763,-11619,1745186949591310596
413537,227,91,-230,6479,-1203,-11329,1745186949591310596
413729,295,99,-268,6796,-1667,-11169,1745186949591310596
413921,347,103,-342,7069,-2099,-10947,1745186949591310596
414113,357,104,-442,7255,-2505,-10391,1745186949591310596
414305,327,109,-546,7396,-2950,-9939,1745186949649300015
414497,290,120,-645,7515,-3277,-9541,1745186949649300015
414689,265,135,-740,7583,-3446,-9082,1745186949649300015
414881,256,165,-838,7578,-3353,-8697,1745186949649300015
415073,233,210,-939,7559,-3118,-8352,1745186949649300015
415265,147,266,-1030,7656,-3002,-8261,1745186949649300015
415457,-15,301,-1107,7915,-2864,-8444,1745186949649300015
415649,-224,323,-1195,8170,-2227,-7901,1745186949649300015
415841,-436,366,-1259,8423,-1280,-7374,1745186949649300015
416033,-600,391,-1277,8787,-473,-7224,1745186949649300015
416225,-722,371,-1275,9270,-62,-7180,1745186949649300015
416417,-835,288,-1266,9706,-11,-7201,1745186949649300015
416609,-911,162,-1249,9974,-34,-7174,1745186949720452229
416801,-910,35,-1219,10065,277,-7144,1745186949720452229
416993,-841,-70,-1181,9999,828,-7116,1745186949720452229
417185,-752,-166,-1149,9864,1282,-7232,1745186949720452229
417377,-661,-251,-1125,9617,1361,-7602,1745186949720452229
417569,-550,-328,-1077,9265,1167,-7806,1745186949720452229
417761,-385,-400,-981,8845,780,-7976,1745186949720452229
417953,-171,-458,-846,8455,416,-8100,1745186949720452229
418145,49,-501,-703,8099,-4,-8183,1745186949720452229
418337,249,-536,-565,7732,-568,-8174,1745186949720452229
418529,427,-570,-431,7403,-1149,-8061,1745186949720452229
418721,593,-601,-301,7055,-1773,-7949,1745186949720452229
418913,747,-623,-170,6678,-2347,-7786,1745186949766147749
419105,888,-635,-43,6291,-2872,-7619,1745186949766147749
419297,1006,-640,79,5885,-3349,-7420,1745186949766147749
419489,1103,-640,201,5483,-3860,-7214,1745186949766147749
419681,1176,-640,329,5104,-4351,-7020,1745186949766147749
419873,1215,-642,472,4758,-4845,-6854,1745186949766147749
420065,1216,-649,624,4446,-5343,-6669,1745186949766147749
420257,1171,-657,783,4162,-5882,-6525,1745186949766147749
420449,1092,-676,978,3397,-6169,-6194,1745186949766147749
420641,1001,-679,1260,4195,-7907,-6775,1745186949766147749
420833,786,-681,1289,3427,-8039,-6526,1745186949766147749
421025,609,-707,1428,3183,-8796,-6360,1745186949766147749
421217,405,-694,1588,2920,-9235,-6432,1745186949839983846
421409,156,-681,1747,2636,-9353,-6268,1745186949839983846
421601,-120,-639,1912,2369,-9197,-6212,1745186949839983846
421793,-436,-584,2094,2101,-9019,-6315,1745186949839983846
421985,-782,-538,2293,1962,-8872,-6315,1745186949839983846
422177,-1106,-525,2502,1916,-8739,-6291,1745186949839983846
422369,-1381,-509,2726,1914,-8480,-6297,1745186949839983846
422561,-1622,-502,2957,1941,-8164,-6347,1745186949839983846
422753,-1846,-498,3200,2038,-7807,-6594,1745186949839983846
422945,-2076,-494,3452,2202,-7634,-6953,1745186949839983846
423137,-2305,-507,3700,2458,-7622,-6967,1745186949839983846
423329,-2526,-526,3936,2759,-7529,-6878,1745186949839983846
423521,-2742,-560,4170,3115,-7260,-6683,1745186949882817986
423713,-2958,-589,4399,3478,-6825,-6449,1745186949882817986
423905,-3167,-607,4610,3903,-6342,-6215,1745186949882817986
424097,-3367,-642,4787,4326,-5893,-5984,1745186949882817986
424289,-3528,-699,4924,4787,-5459,-5506,1745186949882817986
424481,-3649,-768,5019,5231,-4960,-5173,1745186949882817986
424673,-3747,-846,5075,5661,-4325,-4731,1745186949882817986
424865,-3820,-934,5094,6024,-3596,-4322,1745186949882817986
425057,-3875,-1037,5083,6342,-2847,-4044,1745186949882817986
425249,-3926,-1166,5049,6617,-2223,-3639,1745186949882817986
425441,-3973,-1305,5000,6830,-1665,-3034,1745186949882817986
425633,-3979,-1446,4950,6939,-980,-2508,1745186949882817986
425825,-3974,-1601,4938,6559,42,-2394,1745186949958226255
426017,-3964,-1790,4989,6945,111,-1535,1745186949958226255
426209,-3727,-1984,4941,6487,1295,-1955,1745186949958226255
426401,-3522,-2208,4955,8116,2165,-1826,1745186949958226255
426593,-3284,-2309,4992,7154,2981,-1878,1745186949958226255
426785,-3017,-2495,4985,7046,3519,-1849,1745186949958226255
426977,-2708,-2635,4871,6906,4462,-1981,1745186949958226255
427169,-2358,-2772,4882,6171,5826,-1940,1745186949958226255
427361,-1961,-2831,5046,6040,6021,-2298,1745186949958226255
427553,-1550,-2868,5092,5680,6673,-2712,1745186949958226255
427745,-1120,-2871,5131,5192,7408,-2877,1745186949958226255
427937,-684,-2838,5198,4909,7759,-3131,1745186949958226255
428129,-259,-2779,5257,4554,8258,-3566,1745186950001569401
428321,155,-2703,5322,4339,8416,-4065,1745186950001569401
428513,562,-2600,5383,4084,8600,-4601,1745186950001569401
428705,990,-2468,5465,3871,8871,-5177,1745186950001569401
428897,1449,-2311,5569,3717,9247,-5855,1745186950001569401
429089,1936,-2116,5681,3719,9598,-6636,1745186950001569401
429281,2433,-1908,5770,3787,9984,-7379,1745186950001569401
429473,2929,-1686,5842,3912,10281,-7911,1745186950001569401
429665,3423,-1447,5916,4027,10387,-8225,1745186950001569401
429857,3925,-1208,5999,4178,10283,-8286,1745186950001569401
430049,4429,-979,6096,4321,9982,-8094,1745186950001569401
430241,4911,-745,6210,4507,9452,-7754,1745186950001569401
430433,5351,-509,6332,4772,8674,-7179,1745186950060199855
430625,5724,-285,6453,5126,7652,-6443,1745186950060199855
430817,5991,-77,6560,5612,6368,-5761,1745186950060199855
431009,6123,105,6648,6212,4883,-5288,1745186950060199855
431201,6102,261,6715,6845,3314,-4912,1745186950060199855
431393,5931,406,6764,7503,1772,-4621,1745186950060199855
431585,5632,529,6792,8146,419,-4481,1745186950060199855
431777,5236,627,6788,8727,-547,-4320,1745186950060199855
431969,4754,707,6731,9239,-1155,-4301,1745186950060199855
432161,4208,771,6617,9585,-1281,-4349,1745186950060199855
432353,3654,807,6557,9663,-1003,-4196,1745186950060199855
432545,2999,867,6559,11134,-2658,-5116,1745186950060199855
432737,2317,818,6145,10831,-1855,-4946,1745186950120381440
432929,1658,759,5907,11038,-1874,-5449,1745186950120381440
433121,946,678,5693,11145,-1780,-5970,1745186950120381440
433313,206,589,5466,11210,-1519,-6680,1745186950120381440
433505,-561,457,5217,11220,-1058,-7330,1745186950120381440
433697,-1336,291,4944,11128,-397,-8032,1745186950120381440
433889,-2106,92,4647,10887,563,-8874,1745186950120381440
434081,-2854,-144,4337,10509,1780,-9732,1745186950120381440
434273,-3563,-370,4016,10016,3375,-9922,1745186950120381440
434465,-4224,-606,3677,9417,5044,-9712,1745186950120381440
434657,-4828,-835,3319,8685,6494,-9145,1745186950120381440
434849,-5344,-1057,2937,7807,7522,-8015,1745186950120381440
435041,-5750,-1273,2549,6808,7917,-6614,1745186950175109482
435233,-5985,-1478,2182,5925,7730,-5210,1745186950175109482
435425,-6010,-1675,1713,4858,7707,-4751,1745186950175109482
435617,-6021,-1800,1284,2126,8848,-3576,1745186950175109482
435809,-5772,-1838,1197,1202,7935,-3590,1745186950175109482
436001,-5390,-1741,906,-837,8100,-3407,1745186950175109482
436193,-4935,-1556,576,-2598,8534,-3713,1745186950175109482
436385,-4528,-1229,252,-1955,8926,-3717,1745186950175109482
436577,-3896,-997,18,-7652,9663,-5007,1745186950175109482
436769,-3368,-860,-177,-6460,9877,-5524,1745186950175109482
436961,-2809,-535,-344,-6253,10092,-5703,1745186950175109482
437153,-2169,-253,-505,-5588,10171,-5567,1745186950175109482
437345,-1529,35,-658,-4653,10146,-5329,1745186950271688704
437537,-940,312,-762,-3663,9903,-5171,1745186950271688704
437729,-462,564,-809,-2652,9479,-4815,1745186950271688704
437921,-91,735,-805,-1669,8885,-4498,1745186950271688704
438113,198,864,-742,-945,8371,-5054,1745186950271688704
438305,426,934,-620,-281,8046,-5293,1745186950271688704
438497,577,924,-474,373,7850,-5277,1745186950271688704
438689,655,851,-335,755,7684,-5587,1745186950271688704
438881,687,697,-191,1021,7296,-6125,1745186950271688704
439073,714,458,-49,997,6833,-6573,1745186950271688704
439265,748,186,89,768,6396,-6782,1745186950271688704
439457,776,-80,224,221,6026,-7068,1745186950271688704
439649,789,-296,361,-439,5676,-7332,1745186950291715448
439841,781,-447,492,-1136,5411,-7335,1745186950291715448
440033,762,-505,617,-1770,5094,-7226,1745186950291715448
440225,752,-489,723,-2227,4725,-6997,1745186950291715448
440417,760,-436,820,-2557,4446,-6664,1745186950291715448
440609,769,-356,919,-2655,3954,-6369,1745186950291715448
440801,758,-273,989,-2637,3359,-6160,1745186950291715448
440993,723,-189,1029,-2554,2880,-6179,1745186950291715448
441185,663,-118,1053,-2395,2567,-6452,1745186950291715448
441377,573,-59,1066,-2168,2443,-6723,1745186950291715448
441569,457,-10,1063,-1894,2500,-7085,1745186950291715448
441761,332,12,1038,-1574,2691,-7377,1745186950291715448
441953,212,14,987,-1327,2910,-7622,1745186950353677226
442145,108,2,918,-1173,3232,-7755,1745186950353677226
442337,35,-22,838,-1107,3587,-7752,1745186950353677226
442529,-5,-44,750,-1157,3932,-7621,1745186950353677226
442721,-21,-62,664,-1273,4289,-7423,1745186950353677226
442913,-22,-68,589,-1414,4495,-7203,1745186950353677226
443105,-10,-62,536,-1576,4542,-6997,1745186950353677226
443297,15,-37,507,-1719,4383,-6809,1745186950353677226
443489,46,-1,495,-1858,4129,-6695,1745186950353677226
443681,63,41,485,-1935,3941,-6690,1745186950353677226
443873,47,88,467,-1970,3877,-6782,1745186950353677226
444065,6,134,442,-1972,3940,-6955,1745186950353677226
444257,-33,172,410,-1917,4095,-7220,1745186950410225980
444449,-50,197,379,-1821,4247,-7366,1745186950410225980
444641,50,211,356,-1544,4334,-7255,1745186950410225980
444833,133,206,346,-1634,4483,-8207,1745186950410225980
445025,64,224,318,-1354,4419,-7750,1745186950410225980
445217,106,240,294,-1208,4344,-7723,1745186950410225980
445409,146,242,264,-1091,4160,-7706,1745186950410225980
445601,165,243,233,-986,3953,-7656,1745186950410225980
445793,165,238,206,-954,3673,-7630,1745186950410225980
445985,148,221,179,-915,3444,-7607,1745186950410225980
446177,115,202,151,-924,3289,-7561,1745186950410225980
446369,70,183,128,-952,3159,-7555,1745186950410225980
446561,24,155,111,-963,3131,-7608,1745186950470070225
446753,-19,136,102,-1005,3119,-7654,1745186950470070225
446945,-52,116,99,-1053,3069,-7738,1745186950470070225
447137,-77,99,98,-1106,2982,-7791,1745186950470070225
447329,-96,91,98,-1157,2831,-7807,1745186950470070225
447521,-115,89,92,-1195,2693,-7850,1745186950470070225
447713,-143,100,80,-1190,2619,-7899,1745186950470070225
447905,-186,117,61,-1144,2601,-7874,1745186950470070225
448097,-239,131,45,-1058,2589,-7774,1745186950470070225
448289,-290,140,35,-926,2531,-7653,1745186950470070225
448481,-335,139,34,-778,2515,-7547,1745186950470070225
448673,-371,135,39,-625,2510,-7424,1745186950470070225
448865,-408,122,48,-558,2571,-7332,1745186950528182351
449057,-440,99,56,-501,2621,-7337,1745186950528182351
449249,-453,53,60,-439,2697,-7479,1745186950528182351
449441,-458,8,53,-498,2836,-7693,1745186950528182351
449633,-456,-12,46,-677,2989,-7873,1745186950528182351
449825,-438,-5,45,-884,3204,-8014,1745186950528182351
450017,-397,29,51,-1010,3442,-8095,1745186950528182351
450209,-331,67,56,-978,3592,-8158,1745186950528182351
450401,-250,103,53,-881,3671,-8138,1745186950528182351
450593,-167,133,47,-717,3572,-8087,1745186950528182351
450785,-92,155,41,-549,3370,-8070,1745186950528182351
450977,-40,165,40,-402,3080,-8077,1745186950528182351
451169,-17,163,38,-287,2764,-8070,1745186950586298122
451361,-23,146,36,-178,2515,-8055,1745186950586298122
451553,-53,117,35,-107,2382,-8048,1745186950586298122
451745,-103,85,35,-80,2317,-8103,1745186950586298122
451937,-162,57,36,-103,2297,-8121,1745186950586298122
452129,-213,40,37,-177,2321,-8160,1745186950586298122
452321,-242,35,35,-244,2396,-8214,1745186950586298122
452513,-248,37,30,-327,2488,-8276,1745186950586298122
452705,-238,44,24,-385,2580,-8390,1745186950586298122
452897,-218,51,20,-412,2671,-8436,1745186950586298122
453089,-198,60,15,-436,2737,-8419,1745186950586298122
453281,-185,70,9,-428,2769,-8367,1745186950586298122
453473,-173,80,4,-391,2752,-8297,1745186950661604465
453665,-159,88,-1,-362,2720,-8215,1745186950661604465
453857,-143,92,-3,-352,2726,-8114,1745186950661604465
454049,-126,88,-8,-365,2700,-8041,1745186950661604465
454241,-101,84,-14,-373,2604,-7979,1745186950661604465
454433,-69,83,-19,-415,2581,-8001,1745186950661604465
454625,-31,80,-21,-452,2581,-8057,1745186950661604465
454817,4,77,-21,-484,2599,-8146,1745186950661604465
455009,30,74,-17,-476,2636,-8281,1745186950661604465
455201,51,71,-13,-458,2630,-8373,1745186950661604465
455393,71,70,-12,-443,2610,-8409,1745186950661604465
455585,90,67,-14,-417,2591,-8419,1745186950661604465
455777,104,62,-16,-406,2517,-8372,1745186950708033937
455969,110,56,-20,-382,2381,-8295,1745186950708033937
456161,110,46,-21,-398,2172,-8180,1745186950708033937
456353,104,35,-16,-451,1945,-8090,1745186950708033937
456545,90,28,-6,-515,1796,-8037,1745186950708033937
456737,67,25,4,-554,1703,-8033,1745186950708033937
456929,44,26,14,-559,1791,-8087,1745186950708033937
457121,25,28,18,-573,2002,-8095,1745186950708033937
457313,1,33,17,-567,2225,-8002,1745186950708033937
457505,-14,35,14,-571,2400,-7949,1745186950708033937
457697,-14,37,16,-559,2560,-7909,1745186950708033937
457889,0,39,27,-560,2726,-7859,1745186950708033937
458081,23,41,40,-545,2882,-7802,1745186950766240072
458273,47,46,48,-520,2977,-7786,1745186950766240072
458465,72,53,51,-523,2998,-7840,1745186950766240072
458657,100,59,55,-504,2925,-7909,1745186950766240072
458849,135,60,66,-464,2811,-7959,1745186950766240072
459041,163,53,80,-411,2670,-7969,1745186950766240072
459233,173,43,89,-358,2538,-7951,1745186950766240072
459425,161,33,90,-340,2403,-7937,1745186950766240072
459617,131,23,82,-343,2308,-7896,1745186950766240072
459809,94,11,68,-388,2238,-7863,1745186950766240072
460001,61,-1,50,-477,2276,-7882,1745186950766240072
460193,37,-10,32,-536,2393,-7901,1745186950766240072
460385,19,-12,14,-617,2517,-7902,1745186950821010457
460577,9,-4,-1,-672,2608,-7862,1745186950821010457
460769,11,11,-12,-693,2640,-7832,1745186950821010457
460961,22,29,-19,-647,2709,-7828,1745186950821010457
461153,32,49,-22,-576,2784,-7843,1745186950821010457
461345,33,65,-24,-478,2845,-7903,1745186950821010457
461537,32,73,-32,-363,2831,-7898,1745186950821010457
461729,31,70,-42,-262,2821,-7841,1745186950821010457
461921,39,60,-53,-207,2797,-7788,1745186950821010457
462113,48,42,-65,-212,2840,-7749,1745186950821010457
462305,57,23,-79,-246,2894,-7755,1745186950821010457
462497,68,5,-92,-287,2881,-7777,1745186950821010457
462689,82,-11,-107,-341,2852,-7794,1745186950876732708
462881,96,-19,-125,-401,2750,-7816,1745186950876732708
463073,110,-20,-141,-460,2687,-7806,1745186950876732708
463265,120,-10,-151,-481,2636,-7818,1745186950876732708
463457,124,0,-155,-483,2533,-7822,1745186950876732708
463649,123,12,-154,-449,2407,-7815,1745186950876732708
463841,119,23,-150,-406,2278,-7801,1745186950876732708
464033,112,28,-144,-357,2131,-7808,1745186950876732708
464225,96,28,-142,-358,1984,-7816,1745186950876732708
464417,71,24,-137,-322,1886,-7842,1745186950876732708
464609,37,18,-133,-321,1850,-7837,1745186950876732708
464801,2,11,-131,-359,1858,-7842,1745186950876732708
464993,-27,8,-131,-391,1940,-7790,1745186950937022678
465185,-44,11,-132,-415,2108,-7767,1745186950937022678
465377,-51,14,-136,-456,2319,-7757,1745186950937022678
465569,-45,19,-142,-423,2501,-7773,1745186950937022678
465761,-25,21,-150,-413,2567,-7749,1745186950937022678
465953,3,25,-155,-396,2576,-7716,1745186950937022678
466145,32,26,-148,-388,2514,-7704,1745186950937022678
466337,61,25,-130,-365,2384,-7688,1745186950937022678
466529,86,22,-106,-354,2241,-7709,1745186950937022678
466721,99,18,-87,-385,2073,-7713,1745186950937022678
466913,99,14,-77,-422,1917,-7733,1745186950937022678
467105,89,10,-81,-455,1819,-7753,1745186950937022678
467297,72,9,-91,-477,1776,-7767,1745186950995130273
467489,54,7,-101,-511,1774,-7785,1745186950995130273
467681,35,6,-108,-554,1808,-7770,1745186950995130273
467873,21,6,-109,-576,1879,-7759,1745186950995130273
468065,12,8,-105,-583,1940,-7745,1745186950995130273
468257,9,11,-97,-568,2015,-7711,1745186950995130273
468449,11,16,-90,-535,2103,-7696,1745186950995130273
468641,15,19,-88,-480,2180,-7658,1745186950995130273
468833,19,21,-86,-421,2243,-7647,1745186950995130273
469025,24,17,-88,-374,2285,-7610,1745186950995130273
469217,34,11,-91,-351,2231,-7555,1745186950995130273
469409,49,4,-96,-353,2165,-7495,1745186950995130273
469601,64,1,-103,-362,2052,-7501,1745186951053044171
469793,79,-4,-110,-408,1996,-7512,1745186951053044171
469985,90,-13,-113,-462,1943,-7532,1745186951053044171
470177,92,-21,-115,-551,1909,-7602,1745186951053044171
470369,86,-28,-116,-644,1898,-7656,1745186951053044171
470561,81,-27,-115,-724,1846,-7730,1745186951053044171
470753,77,-17,-111,-776,1800,-7773,1745186951053044171
470945,76,-1,-105,-803,1811,-7860,1745186951053044171
471137,71,19,-99,-801,1841,-7938,1745186951053044171
471329,62,36,-91,-760,1875,-7970,1745186951053044171
471521,51,48,-82,-696,1878,-7985,1745186951053044171
471713,42,59,-72,-623,1833,-7967,1745186951053044171
471905,36,68,-63,-556,1806,-7973,1745186951113116851
472097,27,70,-57,-496,1817,-7965,1745186951113116851
472289,7,66,-55,-441,1827,-7946,1745186951113116851
472481,-16,53,-51,-402,1830,-7883,1745186951113116851
472673,-37,36,-45,-389,1836,-7851,1745186951113116851
472865,-49,18,-38,-412,1904,-7850,1745186951113116851
473057,-55,2,-32,-446,2013,-7850,1745186951113116851
473249,-57,-13,-30,-492,2122,-7899,1745186951113116851
473441,-53,-23,-35,-557,2224,-7942,1745186951113116851
473633,-41,-26,-46,-637,2309,-8009,1745186951113116851
473825,-22,-24,-57,-704,2359,-8059,1745186951113116851
474017,5,-17,-66,-722,2362,-8039,1745186951113116851
474209,38,-10,-69,-727,2317,-8041,1745186951171620327
474401,72,-2,-69,-705,2250,-8056,1745186951171620327
474593,97,6,-72,-645,2155,-8065,1745186951171620327
474785,111,11,-78,-593,1986,-8013,1745186951171620327
474977,113,15,-83,-545,1751,-7947,1745186951171620327
475169,110,15,-83,-532,1469,-7953,1745186951171620327
475361,108,10,-75,-534,1217,-7975,1745186951171620327
475553,97,3,-65,-528,1028,-8042,1745186951171620327
475745,66,-2,-59,-546,971,-8109,1745186951171620327
475937,20,-6,-59,-536,971,-8112,1745186951171620327
476129,-34,-8,-63,-518,1023,-8035,1745186951171620327
476321,-85,-11,-65,-511,1106,-7950,1745186951171620327
476513,-128,-12,-58,-486,1187,-7882,1745186951227473515
476705,-159,-14,-45,-480,1283,-7805,1745186951227473515
476897,-179,-13,-26,-464,1392,-7744,1745186951227473515
477089,-189,-12,-4,-439,1527,-7722,1745186951227473515
477281,-193,-10,17,-404,1638,-7687,1745186951227473515
477473,-190,-7,36,-380,1756,-7645,1745186951227473515
477665,-182,-5,51,-344,1846,-7658,1745186951227473515
477857,-167,-5,62,-308,1935,-7669,1745186951227473515
478049,-150,-8,72,-304,2035,-7642,1745186951227473515
478241,-134,-13,77,-313,2099,-7611,1745186951227473515
478433,-118,-18,79,-323,2175,-7599,1745186951227473515
478625,-99,-20,80,-336,2189,-7579,1745186951227473515
478817,-74,-20,82,-380,2177,-7575,1745186951287632809
479009,-48,-18,84,-436,2174,-7579,1745186951287632809
479201,-27,-12,86,-454,2169,-7633,1745186951287632809
479393,-14,-8,84,-479,2203,-7646,1745186951287632809
479585,-8,-7,76,-512,2218,-7661,1745186951287632809
479777,-6,-7,65,-554,2207,-7653,1745186951287632809
479969,-2,-4,54,-614,2189,-7657,1745186951287632809
480161,4,3,46,-658,2148,-7668,1745186951287632809
480353,8,15,40,-663,2085,-7674,1745186951287632809
480545,8,30,40,-631,2023,-7695,1745186951287632809
480737,4,43,43,-617,1975,-7664,1745186951287632809
480929,-4,48,44,-581,1965,-7662,1745186951287632809
481121,-17,48,41,-542,1998,-7657,1745186951346179618
481313,-27,45,37,-513,2095,-7645,1745186951346179618
481505,-33,42,27,-490,2227,-7644,1745186951346179618
481697,-34,40,13,-474,2360,-7656,1745186951346179618
481889,-29,39,1,-458,2505,-7646,1745186951346179618
482081,-17,36,-9,-459,2588,-7641,1745186951346179618
482273,1,30,-18,-459,2665,-7640,1745186951346179618
482465,22,21,-25,-483,2655,-7602,1745186951346179618
482657,44,13,-32,-519,2591,-7594,1745186951346179618
482849,75,9,-37,-568,2471,-7602,1745186951346179618
483041,104,8,-41,-622,2350,-7642,1745186951346179618
483233,124,13,-45,-649,2243,-7705,1745186951346179618
483425,127,26,-46,-676,2114,-7763,1745186951405024757
483617,122,44,-46,-644,1987,-7830,1745186951405024757
483809,114,59,-46,-583,1924,-7889,1745186951405024757
484001,101,67,-46,-508,1896,-7942,1745186951405024757
484193,81,68,-46,-458,1885,-7987,1745186951405024757
484385,59,63,-45,-418,1907,-7998,1745186951405024757
484577,40,53,-49,-439,1883,-7998,1745186951405024757
484769,27,39,-53,-467,1866,-7993,1745186951405024757
484961,19,22,-57,-551,1843,-7978,1745186951405024757
485153,14,5,-59,-636,1819,-7947,1745186951405024757
485345,9,-8,-58,-748,1806,-7873,1745186951405024757
485537,-1,-10,-51,-847,1743,-7796,1745186951405024757
485729,-7,-2,-41,-923,1679,-7766,1745186951461808301
485921,-2,11,-28,-968,1633,-7730,1745186951461808301
486113,8,25,-15,-970,1672,-7719,1745186951461808301
486305,18,40,-4,-952,1721,-7701,1745186951461808301
486497,23,53,2,-903,1815,-7712,1745186951461808301
486689,27,61,4,-849,1924,-7676,1745186951461808301
486881,31,65,2,-812,2062,-7627,1745186951461808301
487073,39,64,2,-742,2199,-7601,1745186951461808301
487265,55,61,7,-709,2308,-7563,1745186951461808301
487457,76,58,19,-671,2374,-7560,1745186951461808301
487649,103,56,33,-651,2376,-7573,1745186951461808301
487841,133,56,51,-624,2344,-7604,1745186951461808301
488033,160,58,67,-597,2270,-7646,1745186951520689013
488225,178,62,79,-544,2223,-7749,1745186951520689013
488417,185,68,84,-504,2186,-7779,1745186951520689013
488609,177,74,80,-450,2150,-7797,1745186951520689013
488801,162,78,72,-388,2141,-7809,1745186951520689013
488993,147,79,62,-335,2128,-7796,1745186951520689013
489185,133,76,52,-283,2119,-7772,1745186951520689013
489377,118,70,45,-277,2119,-7722,1745186951520689013
489569,101,61,38,-282,2087,-7740,1745186951520689013
489761,82,51,33,-325,2072,-7762,1745186951520689013
489953,64,44,28,-392,2072,-7782,1745186951520689013
490145,39,40,21,-456,2066,-7817,1745186951520689013
490337,14,42,12,-491,2056,-7860,1745186951579247385
490529,-5,51,0,-512,2091,-7885,1745186951579247385
490721,-18,62,-15,-508,2146,-7911,1745186951579247385
490913,-29,75,-32,-470,2222,-7889,1745186951579247385
491105,-41,87,-48,-456,2245,-7870,1745186951579247385
491297,-47,92,-59,-412,2282,-7844,1745186951579247385
491489,-47,94,-67,-352,2336,-7864,1745186951579247385
491681,-48,94,-71,-333,2355,-7883,1745186951579247385
491873,-47,92,-77,-308,2378,-7872,1745186951579247385
492065,-42,88,-80,-297,2399,-7870,1745186951579247385
492257,-31,80,-84,-312,2423,-7934,1745186951579247385
492449,-18,70,-91,-335,2453,-7995,1745186951579247385
492641,-7,63,-99,-378,2436,-8003,1745186951641314057
492833,5,57,-108,-443,2385,-8007,1745186951641314057
493025,20,58,-112,-523,2285,-8010,1745186951641314057
493217,33,64,-114,-545,2225,-8033,1745186951641314057
493409,42,75,-111,-551,2129,-8046,1745186951641314057
493601,45,87,-107,-519,2079,-8090,1745186951641314057
493793,46,97,-103,-468,2081,-8137,1745186951641314057
493985,46,104,-103,-359,2089,-8186,1745186951641314057
494177,42,106,-107,-256,2092,-8198,1745186951641314057
494369,34,99,-112,-183,2092,-8195,1745186951641314057
494561,28,84,-119,-127,2080,-8166,1745186951641314057
494753,24,61,-123,-102,2110,-8156,1745186951641314057
494945,19,36,-126,-123,2136,-8133,1745186951695029973
495137,15,13,-127,-149,2175,-8118,1745186951695029973
495329,13,-5,-130,-194,2181,-8096,1745186951695029973
495521,15,-15,-132,-256,2135,-8075,1745186951695029973
495713,17,-20,-138,-311,2077,-8056,1745186951695029973
495905,16,-21,-143,-352,1952,-8029,1745186951695029973
496097,8,-17,-147,-359,1783,-7991,1745186951695029973
496289,-7,-11,-149,-359,1642,-7991,1745186951695029973
496481,-31,-2,-149,-334,1552,-7971,1745186951695029973
496673,-64,8,-149,-269,1548,-7977,1745186951695029973
496865,-102,13,-149,-187,1545,-7944,1745186951695029973
497057,-133,13,-150,-121,1567,-7938,1745186951695029973
497249,-154,8,-150,-68,1603,-7938,1745186951753407304
497441,-164,-3,-150,-9,1672,-7972,1745186951753407304
497633,-172,-15,-151,-21,1751,-7969,1745186951753407304
497825,-183,-27,-150,-34,1783,-7938,1745186951753407304
498017,-191,-37,-146,-87,1785,-7891,1745186951753407304
498209,-194,-45,-138,-168,1788,-7838,1745186951753407304
498401,-194,-48,-126,-225,1800,-7772,1745186951753407304
498593,-195,-45,-116,-283,1839,-7712,1745186951753407304
498785,-193,-39,-111,-315,1846,-7669,1745186951753407304
498977,-188,-29,-109,-333,1895,-7611,1745186951753407304
499169,-177,-18,-107,-362,1899,-7597,1745186951753407304
499361,-158,-7,-101,-399,1873,-7650,1745186951753407304
499553,-132,1,-92,-428,1849,-7738,1745186951814732785
499745,-108,8,-84,-453,1898,-7872,1745186951814732785
499937,-97,14,-80,-444,1978,-7994,1745186951814732785
500129,-95,21,-78,-426,2029,-8067,1745186951814732785
500321,-90,29,-76,-416,2045,-8124,1745186951814732785
500513,-78,34,-71,-367,2071,-8122,1745186951814732785
500705,-62,39,-61,-337,2108,-8103,1745186951814732785
500897,-49,42,-49,-306,2132,-8071,1745186951814732785
501089,-38,43,-40,-288,2129,-8011,1745186951814732785
501281,-29,39,-35,-272,2078,-7950,1745186951814732785
501473,-19,31,-32,-273,2014,-7890,1745186951814732785
501665,-9,24,-30,-297,1940,-7857,1745186951814732785
501857,0,16,-31,-360,1919,-7834,1745186951886754107
502049,3,10,-37,-407,1918,-7797,1745186951886754107
502241,6,9,-46,-464,1909,-7809,1745186951886754107
502433,15,12,-54,-497,1870,-7822,1745186951886754107
502625,32,20,-61,-519,1874,-7865,1745186951886754107
502817,48,31,-66,-530,1905,-7893,1745186951886754107
503009,57,43,-71,-502,1890,-7897,1745186951886754107
503201,61,52,-77,-448,1907,-7930,1745186951886754107
503393,65,59,-83,-374,1831,-7922,1745186951886754107
503585,70,61,-85,-307,1757,-7894,1745186951886754107
503777,72,58,-84,-249,1658,-7887,1745186951886754107
503969,68,49,-79,-196,1564,-7886,1745186951886754107
504161,51,36,-73,-186,1482,-7850,1745186951929687621
504353,28,20,-64,-201,1405,-7827,1745186951929687621
504545,4,3,-54,-234,1364,-7812,1745186951929687621
504737,-16,-11,-46,-304,1402,-7824,1745186951929687621
504929,-36,-21,-41,-347,1459,-7836,1745186951929687621
505121,-54,-25,-40,-409,1515,-7867,1745186951929687621
505313,-66,-27,-39,-479,1604,-7889,1745186951929687621
505505,-68,-24,-36,-542,1686,-7916,1745186951929687621
505697,-66,-16,-30,-563,1758,-7932,1745186951929687621
505889,-64,-5,-22,-562,1796,-7933,1745186951929687621
506081,-59,8,-13,-539,1779,-7936,1745186951929687621
506273,-48,19,-5,-498,1744,-7966,1745186951929687621
506465,-35,25,0,-447,1739,-7995,1745186951994871504
506657,-30,27,0,-406,1786,-8011,1745186951994871504
506849,-33,24,-3,-385,1825,-7992,1745186951994871504
507041,-36,19,-8,-375,1876,-7967,1745186951994871504
507233,-31,12,-11,-417,1911,-7928,1745186951994871504
507425,-21,3,-8,-482,1955,-7904,1745186951994871504
507617,-6,-3,-3,-533,2022,-7905,1745186951994871504
507809,11,-3,1,-566,2088,-7918,1745186951994871504
508001,27,4,3,-616,2120,-7938,1745186951994871504
508193,44,14,4,-629,2062,-7922,1745186951994871504
508385,62,24,8,-632,1980,-7933,1745186951994871504
508577,76,31,13,-621,1875,-7968,1745186951994871504
508769,79,37,21,-579,1787,-7986,1745186952045469063
508961,69,40,26,-517,1776,-7983,1745186952045469063
509153,53,39,28,-451,1788,-7980,1745186952045469063
509345,34,33,26,-396,1859,-7970,1745186952045469063
509537,22,22,21,-375,1928,-7973,1745186952045469063
509729,20,9,17,-355,2015,-7953,1745186952045469063
509921,24,-4,13,-374,2064,-7928,1745186952045469063
510113,29,-15,10,-428,2065,-7929,1745186952045469063
510305,34,-23,11,-502,2043,-7925,1745186952045469063
510497,40,-26,14,-562,2039,-7944,1745186952045469063
510689,41,-25,14,-606,2051,-7971,1745186952045469063
510881,34,-19,13,-629,2068,-7970,1745186952045469063
511073,21,-11,8,-631,2043,-7953,1745186952105848147
511265,12,-3,4,-595,2062,-7906,1745186952105848147
511457,9,3,2,-548,2065,-7893,1745186952105848147
511649,9,8,1,-477,2074,-7886,1745186952105848147
511841,10,10,1,-427,2075,-7873,1745186952105848147
512033,11,5,0,-404,2117,-7827,1745186952105848147
512225,11,-3,-2,-400,2145,-7838,1745186952105848147
512417,4,-12,-5,-385,2170,-7807,1745186952105848147
512609,-4,-17,-7,-426,2192,-7814,1745186952105848147
512801,-6,-20,-6,-465,2195,-7809,1745186952105848147
512993,-6,-19,-2,-510,2189,-7809,1745186952105848147
513185,-7,-18,1,-494,2180,-7801,1745186952105848147
513377,-10,-12,2,-502,2193,-7767,1745186952165027971
513569,-12,-4,2,-489,2219,-7756,1745186952165027971
513761,-12,6,2,-467,2239,-7753,1745186952165027971
513953,-10,12,1,-426,2272,-7783,1745186952165027971
514145,-8,16,-2,-379,2289,-7788,1745186952165027971
514337,-5,15,-9,-353,2311,-7788,1745186952165027971
514529,0,13,-15,-337,2341,-7817,1745186952165027971
514721,6,7,-22,-334,2337,-7813,1745186952165027971
514913,9,2,-26,-357,2329,-7788,1745186952165027971
515105,10,-2,-28,-402,2295,-7767,1745186952165027971
515297,11,-2,-27,-427,2228,-7708,1745186952165027971
515489,9,-2,-26,-454,2185,-7657,1745186952165027971
515681,4,0,-24,-469,2109,-7606,1745186952222225782
515873,-4,4,-24,-476,2075,-7593,1745186952222225782
516065,-14,9,-25,-458,2031,-7608,1745186952222225782
516257,-19,13,-26,-433,2043,-7640,1745186952222225782
516449,-27,13,-30,-416,2130,-7683,1745186952222225782
516641,-36,10,-36,-408,2208,-7732,1745186952222225782
516833,-44,5,-43,-410,2304,-7745,1745186952222225782
517025,-48,-2,-48,-423,2393,-7755,1745186952222225782
517217,-47,-6,-51,-432,2435,-7755,1745186952222225782
517409,-40,-8,-53,-450,2443,-7724,1745186952222225782
517601,-26,-9,-56,-479,2461,-7697,1745186952222225782
517793,-12,-9,-63,-514,2450,-7670,1745186952222225782
517985,0,-8,-72,-540,2486,-7675,1745186952281368679
518177,8,-6,-82,-561,2502,-7697,1745186952281368679
518369,14,-3,-94,-581,2500,-7725,1745186952281368679
518561,23,0,-107,-582,2470,-7746,1745186952281368679
518753,31,6,-119,-557,2431,-7747,1745186952281368679
518945,38,13,-131,-550,2378,-7736,1745186952281368679
519137,39,18,-140,-521,2372,-7725,1745186952281368679
519329,34,19,-148,-499,2415,-7731,1745186952281368679
519521,26,18,-157,-469,2453,-7744,1745186952281368679
519713,18,16,-168,-439,2522,-7752,1745186952281368679
519905,14,15,-181,-411,2546,-7707,1745186952281368679
520097,11,14,-197,-387,2545,-7634,1745186952281368679
520289,2,8,-208,-392,2428,-7538,1745186952339841634
520481,-5,-1,-209,-453,2228,-7493,1745186952339841634
520673,-3,-11,-202,-547,2020,-7487,1745186952339841634
520865,-4,-20,-195,-657,1923,-7557,1745186952339841634
521057,-21,-22,-192,-733,1935,-7641,1745186952339841634
521249,-53,-15,-196,-778,2044,-7736,1745186952339841634
521441,-82,0,-203,-795,2180,-7811,1745186952339841634
521633,-100,12,-210,-745,2323,-7844,1745186952339841634
521825,-105,22,-211,-677,2453,-7848,1745186952339841634
522017,-105,28,-209,-600,2578,-7835,1745186952339841634
522209,-103,30,-205,-515,2658,-7787,1745186952339841634
522401,-102,29,-203,-454,2731,-7730,1745186952339841634
522593,-99,28,-202,-406,2830,-7660,1745186952399053385
522785,-92,24,-204,-343,2955,-7608,1745186952399053385
522977,-81,16,-213,-305,3073,-7543,1745186952399053385
523169,-66,6,-229,-301,3203,-7511,1745186952399053385
523361,-47,-5,-251,-348,3325,-7511,1745186952399053385
523553,-27,-17,-278,-432,3438,-7528,1745186952399053385
523745,-6,-22,-306,-532,3475,-7609,1745186952399053385
523937,15,-20,-331,-648,3516,-7657,1745186952399053385
524129,33,-11,-354,-759,3516,-7699,1745186952399053385
524321,44,6,-374,-796,3487,-7737,1745186952399053385
524513,41,26,-393,-814,3444,-7715,1745186952399053385
524705,36,42,-409,-802,3424,-7719,1745186952399053385
524897,26,57,-427,-777,3413,-7718,1745186952456398278
525089,14,71,-445,-747,3423,-7735,1745186952456398278
525281,2,83,-466,-686,3493,-7722,1745186952456398278
525473,-11,88,-490,-636,3550,-7697,1745186952456398278
525665,-22,86,-516,-613,3635,-7657,1745186952456398278
525857,-30,80,-543,-605,3777,-7598,1745186952456398278
526049,-34,73,-567,-634,3988,-7628,1745186952456398278
526241,-34,67,-594,-649,4245,-7700,1745186952456398278
526433,-32,62,-623,-670,4531,-7771,1745186952456398278
526625,-22,59,-653,-683,4754,-7833,1745186952456398278
526817,-3,54,-684,-690,4934,-7885,1745186952456398278
527009,18,47,-715,-710,5056,-7977,1745186952456398278
527201,36,40,-746,-750,5136,-8084,1745186952515682372
527393,45,33,-777,-785,5204,-8198,1745186952515682372
527585,43,25,-811,-813,5242,-8248,1745186952515682372
527777,28,18,-848,-852,5285,-8206,1745186952515682372
527969,4,11,-892,-874,5318,-8098,1745186952515682372
528161,-22,5,-937,-924,5415,-8050,1745186952515682372
528353,-45,-3,-986,-959,5637,-7976,1745186952515682372
528545,-66,-9,-1042,-982,5920,-7957,1745186952515682372
528737,-85,-13,-1106,-982,6213,-7917,1745186952515682372
528929,-100,-8,-1176,-957,6486,-7794,1745186952515682372
529121,-94,3,-1247,-919,6737,-7697,1745186952515682372
529313,-71,11,-1313,-853,6966,-7642,1745186952515682372
529505,-31,18,-1376,-778,7203,-7647,1745186952579052366
529697,16,21,-1441,-675,7400,-7628,1745186952579052366
529889,63,21,-1509,-550,7578,-7690,1745186952579052366
530081,108,18,-1586,-440,7728,-7781,1745186952579052366
530273,141,10,-1669,-362,7837,-7884,1745186952579052366
530465,158,-2,-1756,-265,7911,-7948,1745186952579052366
530657,158,-23,-1844,-214,7890,-8001,1745186952579052366
530849,146,-46,-1936,-153,7852,-8012,1745186952579052366
531041,130,-70,-2026,-113,7879,-7988,1745186952579052366
531233,116,-92,-2117,-81,7972,-7910,1745186952579052366
531425,104,-107,-2209,-16,8101,-7850,1745186952579052366
531617,93,-117,-2303,65,8269,-7791,1745186952579052366
531809,84,-122,-2401,161,8399,-7733,1745186952636891108
532193,71,-125,-2600,430,8507,-7695,1745186952636891108
532385,68,-128,-2695,597,8541,-7692,1745186952636891108
532577,69,-134,-2790,770,8629,-7637,1745186952636891108
532769,68,-139,-2889,960,8777,-7566,1745186952636891108
532961,68,-145,-2990,1160,8869,-7536,1745186952636891108
533153,73,-147,-3094,1377,8929,-7545,1745186952636891108
533345,95,-148,-3201,1585,8977,-7533,1745186952636891108
533537,131,-152,-3309,1792,9033,-7552,1745186952636891108
533729,172,-159,-3418,2004,9053,-7501,1745186952636891108
533921,205,-168,-3528,2208,9065,-7407,1745186952636891108
534113,231,-180,-3635,2405,9037,-7271,1745186952636891108
534305,253,-192,-3738,2603,8999,-7156,1745186952706671721
534497,269,-205,-3835,2805,8851,-7000,1745186952706671721
534689,281,-217,-3925,3043,8631,-6806,1745186952706671721
534881,291,-229,-4007,3278,8372,-6726,1745186952706671721
535073,307,-239,-4081,3526,8163,-6685,1745186952706671721
535265,335,-252,-4155,3748,8051,-6595,1745186952706671721
535457,378,-271,-4229,3982,7956,-6397,1745186952706671721
535649,429,-303,-4309,4177,7867,-6188,1745186952706671721
535841,490,-339,-4393,4340,7751,-5991,1745186952706671721
536033,561,-372,-4479,4447,7596,-5777,1745186952706671721
536225,643,-403,-4556,4542,7432,-5573,1745186952706671721
536417,729,-432,-4623,4619,7280,-5382,1745186952706671721
536609,812,-454,-4684,4714,7166,-5230,1745186952776721133
536801,884,-468,-4742,4815,7124,-5207,1745186952776721133
536993,946,-466,-4798,4984,7160,-5307,1745186952776721133
537185,1008,-455,-4857,5177,7348,-5338,1745186952776721133
537377,1076,-437,-4916,5430,7588,-5141,1745186952776721133
537569,1139,-425,-4969,5755,7633,-4978,1745186952776721133
537761,1214,-437,-5015,6102,7366,-5202,1745186952776721133
537953,1341,-472,-5055,6390,7067,-5456,1745186952776721133
538145,1526,-522,-5089,6657,6946,-5298,1745186952776721133
538337,1727,-602,-5124,6896,6788,-5017,1745186952776721133
538529,1925,-696,-5169,7097,6492,-4801,1745186952776721133
538721,2122,-780,-5215,7229,6088,-4609,1745186952776721133
538913,2353,-852,-5252,7273,5484,-4185,1745186952812771585
539105,2602,-941,-5281,7292,4528,-3695,1745186952812771585
539297,2830,-1069,-5319,7314,3267,-3502,1745186952812771585
539489,2985,-1231,-5381,7291,1858,-3679,1745186952812771585
539681,3024,-1397,-5472,7117,522,-4006,1745186952812771585
539873,2932,-1539,-5562,6814,-647,-4466,1745186952812771585
540065,2769,-1662,-5630,6407,-1622,-4872,1745186952812771585
540257,2593,-1748,-5658,5944,-2325,-4954,1745186952812771585
540449,2446,-1798,-5631,5517,-2882,-4671,1745186952812771585
540641,2332,-1838,-5567,5088,-3358,-4410,1745186952812771585
540833,2267,-1874,-5494,4546,-4044,-4187,1745186952812771585
541025,2249,-1875,-5377,3936,-4661,-3993,1745186952812771585
541217,2127,-1867,-5139,4180,-6045,-5319,1745186952880384561
541409,1849,-1830,-5160,3945,-7436,-3981,1745186952880384561
541601,1714,-1832,-5189,3414,-7817,-4361,1745186952880384561
541793,1459,-1812,-5119,3166,-8292,-4164,1745186952880384561
541985,1155,-1760,-5036,2860,-8448,-3673,1745186952880384561
542177,838,-1685,-4933,2612,-8529,-3175,1745186952880384561
542369,515,-1629,-4838,2390,-8348,-2867,1745186952880384561
542561,211,-1547,-4738,2217,-7966,-2671,1745186952880384561
542753,-59,-1440,-4631,2134,-7555,-2541,1745186952880384561
542945,-279,-1323,-4528,2136,-7160,-2414,1745186952880384561
543137,-440,-1183,-4422,2203,-6875,-2391,1745186952880384561
543329,-537,-1035,-4312,2350,-6675,-2404,1745186952880384561
543521,-570,-884,-4199,2551,-6658,-2298,1745186952929570101
543713,-563,-754,-4085,2792,-6917,-2262,1745186952929570101
543905,-538,-634,-3975,3023,-7503,-2424,1745186952929570101
544097,-509,-523,-3869,3174,-8351,-2791,1745186952929570101
544289,-474,-429,-3765,3226,-9339,-3167,1745186952929570101
544481,-434,-350,-3660,3181,-10255,-3608,1745186952929570101
544673,-424,-287,-3560,3018,-10990,-4015,1745186952929570101
544865,-455,-227,-3467,2772,-11457,-4233,1745186952929570101
545057,-538,-158,-3380,2438,-11514,-4255,1745186952929570101
545249,-690,-77,-3279,2081,-11368,-4170,1745186952929570101
545441,-862,39,-3144,1809,-11017,-4165,1745186952929570101
545633,-1050,174,-2981,1629,-10540,-4190,1745186952929570101
545825,-1237,308,-2804,1578,-9963,-4163,1745186952991365995
546017,-1408,429,-2616,1626,-9325,-4194,1745186952991365995
546209,-1557,547,-2416,1718,-8674,-4265,1745186952991365995
546401,-1676,660,-2204,1874,-8124,-4423,1745186952991365995
546593,-1755,767,-2000,2069,-7780,-4770,1745186952991365995
546785,-1796,873,-1818,2219,-7688,-5281,1745186952991365995
546977,-1804,971,-1657,2333,-7720,-5768,1745186952991365995
547169,-1807,1057,-1505,2434,-7796,-6099,1745186952991365995
547361,-1828,1125,-1350,2513,-7855,-6358,1745186952991365995
547553,-1877,1172,-1183,2585,-7875,-6476,1745186952991365995
547745,-1948,1209,-1008,2646,-7771,-6525,1745186952991365995
547937,-2026,1247,-833,2698,-7502,-6526,1745186952991365995
548129,-2099,1292,-664,2735,-7019,-6567,1745186953116913025
548321,-2164,1343,-508,2787,-6324,-6716,1745186953116913025
548513,-2210,1385,-372,2941,-5698,-6660,1745186953116913025
548705,-2157,1437,-258,3063,-5098,-6826,1745186953116913025
548897,-2095,1454,-159,3288,-4870,-6901,1745186953116913025
549089,-1980,1436,-109,3601,-4670,-7098,1745186953116913025
549281,-1850,1466,-7,3691,-3772,-8281,1745186953116913025
549473,-1885,1499,158,3899,-4217,-8145,1745186953116913025
549665,-1857,1492,244,4049,-4526,-8514,1745186953116913025
549857,-1829,1464,317,4169,-4854,-8941,1745186953116913025
550049,-1810,1439,386,4218,-5043,-9319,1745186953116913025
550241,-1809,1413,460,4265,-5084,-9539,1745186953116913025
550433,-1826,1379,542,4332,-5100,-9533,1745186953126250805
550625,-1852,1352,629,4393,-5115,-9316,1745186953126250805
550817,-1870,1315,710,4493,-5058,-9210,1745186953126250805
551009,-1862,1286,790,4540,-4795,-9093,1745186953126250805
551201,-1812,1263,881,4675,-4482,-8827,1745186953126250805
551393,-1736,1225,976,4884,-4093,-8614,1745186953126250805
551585,-1638,1182,1049,5134,-3606,-8478,1745186953126250805
551777,-1516,1137,1085,5313,-2977,-8492,1745186953126250805
551969,-1348,1092,1077,5506,-2380,-8756,1745186953126250805
552161,-1148,1039,968,5504,-2331,-8612,1745186953126250805
552353,-944,969,880,5986,-32,-9321,1745186953126250805
552545,-795,925,1031,6042,-785,-9602,1745186953126250805
552737,-613,869,1054,6245,-732,-9994,1745186953166873246
552929,-457,789,1108,6475,-872,-10408,1745186953166873246
553121,-320,692,1161,6651,-1170,-10583,1745186953166873246
553313,-227,592,1194,6810,-1558,-10658,1745186953166873246
553505,-188,495,1194,6891,-1963,-10599,1745186953166873246
553697,-200,406,1169,6796,-2247,-10397,1745186953166873246
553889,-238,325,1135,6550,-2252,-10126,1745186953166873246
554081,-280,257,1098,6211,-2079,-9877,1745186953166873246
554273,-321,206,1057,5808,-1914,-9558,1745186953166873246
554465,-355,174,1007,5391,-1722,-9317,1745186953166873246
554657,-372,174,958,4979,-1522,-9199,1745186953166873246
554849,-384,205,910,4675,-1376,-9209,1745186953166873246
555041,-414,246,851,4485,-1510,-9078,1745186953224412773
555233,-426,277,784,4356,-1927,-9115,1745186953224412773
555425,-391,279,732,4302,-2127,-9448,1745186953224412773
555617,-329,280,694,4372,-1772,-9555,1745186953224412773
555809,-291,303,655,4520,-1325,-9297,1745186953224412773
556001,-281,312,600,4672,-1452,-9398,1745186953224412773
556193,-273,282,539,4809,-1899,-9602,1745186953224412773
556385,-272,239,482,4817,-1994,-9596,1745186953224412773
556577,-287,204,418,4761,-1708,-9621,1745186953224412773
556769,-304,171,352,4697,-1329,-9606,1745186953224412773
556961,-324,132,303,4606,-1264,-9331,1745186953224412773
557153,-330,80,272,4437,-1483,-9291,1745186953224412773
557345,-319,38,260,4264,-1613,-9339,1745186953284348058
557537,-331,17,244,4127,-1654,-9485,1745186953284348058
557729,-389,3,222,3997,-1754,-9662,1745186953284348058
557921,-474,-1,198,3824,-1798,-9731,1745186953284348058
558113,-559,4,183,3648,-1592,-9728,1745186953284348058
558305,-623,4,173,3512,-1191,-9615,1745186953284348058
558497,-645,-1,162,3401,-692,-9484,1745186953284348058
558689,-638,1,144,3336,-181,-9342,1745186953284348058
558881,-597,18,118,3331,281,-9267,1745186953284348058
559073,-522,35,90,3375,637,-9194,1745186953284348058
559265,-422,35,62,3467,802,-9191,1745186953284348058
559457,-298,6,25,3500,806,-9321,1745186953284348058
559649,-166,-40,-14,3465,693,-9460,1745186953338634750
559841,-56,-86,-48,3354,420,-9524,1745186953338634750
560033,19,-128,-72,3188,79,-9514,1745186953338634750
560225,49,-172,-83,2922,-333,-9412,1745186953338634750
560417,39,-216,-86,2555,-822,-9199,1745186953338634750
560609,-3,-254,-83,2090,-1332,-8875,1745186953338634750
560801,-66,-277,-79,1590,-1801,-8619,1745186953338634750
560993,-142,-277,-75,1174,-2183,-8441,1745186953338634750
561185,-223,-255,-82,872,-2402,-8339,1745186953338634750
561377,-296,-221,-107,697,-2464,-8317,1745186953338634750
561569,-355,-183,-143,654,-2474,-8348,1745186953338634750
561761,-412,-148,-164,703,-2469,-8418,1745186953338634750
561953,-471,-121,-162,857,-2371,-8416,1745186953399181176
562145,-532,-107,-148,1027,-2156,-8402,1745186953399181176
562337,-589,-98,-135,1223,-1869,-8317,1745186953399181176
562529,-639,-96,-122,1357,-1569,-8162,1745186953399181176
562721,-671,-99,-112,1464,-1285,-7980,1745186953399181176
562913,-690,-104,-105,1515,-1030,-7827,1745186953399181176
563105,-698,-109,-98,1481,-723,-7791,1745186953399181176
563297,-685,-105,-85,1447,-432,-7675,1745186953399181176
563489,-648,-94,-73,1375,-92,-7625,1745186953399181176
563681,-590,-75,-64,1324,237,-7509,1745186953399181176
563873,-513,-56,-65,1304,466,-7445,1745186953399181176
564065,-428,-39,-74,1306,577,-7420,1745186953399181176
564257,-345,-22,-81,1309,549,-7429,1745186953455659150
564449,-269,-8,-83,1308,450,-7444,1745186953455659150
564641,-205,2,-78,1337,270,-7432,1745186953455659150
564833,-144,10,-68,1338,92,-7464,1745186953455659150
565025,-86,14,-59,1352,-36,-7582,1745186953455659150
565217,-38,19,-55,1358,-157,-7643,1745186953455659150
565409,2,24,-56,1374,-281,-7659,1745186953455659150
565601,34,25,-57,1366,-406,-7642,1745186953455659150
565793,54,23,-55,1368,-532,-7663,1745186953455659150
565985,64,21,-53,1377,-645,-7692,1745186953455659150
566177,65,20,-50,1395,-724,-7736,1745186953455659150
566369,50,19,-46,1402,-773,-7755,1745186953455659150
566561,18,15,-42,1450,-821,-7795,1745186953518741542
566753,-20,15,-41,1526,-837,-7897,1745186953518741542
566945,-55,20,-40,1597,-835,-8011,1745186953518741542
567137,-75,15,-46,1634,-818,-8154,1745186953518741542
567329,-89,1,-53,1637,-789,-8277,1745186953518741542
567521,-98,-18,-55,1590,-720,-8343,1745186953518741542
567713,-105,-30,-54,1571,-617,-8365,1745186953518741542
567905,-113,-34,-52,1546,-537,-8362,1745186953518741542
568097,-119,-33,-45,1519,-507,-8314,1745186953518741542
568289,-119,-34,-31,1535,-580,-8289,1745186953518741542
568481,-112,-38,-15,1534,-668,-8213,1745186953518741542
568673,-103,-44,3,1538,-762,-8178,1745186953518741542
568865,-105,-51,19,1571,-839,-8086,1745186953572472666
569057,-119,-59,29,1599,-915,-8059,1745186953572472666
569249,-135,-66,29,1607,-917,-8029,1745186953572472666
569441,-156,-74,22,1643,-906,-7934,1745186953572472666
569633,-175,-85,12,1667,-897,-7860,1745186953572472666
569825,-195,-93,4,1684,-853,-7802,1745186953572472666
570017,-211,-103,-4,1673,-759,-7758,1745186953572472666
570209,-224,-115,-14,1649,-661,-7704,1745186953572472666
570401,-222,-125,-24,1542,-554,-7711,1745186953572472666
570593,-207,-133,-35,1457,-464,-7687,1745186953572472666
570785,-181,-134,-41,1371,-392,-7712,1745186953572472666
570977,-146,-125,-34,1339,-320,-7806,1745186953572472666
571169,-106,-111,-18,1305,-243,-7875,1745186953632881802
571361,-66,-101,-1,1277,-251,-7947,1745186953632881802
571553,-32,-97,12,1315,-322,-7992,1745186953632881802
571745,-5,-97,22,1333,-408,-8013,1745186953632881802
571937,7,-101,29,1355,-446,-8025,1745186953632881802
572129,-1,-102,32,1364,-496,-8032,1745186953632881802
572321,-18,-107,34,1341,-523,-7988,1745186953632881802
572513,-35,-111,36,1324,-460,-7969,1745186953632881802
572705,-47,-114,37,1344,-347,-7964,1745186953632881802
572897,-51,-115,31,1365,-245,-7960,1745186953632881802
573089,-39,-117,22,1414,-274,-7921,1745186953632881802
573281,-18,-119,12,1444,-349,-7932,1745186953632881802
573473,-7,-125,-1,1471,-449,-7920,1745186953691347830
573665,-9,-136,-9,1446,-549,-7953,1745186953691347830
573857,-16,-147,-7,1393,-606,-7983,1745186953691347830
574049,-15,-152,4,1348,-635,-7980,1745186953691347830
574241,-6,-155,13,1313,-605,-7982,1745186953691347830
574433,-2,-157,15,1323,-609,-8018,1745186953691347830
574625,1,-155,14,1326,-654,-8008,1745186953691347830
574817,2,-151,16,1396,-733,-7976,1745186953691347830
575009,-2,-154,17,1459,-777,-7999,1745186953691347830
575201,-15,-159,17,1521,-795,-7995,1745186953691347830
575393,-34,-170,14,1554,-791,-8004,1745186953691347830
575585,-52,-184,9,1551,-763,-8032,1745186953691347830
575777,-74,-202,-1,1455,-665,-8014,1745186953750116304
575969,-94,-215,-14,1373,-595,-8028,1745186953750116304
576161,-119,-221,-26,990,-1037,-7817,1745186953750116304
576353,-223,-187,-56,474,-1893,-8042,1745186953750116304
576545,-299,-150,-78,773,-1275,-7859,1745186953750116304
576737,-310,-147,-50,1237,-237,-8006,1745186953750116304
576929,-306,-155,-13,1463,-49,-8006,1745186953750116304
577121,-295,-167,-9,1336,-437,-7938,1745186953750116304
577313,-294,-173,-31,1241,-798,-7916,1745186953750116304
577505,-304,-182,-45,1289,-864,-7955,1745186953750116304
577697,-318,-212,-38,1522,-670,-7994,1745186953750116304
577889,-341,-252,-25,1697,-465,-8044,1745186953750116304
578081,-369,-279,-41,1705,-345,-8127,1745186953808218169
578273,-386,-294,-82,1566,-167,-8143,1745186953808218169
578465,-394,-306,-122,1435,-83,-8247,1745186953808218169
578657,-409,-318,-146,1348,-16,-8293,1745186953808218169
578849,-419,-322,-145,1226,66,-8357,1745186953808218169
579041,-437,-315,-135,1139,86,-8466,1745186953808218169
579233,-465,-295,-127,1071,79,-8518,1745186953808218169
579425,-468,-270,-125,1052,85,-8371,1745186953808218169
579617,-413,-251,-118,799,-5,-8281,1745186953808218169
579809,-347,-239,-100,487,53,-8521,1745186953808218169
580001,-347,-224,-80,699,33,-8533,1745186953808218169
580193,-355,-195,-59,595,-48,-8559,1745186953808218169
580385,-367,-159,-35,373,-27,-8533,1745186953870178176
580577,-372,-106,-6,220,63,-8500,1745186953870178176
580769,-370,-58,23,206,113,-8424,1745186953870178176
580961,-363,-14,43,356,82,-8341,1745186953870178176
581153,-367,23,57,539,-47,-8270,1745186953870178176
581345,-383,54,67,722,-125,-8213,1745186953870178176
581537,-391,77,82,799,3,-8186,1745186953870178176
581729,-389,96,98,855,175,-8182,1745186953870178176
581921,-381,110,101,894,225,-8192,1745186953870178176
582113,-372,119,95,940,271,-8124,1745186953870178176
582305,-351,125,89,980,471,-8099,1745186953870178176
582497,-319,126,89,1016,614,-7661,1745186953870178176
582689,-146,142,133,645,2759,-7896,1745186953934391027
582881,23,142,203,963,1957,-7872,1745186953934391027
583073,110,145,164,1128,384,-7876,1745186953934391027
583265,135,147,99,1218,-463,-7657,1745186953934391027
583457,157,151,106,1255,-752,-7611,1745186953934391027
583649,136,136,142,1283,-668,-7633,1745186953934391027
583841,69,121,145,1202,-1036,-7593,1745186953934391027
584033,-15,107,106,1164,-1082,-7560,1745186953934391027
584225,-78,107,70,1028,-1083,-7583,1745186953934391027
584417,-144,115,45,967,-865,-7653,1745186953934391027
584609,-187,115,28,1153,-227,-7718,1745186953934391027
584801,-180,101,20,1430,666,-7726,1745186953934391027
584993,-109,63,29,1621,1233,-7898,1745186953980903622
585185,-67,42,33,1467,481,-7939,1745186953980903622
585377,-63,23,-7,1353,-270,-7907,1745186953980903622
585569,-75,-1,-31,1393,-457,-7884,1745186953980903622
585761,-111,-33,-15,1383,-246,-7904,1745186953980903622
585953,-152,-57,17,1156,81,-7919,1745186953980903622
586145,-182,-62,34,849,253,-7898,1745186953980903622
586337,-187,-42,28,562,300,-7910,1745186953980903622
586529,-171,-8,15,445,357,-7961,1745186953980903622
586721,-149,28,12,500,398,-8005,1745186953980903622
586913,-129,63,14,652,457,-7929,1745186953980903622
587105,-106,93,14,847,447,-7989,1745186953980903622
587297,-82,110,7,1042,423,-8097,1745186954041552079
587489,-64,115,-3,1193,445,-8192,1745186954041552079
587681,-46,113,-13,1251,450,-8178,1745186954041552079
587873,-18,110,-16,1231,447,-8141,1745186954041552079
588065,17,100,-12,1236,435,-8193,1745186954041552079
588257,43,93,-12,1199,295,-8185,1745186954041552079
588449,59,90,-13,1089,173,-8138,1745186954041552079
588641,71,95,-9,1006,107,-8110,1745186954041552079
588833,79,104,0,971,107,-8092,1745186954041552079
589025,79,110,9,1008,123,-8107,1745186954041552079
589217,80,110,14,1118,114,-7988,1745186954041552079
589409,139,107,13,1248,42,-7951,1745186954041552079
589601,178,99,10,1403,190,-8251,1745186954100479613
589793,167,90,10,1497,246,-8138,1745186954100479613
589985,163,73,5,1568,229,-8158,1745186954100479613
590177,172,53,-2,1547,167,-8042,1745186954100479613
590369,207,36,-9,1396,167,-8151,1745186954100479613
590561,185,22,-9,1315,161,-8026,1745186954100479613
590753,210,16,-11,1227,-18,-7818,1745186954100479613
590945,192,15,-16,1120,191,-8398,1745186954100479613
591137,105,21,-3,1038,223,-7946,1745186954100479613
591329,110,32,2,1014,218,-7973,1745186954100479613
591521,127,45,-5,1044,205,-8030,1745186954100479613
591713,140,54,-12,1129,149,-8057,1745186954100479613
591905,145,52,-11,1226,63,-8031,1745186954158759081
592097,149,49,-5,1282,32,-8002,1745186954158759081
592289,150,45,2,1260,80,-7981,1745186954158759081
592481,148,40,5,1214,104,-7968,1745186954158759081
592673,143,39,2,1116,100,-7939,1745186954158759081
592865,135,44,-2,994,78,-7894,1745186954158759081
593057,124,55,-3,912,45,-7828,1745186954158759081
593249,114,68,0,876,11,-7772,1745186954158759081
593441,104,83,7,873,43,-7723,1745186954158759081
593633,94,97,15,899,18,-7683,1745186954158759081
593825,85,112,25,951,-31,-7641,1745186954158759081
594017,79,126,28,1022,-105,-7581,1745186954158759081
594209,79,137,25,1095,-67,-7468,1745186954222769069
594401,81,143,26,1140,-77,-7282,1745186954222769069
594593,85,150,30,1138,-57,-7148,1745186954222769069
594785,87,156,34,1110,-48,-7045,1745186954222769069
594977,91,163,41,1076,-108,-6992,1745186954222769069
595169,101,168,50,1016,-218,-6992,1745186954222769069
595361,115,179,58,1029,-282,-6854,1745186954222769069
595553,96,194,48,1036,-14,-7198,1745186954222769069
595745,26,204,23,1128,14,-7757,1745186954222769069
595937,3,216,-2,1264,-140,-7974,1745186954222769069
596129,-19,210,-24,1362,586,-9738,1745186954222769069
596321,-551,204,-6,1563,285,-5423,1745186954222769069
596513,-78,209,-51,1536,-378,-8508,1745186954275945667
596705,37,156,-121,1818,-35,-8430,1745186954275945667
596897,100,150,-112,1811,56,-8511,1745186954275945667
597089,137,142,-96,1776,59,-8247,1745186954275945667
597281,103,118,-114,1676,327,-8793,1745186954275945667
597473,45,81,-114,1625,117,-9149,1745186954275945667
597665,67,59,-96,1613,-219,-9147,1745186954275945667
597857,139,53,-74,1527,-398,-9116,1745186954275945667
598049,187,49,-48,1349,-507,-9031,1745186954275945667
598241,150,42,-31,1186,-472,-9220,1745186954275945667
598433,76,38,-7,1111,-674,-9201,1745186954275945667
598625,32,34,17,1143,-919,-8951,1745186954275945667
598817,-13,37,33,1370,-1020,-8808,1745186954343623434
599009,-85,20,48,1673,-909,-8622,1745186954343623434
599201,-160,-3,57,1798,-618,-8433,1745186954343623434
599393,-215,-26,54,1743,-377,-8297,1745186954343623434
599585,-252,-36,39,1452,-307,-8169,1745186954343623434
599777,-251,-27,21,1148,-164,-7885,1745186954343623434
599969,-145,-7,11,971,-113,-7908,1745186954343623434
600161,-96,20,16,968,119,-8047,1745186954343623434
600353,-73,44,30,1186,159,-7874,1745186954343623434
600545,-21,48,36,1445,110,-7791,1745186954343623434
600737,53,33,38,1799,121,-7920,1745186954343623434
600929,-19,18,35,1931,490,-8442,1745186954343623434
601121,-98,-7,40,1903,214,-7863,1745186954397856793
601313,-66,-21,16,1730,134,-7919,1745186954397856793
601505,-63,-32,-12,1482,-150,-7914,1745186954397856793
601697,-100,-26,-29,1081,-621,-7853,1745186954397856793
601889,-140,-10,-34,873,-688,-7805,1745186954397856793
602081,-180,10,-17,897,-738,-7819,1745186954397856793
602273,-242,21,-1,1087,-757,-7822,1745186954397856793
602465,-298,17,9,1296,-553,-7847,1745186954397856793
602657,-356,-2,14,1664,-557,-7939,1745186954397856793
602849,-427,-49,3,2098,-589,-7994,1745186954397856793
603041,-491,-106,-9,2170,-437,-8052,1745186954397856793
603233,-535,-164,-14,2017,-59,-8043,1745186954397856793
659681,-94,104,-17,1796,907,-8035,1745186955884561285
659873,-48,86,-23,1659,-1195,-8133,1745186955884561285
660065,-164,55,-60,1702,72,-7882,1745186955884561285
660257,-136,42,-28,1362,51,-7900,1745186955884561285
660449,-145,64,-6,1149,8,-7832,1745186955884561285
660641,-116,82,-6,923,132,-7834,1745186955884561285
660833,-93,98,-1,999,401,-7843,1745186955884561285
661025,-53,120,7,1247,365,-7838,1745186955884561285
661217,-25,126,18,1403,179,-7821,1745186955884561285
661409,-10,142,27,1292,-23,-7821,1745186955884561285
661601,-2,164,30,1156,-109,-7874,1745186955884561285
661793,-8,175,37,1162,-92,-7938,1745186955884561285
661985,-18,189,47,1192,-73,-8031,1745186955939504637
662177,-32,201,50,1248,-5,-8063,1745186955939504637
662369,-41,215,52,1300,58,-8105,1745186955939504637
662561,-48,225,58,1507,21,-8107,1745186955939504637
662753,-63,220,73,1759,-81,-8087,1745186955939504637
662945,-76,204,85,2058,-154,-8059,1745186955939504637
663137,-93,172,91,2321,-248,-8047,1745186955939504637
663329,-112,135,91,2396,-259,-8023,1745186955939504637
663521,-125,100,80,2371,-227,-8038,1745186955939504637
663713,-135,64,67,2225,-201,-8069,1745186955939504637
663905,-135,42,58,2086,27,-8108,1745186955939504637
664097,-132,21,45,2063,152,-8117,1745186955939504637
664289,-130,2,30,2061,175,-8184,1745186955999157686
664481,-128,-18,18,2043,124,-8296,1745186955999157686
664673,-121,-19,11,1831,304,-8367,1745186955999157686
664865,-92,-6,10,1626,682,-8400,1745186955999157686
665057,-46,16,13,1538,1035,-8356,1745186955999157686
665249,20,37,18,1563,1258,-8287,1745186955999157686
665441,98,56,20,1661,1241,-8270,1745186955999157686
665633,182,77,26,1667,1131,-8225,1745186955999157686
665825,186,153,40,1305,437,-8485,1745186955999157686
666017,383,158,94,1890,2413,-7750,1745186955999157686
666209,517,107,148,1811,827,-8116,1745186955999157686
666401,556,81,126,2351,223,-7928,1745186955999157686
666593,613,22,137,2605,-260,-7822,1745186956057846264
666785,598,-63,171,2930,-771,-7915,1745186956057846264
666977,507,-168,141,3330,-2691,-7783,1745186956057846264
667169,232,-314,23,3927,-4537,-7663,1745186956057846264
667361,-125,-455,-102,2649,-4047,-7668,1745186956057846264
667553,-417,-477,-140,1163,-2799,-7611,1745186956057846264
667745,-601,-436,-132,207,-1278,-7552,1745186956057846264
667937,-669,-352,-117,-332,157,-7546,1745186956057846264
668129,-641,-256,-111,-490,1247,-7526,1745186956057846264
668321,-535,-163,-107,-306,1855,-7458,1745186956057846264
668513,-373,-76,-84,169,1886,-7439,1745186956057846264
668705,-210,-11,-37,706,1626,-7437,1745186956057846264
668897,-68,25,6,1297,1074,-7468,1745186956187109250
669089,33,31,15,1691,518,-7480,1745186956187109250
669281,84,13,1,1948,72,-7475,1745186956187109250
669473,90,-18,-23,2021,-244,-7410,1745186956187109250
669665,72,-52,-45,1924,-392,-7412,1745186956187109250
669857,55,-85,-54,1675,-391,-7465,1745186956187109250
670049,42,-102,-44,1377,-221,-7556,1745186956187109250
670241,40,-102,-30,1120,34,-7654,1745186956187109250
670433,47,-85,-27,1018,243,-7730,1745186956187109250
670625,62,-59,-28,1042,413,-7762,1745186956187109250
670817,84,-35,-30,1162,488,-7817,1745186956187109250
671009,111,-22,-26,1326,467,-7862,1745186956187109250
671201,136,-18,-22,1482,313,-7930,1745186956194547567
671393,154,-22,-24,1596,81,-8048,1745186956194547567
671585,158,-30,-27,1638,-176,-8173,1745186956194547567
671777,148,-42,-26,1621,-363,-8263,1745186956194547567
671969,122,-55,-25,1565,-423,-8283,1745186956194547567
672161,86,-63,-27,1487,-421,-8245,1745186956194547567
672353,41,-63,-30,1422,-428,-8193,1745186956194547567
672545,1,-63,-30,1381,-416,-8222,1745186956194547567
672737,-31,-63,-28,1357,-353,-8287,1745186956194547567
672929,-58,-61,-28,1383,-275,-8299,1745186956194547567
673121,-79,-60,-37,1381,-184,-8253,1745186956194547567
673313,-92,-55,-51,1405,-151,-8179,1745186956194547567
673505,-95,-51,-58,1422,-178,-8123,1745186956230653644
673697,-86,-47,-54,1426,-175,-8110,1745186956230653644
673889,-75,-43,-44,1397,-170,-8128,1745186956230653644
674081,-66,-36,-40,1402,-111,-8157,1745186956230653644
674273,-60,-25,-48,1384,-61,-8180,1745186956230653644
674465,-59,-15,-58,1411,-31,-8189,1745186956230653644
674657,-60,-6,-68,1455,-5,-8168,1745186956230653644
674849,-64,-1,-75,1497,11,-8144,1745186956230653644
675041,-66,2,-79,1527,9,-8090,1745186956230653644
675233,-67,0,-84,1580,61,-8010,1745186956230653644
675425,-68,-3,-87,1588,6,-7983,1745186956230653644
675617,-66,-7,-90,1581,33,-7978,1745186956230653644
675809,-60,-11,-95,1544,21,-8004,1745186956290312734
676001,-54,-12,-103,1530,6,-7994,1745186956290312734
676193,-50,-13,-112,1510,-14,-7929,1745186956290312734
676385,-50,-17,-119,1498,-106,-7796,1745186956290312734
676577,-50,-23,-118,1450,-231,-7752,1745186956290312734
676769,-51,-29,-110,1418,-314,-7776,1745186956290312734
676961,-56,-31,-103,1363,-326,-7807,1745186956290312734
677153,-67,-31,-101,1314,-226,-7753,1745186956290312734
677345,-78,-29,-104,1279,-131,-7675,1745186956290312734
677537,-85,-25,-106,1264,25,-7682,1745186956290312734
677729,-87,-19,-102,1253,134,-7735,1745186956290312734
677921,-85,-13,-94,1273,221,-7815,1745186956290312734
678113,-78,-6,-85,1289,294,-7875,1745186956349711879
678305,-69,0,-77,1332,288,-7930,1745186956349711879
678497,-68,5,-68,1356,241,-8029,1745186956349711879
678689,-76,5,-57,1421,182,-8170,1745186956349711879
678881,-99,2,-46,1457,85,-8254,1745186956349711879
679073,-134,-6,-36,1488,-26,-8342,1745186956349711879
679265,-170,-14,-29,1513,-104,-8373,1745186956349711879
679457,-199,-24,-23,1499,-106,-8416,1745186956349711879
679649,-220,-33,-25,1493,16,-8476,1745186956349711879
679841,-234,-42,-39,1464,219,-8435,1745186956349711879
680033,-239,-42,-57,1436,385,-8341,1745186956349711879
680225,-240,-37,-63,1423,391,-8235,1745186956349711879
680417,-236,-32,-55,1433,259,-8136,1745186956408044211
680609,-224,-32,-40,1428,86,-8042,1745186956408044211
680801,-211,-32,-29,1402,-4,-7966,1745186956408044211
680993,-210,-25,-26,1371,20,-7895,1745186956408044211
681185,-216,-15,-29,1338,165,-7808,1745186956408044211
681377,-213,-2,-37,1326,349,-7682,1745186956408044211
681569,-191,17,-48,1328,543,-7699,1745186956408044211
681761,-140,36,-61,1364,674,-7678,1745186956408044211
681953,-69,61,-81,1397,929,-7691,1745186956408044211
682145,3,86,-107,1430,1137,-7768,1745186956408044211
682337,66,111,-129,1463,1193,-7928,1745186956408044211
682529,132,127,-131,1454,990,-8168,1745186956408044211
682721,197,135,-113,1433,579,-8418,1745186956466650655
682913,245,138,-91,1401,150,-8578,1745186956466650655
683105,261,140,-79,1350,-187,-8640,1745186956466650655
683297,235,138,-81,1312,-440,-8648,1745186956466650655
683489,176,135,-87,1274,-609,-8605,1745186956466650655
683681,94,135,-85,1271,-667,-8561,1745186956466650655
683873,8,136,-76,1303,-640,-8504,1745186956466650655
684065,-73,141,-67,1366,-542,-8336,1745186956466650655
684257,-146,149,-59,1446,-457,-8226,1745186956466650655
684449,-206,149,-55,1585,-432,-8190,1745186956466650655
684641,-246,146,-55,1724,-313,-8150,1745186956466650655
684833,-280,136,-58,1819,-185,-8110,1745186956466650655
685025,-310,125,-61,1819,11,-8016,1745186956524831530
685217,-321,118,-58,1726,160,-7848,1745186956524831530
685409,-296,121,-50,1564,326,-7750,1745186956524831530
685601,-243,132,-45,1392,585,-7803,1745186956524831530
685793,-176,144,-47,1210,870,-7937,1745186956524831530
685985,-105,161,-51,1034,1188,-7951,1745186956524831530
686177,-20,194,-50,868,1575,-7978,1745186956524831530
686369,54,240,-41,859,1876,-8208,1745186956524831530
686561,158,297,-20,938,2029,-8294,1745186956524831530
686753,331,354,6,1021,2234,-8397,1745186956524831530
686945,566,411,29,1049,2451,-8478,1745186956524831530
687137,826,468,57,1055,2506,-8529,1745186956524831530
687329,1056,514,90,1122,2164,-8517,1745186956585856024
687521,1218,538,119,1283,1309,-8581,1745186956585856024
687713,1280,529,138,1524,88,-8840,1745186956585856024
687905,1236,490,143,1736,-941,-9271,1745186956585856024
688097,1110,440,145,1908,-1473,-9618,1745186956585856024
688289,937,389,142,2073,-1518,-9894,1745186956585856024
688481,763,335,121,2209,-1222,-10119,1745186956585856024
688673,626,281,80,2333,-776,-10265,1745186956585856024
688865,554,227,34,2463,-309,-10292,1745186956585856024
689057,548,174,-12,2592,82,-10241,1745186956585856024
689249,574,121,-56,2773,206,-10343,1745186956585856024
689441,622,58,-93,2964,-17,-10540,1745186956585856024
689633,707,-19,-129,3122,-447,-10560,1745186956640044279
689825,800,-100,-168,3216,-812,-10931,1745186956640044279
690017,851,-213,-251,3206,-1213,-11078,1745186956640044279
690209,892,-281,-306,3155,-1297,-11175,1745186956640044279
690401,867,-287,-313,3120,-1047,-11422,1745186956640044279
690593,809,-283,-301,3081,-1008,-11328,1745186956640044279
690785,751,-301,-286,3065,-1181,-11266,1745186956640044279
690977,708,-332,-269,3025,-1488,-10959,1745186956640044279
691169,676,-355,-253,2972,-1807,-10861,1745186956640044279
691361,625,-362,-252,2986,-2043,-10990,1745186956640044279
691553,539,-352,-275,3065,-2133,-11072,1745186956640044279
691745,424,-331,-307,3146,-2057,-10949,1745186956640044279
691937,310,-295,-333,3220,-1853,-10716,1745186956699500194
692129,222,-264,-345,3304,-1634,-10440,1745186956699500194
692321,172,-242,-348,3371,-1480,-10127,1745186956699500194
692513,158,-223,-349,3475,-1447,-9965,1745186956699500194
692705,168,-205,-351,3562,-1495,-9865,1745186956699500194
692897,190,-193,-357,3667,-1596,-9664,1745186956699500194
693089,218,-181,-370,3735,-1747,-9463,1745186956699500194
693281,237,-165,-392,3795,-2005,-9180,1745186956699500194
693473,241,-148,-422,3825,-2326,-8982,1745186956699500194
693665,232,-129,-461,3826,-2643,-8967,1745186956699500194
693857,210,-103,-497,3839,-2932,-9010,1745186956699500194
694049,164,-76,-520,3855,-3306,-9004,1745186956699500194
694241,80,-60,-535,3913,-3764,-9087,1745186956766383073
694433,-3,-66,-570,3942,-3655,-9511,1745186956766383073
694625,-48,-36,-650,3987,-2809,-9394,1745186956766383073
694817,-22,50,-733,3971,-1862,-8762,1745186956766383073
695009,56,108,-787,4060,-1620,-8313,1745186956766383073
695201,174,122,-836,4316,-1812,-8590,1745186956766383073
695393,312,127,-888,4526,-1836,-8643,1745186956766383073
695585,455,110,-898,4707,-1669,-8354,1745186956766383073
695777,574,81,-853,4985,-1558,-8179,1745186956766383073
695969,633,58,-794,5375,-1435,-8111,1745186956766383073
696161,591,26,-762,5817,-1215,-7987,1745186956766383073
696353,457,-27,-763,6270,-857,-7860,1745186956766383073
696545,274,-94,-766,6662,-423,-7568,1745186956815488874
696737,101,-180,-744,7029,81,-7360,1745186956815488874
696929,-8,-301,-700,7320,505,-7217,1745186956815488874
697121,-43,-450,-642,7568,707,-7084,1745186956815488874
697313,5,-615,-580,7711,709,-6870,1745186956815488874
697505,116,-791,-521,7708,593,-6766,1745186956815488874
697697,266,-977,-479,7509,242,-6749,1745186956815488874
697889,442,-1166,-450,7079,-269,-6820,1745186956815488874
698081,622,-1337,-433,6417,-909,-6839,1745186956815488874
698273,777,-1468,-426,5689,-1546,-6878,1745186956815488874
698465,871,-1552,-422,4969,-2136,-7011,1745186956815488874
698657,890,-1603,-401,4286,-2644,-7205,1745186956815488874
698849,846,-1633,-352,3680,-3032,-7458,1745186956878352727
699041,749,-1637,-288,3101,-3264,-7804,1745186956878352727
699233,611,-1601,-226,2607,-3393,-7932,1745186956878352727
699425,455,-1528,-169,2195,-3442,-8010,1745186956878352727
699617,302,-1430,-102,1898,-3491,-8092,1745186956878352727
699809,175,-1319,-19,1716,-3558,-8097,1745186956878352727
700001,88,-1204,78,1620,-3665,-7820,1745186956878352727
700193,48,-1096,183,1628,-3755,-7448,1745186956878352727
700385,48,-999,292,1661,-3901,-7178,1745186956878352727
700577,81,-921,407,1728,-4043,-6985,1745186956878352727
700769,116,-862,522,1807,-4195,-6781,1745186956878352727
700961,133,-824,631,1873,-4363,-6631,1745186956878352727
701153,120,-796,733,1843,-4546,-6455,1745186956932468066
701345,75,-768,828,1726,-4780,-6138,1745186956932468066
701537,19,-740,916,1545,-5098,-5737,1745186956932468066
701729,-39,-710,1008,1376,-5495,-5572,1745186956932468066
701921,-86,-674,1109,1209,-5882,-5585,1745186956932468066
702113,-122,-634,1217,1032,-6189,-5591,1745186956932468066
702305,-155,-582,1326,935,-6344,-5548,1745186956932468066
702497,-200,-520,1426,816,-6389,-5542,1745186956932468066
702689,-261,-454,1523,669,-6329,-5499,1745186956932468066
702881,-331,-383,1628,598,-6127,-5565,1745186956932468066
703073,-400,-311,1743,601,-5914,-5717,1745186956932468066
703265,-459,-240,1866,657,-5675,-5975,1745186956932468066
703457,-505,-177,1993,759,-5394,-6326,1745186956994744997
703649,-541,-119,2119,886,-5160,-6587,1745186956994744997
703841,-563,-67,2248,1046,-4946,-6771,1745186956994744997
704033,-558,-10,2382,1222,-4718,-6885,1745186956994744997
704225,-508,47,2518,1383,-4440,-7061,1745186956994744997
704417,-419,97,2644,1578,-4138,-7231,1745186956994744997
704609,-300,135,2752,1761,-3882,-7339,1745186956994744997
704801,-158,162,2843,1933,-3617,-7349,1745186956994744997
704993,-10,174,2921,2044,-3379,-7351,1745186956994744997
705185,130,178,2998,2113,-3203,-7364,1745186956994744997
705377,258,171,3079,2146,-3048,-7347,1745186956994744997
705569,379,156,3167,2127,-3030,-7278,1745186956994744997
705761,488,138,3260,2045,-3067,-7179,1745186957064840972
705953,579,117,3354,1933,-3156,-7071,1745186957064840972
706145,645,91,3446,1808,-3318,-6941,1745186957064840972
706337,682,57,3530,1686,-3510,-6842,1745186957064840972
706529,687,34,3608,1534,-3687,-6759,1745186957064840972
706721,653,24,3684,1388,-3803,-6681,1745186957064840972
706913,571,40,3763,1265,-3808,-6706,1745186957064840972
707105,445,72,3846,1209,-3692,-6777,1745186957064840972
707297,301,113,3932,1213,-3506,-6834,1745186957064840972
707489,170,146,4022,1277,-3234,-6909,1745186957064840972
707681,76,161,4107,1391,-2909,-7049,1745186957064840972
707873,17,168,4186,1586,-2578,-7240,1745186957064840972
708065,-16,176,4254,1771,-2266,-7431,1745186957111124142
708257,-39,191,4311,1979,-1986,-7457,1745186957111124142
708449,-58,210,4353,2175,-1738,-7340,1745186957111124142
708641,-74,223,4380,2325,-1521,-7127,1745186957111124142
708833,-80,229,4400,2450,-1311,-6862,1745186957111124142
709025,-76,221,4418,2560,-1185,-6616,1745186957111124142
709217,-66,206,4440,2635,-1102,-6292,1745186957111124142
709409,-45,192,4472,2669,-1013,-6002,1745186957111124142
709601,-20,194,4517,2655,-867,-5846,1745186957111124142
709793,-12,207,4571,2655,-643,-5811,1745186957111124142
709985,-31,231,4625,2693,-353,-5908,1745186957111124142
710177,-79,262,4676,2805,-31,-5967,1745186957111124142
710369,-141,295,4717,3004,263,-5879,1745186957180982775
710561,-199,329,4748,3186,585,-5770,1745186957180982775
710753,-241,363,4774,3351,806,-5697,1745186957180982775
710945,-256,388,4803,3568,971,-5419,1745186957180982775
711137,-217,431,4815,3687,1249,-5024,1745186957180982775
711329,-132,471,4813,3765,1582,-4884,1745186957180982775
711521,-3,507,4805,3891,1992,-5134,1745186957180982775
711713,143,534,4799,4048,2369,-5420,1745186957180982775
711905,282,550,4800,4262,2628,-5684,1745186957180982775
712097,407,560,4807,4508,2822,-6034,1745186957180982775
712289,503,566,4815,4717,2893,-6428,1745186957180982775
712481,571,575,4825,4849,2716,-6629,1745186957180982775
712673,632,569,4845,4966,2381,-6683,1745186957234064582
712865,697,563,4875,5058,2001,-6532,1745186957234064582
713057,760,576,4890,5137,1635,-6488,1745186957234064582
713249,796,607,4876,5219,1391,-6470,1745186957234064582
713441,785,653,4834,5304,1231,-6365,1745186957234064582
713633,735,698,4776,5383,1187,-6348,1745186957234064582
713825,654,737,4714,5441,1208,-6365,1745186957234064582
714017,548,770,4659,5514,1250,-6244,1745186957234064582
714209,419,780,4615,5621,1288,-6375,1745186957234064582
714401,276,768,4581,5726,1289,-6545,1745186957234064582
714593,120,746,4565,5791,1216,-6607,1745186957234064582
714785,-38,716,4563,5870,1052,-6691,1745186957234064582
714977,-190,676,4551,5934,898,-6765,1745186957299038780
715169,-342,621,4503,5956,815,-6730,1745186957299038780
715361,-504,554,4403,5945,830,-6654,1745186957299038780
715553,-672,485,4257,5880,1009,-6626,1745186957299038780
715745,-852,425,4084,5730,1338,-6658,1745186957299038780
715937,-1033,366,3904,5510,1886,-6841,1745186957299038780
716129,-1195,312,3735,5244,2679,-7103,1745186957299038780
716321,-1315,257,3574,5026,3696,-7413,1745186957299038780
716513,-1369,189,3398,4769,4901,-7759,1745186957299038780
716705,-1356,131,3192,4426,6221,-8344,1745186957299038780
716897,-1283,69,2968,4076,7701,-9124,1745186957299038780
717089,-1165,6,2725,3663,9075,-9567,1745186957299038780
