timestamp,gyr_x,gyr_y,gyr_z,acc_x,acc_y,acc_z,pkt_time_ns
1212449,181,-14,1,871,794,-7911,1745152419296665482
1212641,104,45,3,370,-142,-8174,1745152419296665482
1212833,87,66,3,466,101,-8064,1745152419296665482
1213025,51,114,5,492,64,-8004,1745152419296665482
1213217,2,136,2,424,-37,-8192,1745152419296665482
1213409,-70,176,-9,410,-183,-8135,1745152419296665482
1213601,-148,232,-17,391,-360,-8188,1745152419296665482
1213793,-211,259,-19,424,-214,-8194,1745152419296665482
1213985,-251,301,-10,544,278,-8158,1745152419296665482
1214177,-258,334,4,755,818,-8161,1745152419296665482
1214369,-239,351,7,1048,1177,-8139,1745152419296665482
1214561,-223,362,-5,1296,1244,-8181,1745152419296665482
1214753,-219,356,-33,1410,1127,-8264,1745152419352353411
1215137,-247,330,-101,1593,1236,-8322,1745152419352353411
1215329,-252,305,-127,1745,1244,-8384,1745152419352353411
1215521,-233,268,-131,1625,1022,-8305,1745152419352353411
1215713,-156,244,-95,1726,885,-8321,1745152419352353411
1215905,-83,223,-45,1844,874,-8429,1745152419352353411
1216097,-30,191,-5,1917,1077,-8526,1745152419352353411
1216289,7,152,17,1970,1461,-8618,1745152419352353411
1216481,45,105,19,1926,1737,-8709,1745152419352353411
1216673,87,73,3,1711,1768,-8706,1745152419352353411
1216865,145,60,-15,1420,1792,-8580,1745152419352353411
1217057,216,58,-18,1122,1777,-8457,1745152419352353411
1217249,266,58,-7,688,1162,-8249,1745152419412607809
1217441,363,98,35,1026,2754,-8378,1745152419412607809
1217633,465,126,65,302,1479,-7772,1745152419412607809
1217825,490,215,37,319,1175,-8157,1745152419412607809
1218017,539,233,20,640,895,-7750,1745152419412607809
1218209,536,233,33,1108,140,-7629,1745152419412607809
1218401,431,216,32,2631,-1070,-7379,1745152419412607809
1218593,359,19,24,3786,-1075,-7404,1745152419412607809
1218785,262,-116,36,3453,-1026,-7317,1745152419412607809
1218977,161,-178,37,2691,-889,-7496,1745152419412607809
1219169,96,-236,5,1988,-557,-7482,1745152419412607809
1219361,46,-232,-50,1355,-132,-7460,1745152419412607809
1219553,23,-215,-109,809,249,-7525,1745152419469990826
1219745,24,-173,-164,485,548,-7538,1745152419469990826
1219937,49,-99,-199,332,677,-7596,1745152419469990826
1220129,90,-20,-210,372,708,-7715,1745152419469990826
1220321,130,47,-199,614,642,-7771,1745152419469990826
1220513,153,95,-183,1025,547,-7878,1745152419469990826
1220705,154,115,-179,1410,471,-7927,1745152419469990826
1220897,143,112,-186,1753,333,-7909,1745152419469990826
1221089,134,98,-197,1991,185,-8334,1745152419469990826
1221281,128,69,-214,2155,67,-8520,1745152419469990826
1221473,115,30,-229,2228,32,-8359,1745152419469990826
1221665,99,-5,-238,2186,118,-8164,1745152419469990826
1221857,74,-37,-240,2054,260,-7927,1745152419532402860
1222049,47,-57,-241,1876,385,-7842,1745152419532402860
1222241,39,-59,-249,1726,492,-7815,1745152419532402860
1222433,57,-59,-271,1677,447,-7695,1745152419532402860
1222625,92,-72,-301,1694,233,-7454,1745152419532402860
1222817,129,-91,-326,1799,-65,-7192,1745152419532402860
1223009,151,-120,-350,1934,-325,-6940,1745152419532402860
1223201,157,-139,-378,2091,-452,-6919,1745152419532402860
1223393,165,-181,-421,2259,-422,-6980,1745152419532402860
1223585,163,-250,-480,2350,-333,-7137,1745152419532402860
1223777,152,-317,-540,2337,-231,-7424,1745152419532402860
1223969,174,-374,-583,2210,-18,-7729,1745152419532402860
1224161,252,-412,-614,2073,360,-8128,1745152419600218074
1224353,313,-422,-642,1845,722,-8340,1745152419600218074
1224545,333,-412,-654,1551,931,-8845,1745152419600218074
1224737,335,-404,-624,1411,882,-9005,1745152419600218074
1224929,308,-397,-556,1374,563,-9046,1745152419600218074
1225121,332,-360,-497,1185,589,-9376,1745152419600218074
1225313,410,-276,-465,1049,560,-9129,1745152419600218074
1225505,429,-264,-439,944,-80,-8826,1745152419600218074
1225697,464,-227,-455,791,-669,-9572,1745152419600218074
1225889,466,-161,-485,694,-826,-9556,1745152419600218074
1226081,405,-80,-482,665,-754,-9408,1745152419600218074
1226273,291,-6,-433,756,-569,-9505,1745152419600218074
1226465,194,54,-379,894,-263,-9603,1745152419649598821
1226657,145,71,-351,1137,115,-9156,1745152419649598821
1226849,128,47,-336,1509,426,-8484,1745152419649598821
1227041,111,5,-336,1877,450,-7870,1745152419649598821
1227233,114,-71,-330,2161,266,-7579,1745152419649598821
1227425,97,-151,-306,2350,-68,-7570,1745152419649598821
1227617,52,-220,-279,2431,-347,-7653,1745152419649598821
1227809,-10,-272,-263,2339,-435,-7958,1745152419649598821
1228001,-73,-312,-274,2178,-292,-8388,1745152419649598821
1228193,-126,-351,-315,1997,-176,-8540,1745152419649598821
1228385,-150,-413,-362,1937,-222,-8528,1745152419649598821
1228577,-180,-498,-396,2077,-428,-8368,1745152419649598821
1228769,-246,-588,-407,2334,-620,-8197,1745152419702932344
1228961,-362,-689,-393,2730,-701,-8097,1745152419702932344
1229153,-524,-804,-368,3208,-826,-8249,1745152419702932344
1229345,-719,-934,-403,3335,-1023,-8391,1745152419702932344
1229537,-875,-1050,-458,3226,-800,-8127,1745152419702932344
1229729,-1032,-1081,-449,3197,-253,-8277,1745152419702932344
1229921,-1206,-1109,-422,3245,130,-8320,1745152419702932344
1230113,-1353,-1182,-400,3278,297,-8289,1745152419702932344
1230305,-1431,-1273,-349,3415,348,-8206,1745152419702932344
1230497,-1452,-1366,-302,3555,381,-8180,1745152419702932344
1230689,-1464,-1445,-274,3550,432,-8259,1745152419702932344
1230881,-1477,-1510,-248,3362,628,-8302,1745152419702932344
1231073,-1468,-1534,-190,3119,996,-8441,1745152419763212731
1231265,-1436,-1535,-96,2965,1563,-8696,1745152419763212731
1231457,-1439,-1438,211,3748,2134,-8701,1745152419763212731
1231649,-1420,-1410,630,4515,2352,-8832,1745152419763212731
1231841,-1073,-1668,591,4192,2497,-9254,1745152419763212731
1232033,-688,-1880,343,3279,2331,-9032,1745152419763212731
1232225,-448,-1916,206,2421,1477,-8697,1745152419763212731
1232417,-315,-1885,236,1828,200,-8318,1745152419763212731
1232609,-255,-1818,395,1635,-855,-8238,1745152419763212731
1232801,-249,-1748,556,1666,-1355,-8333,1745152419763212731
1232993,-292,-1684,621,1692,-1385,-8378,1745152419763212731
1233185,-357,-1610,591,1772,-1203,-8347,1745152419763212731
1233377,-422,-1544,531,1898,-1002,-8209,1745152419825907054
1233569,-468,-1492,492,2047,-898,-8123,1745152419825907054
1233761,-489,-1452,483,2122,-912,-7967,1745152419825907054
1233953,-487,-1416,491,2092,-982,-7790,1745152419825907054
1234145,-472,-1376,491,1916,-1106,-7739,1745152419825907054
1234337,-460,-1333,481,1646,-1267,-7731,1745152419825907054
1234529,-460,-1278,467,1332,-1401,-7705,1745152419825907054
1234721,-471,-1211,469,1049,-1413,-7664,1745152419825907054
1234913,-489,-1133,491,827,-1271,-7650,1745152419825907054
1235105,-502,-1034,528,654,-961,-7599,1745152419825907054
1235297,-494,-927,574,563,-549,-7510,1745152419825907054
1235489,-456,-822,622,586,-210,-7433,1745152419825907054
1235681,-396,-730,663,695,33,-7406,1745152419885284064
1235873,-311,-653,699,796,136,-7450,1745152419885284064
1236065,-215,-593,738,837,161,-7601,1745152419885284064
1236257,-120,-547,786,858,137,-7643,1745152419885284064
1236449,-28,-508,841,794,82,-7596,1745152419885284064
1236641,62,-468,901,723,34,-7665,1745152419885284064
1236833,148,-435,958,676,-46,-7702,1745152419885284064
1237025,233,-405,1012,590,-128,-7513,1745152419885284064
1237217,328,-364,1067,436,-138,-7346,1745152419885284064
1237409,441,-314,1116,284,-87,-7188,1745152419885284064
1237601,573,-260,1151,103,51,-7077,1745152419885284064
1237793,718,-197,1179,-67,210,-7064,1745152419885284064
1237985,874,-134,1204,-210,307,-7128,1745152419945240391
1238177,1034,-72,1226,-298,255,-7260,1745152419945240391
1238369,1192,-11,1255,-367,112,-7419,1745152419945240391
1238561,1334,44,1297,-365,-176,-7699,1745152419945240391
1238753,1442,89,1346,-302,-537,-7996,1745152419945240391
1238945,1502,134,1399,-284,-913,-8232,1745152419945240391
1239137,1522,176,1453,-337,-1254,-8403,1745152419945240391
1239329,1504,222,1511,-403,-1468,-8528,1745152419945240391
1239521,1449,276,1570,-514,-1586,-8590,1745152419945240391
1239713,1364,332,1632,-530,-1656,-8630,1745152419945240391
1239905,1261,383,1702,-515,-1684,-8657,1745152419945240391
1240097,1151,428,1783,-460,-1619,-8675,1745152419945240391
1240289,1044,470,1869,-405,-1449,-8707,1745152419999926298
1240481,949,513,1954,-369,-1174,-8720,1745152419999926298
1240673,882,553,2038,-372,-824,-8807,1745152419999926298
1240865,851,586,2113,-347,-525,-8874,1745152419999926298
1241057,851,610,2184,-335,-340,-8855,1745152419999926298
1241249,879,638,2251,-340,-190,-8897,1745152419999926298
1241441,934,671,2316,-395,-70,-9012,1745152419999926298
1241633,1015,708,2378,-471,60,-9084,1745152419999926298
1241825,1116,747,2440,-555,215,-9157,1745152419999926298
1242017,1226,793,2510,-575,372,-9247,1745152419999926298
1242209,1333,842,2586,-577,461,-9276,1745152419999926298
1242401,1438,892,2662,-535,495,-9349,1745152419999926298
1242593,1544,941,2733,-504,409,-9506,1745152420058347326
1242785,1634,987,2798,-424,184,-9603,1745152420058347326
1242977,1701,1022,2859,-387,-143,-9665,1745152420058347326
1243169,1748,1058,2920,-418,-536,-9714,1745152420058347326
1243361,1763,1098,2988,-469,-942,-9578,1745152420058347326
1243553,1745,1142,3066,-520,-1322,-9435,1745152420058347326
1243745,1698,1188,3148,-593,-1635,-9344,1745152420058347326
1243937,1625,1242,3234,-628,-1816,-9170,1745152420058347326
1244129,1535,1306,3323,-645,-1923,-9012,1745152420058347326
1244321,1439,1373,3414,-510,-1944,-8906,1745152420058347326
1244513,1349,1433,3494,-354,-1838,-8795,1745152420058347326
1244705,1268,1496,3566,-109,-1676,-8787,1745152420058347326
1244897,1197,1551,3624,169,-1520,-8791,1745152420118251779
1245089,1134,1599,3672,498,-1384,-8681,1745152420118251779
1245281,1079,1634,3706,812,-1279,-8614,1745152420118251779
1245473,1027,1652,3733,1143,-1256,-8584,1745152420118251779
1245665,975,1652,3753,1415,-1274,-8552,1745152420118251779
1245857,923,1640,3774,1609,-1248,-8574,1745152420118251779
1246049,869,1625,3807,1773,-1172,-8598,1745152420118251779
1246241,812,1613,3848,1893,-1012,-8608,1745152420118251779
1246433,761,1608,3886,2028,-857,-8611,1745152420118251779
1246625,722,1607,3916,2166,-683,-8633,1745152420118251779
1246817,691,1608,3938,2326,-593,-8712,1745152420118251779
1247009,663,1604,3956,2570,-576,-8798,1745152420118251779
1247201,626,1600,3973,2822,-646,-8864,1745152420176853223
1247393,572,1589,3993,3094,-793,-8904,1745152420176853223
1247585,506,1578,4013,3390,-961,-8916,1745152420176853223
1247777,428,1560,4030,3685,-1116,-8824,1745152420176853223
1247969,345,1528,4044,3978,-1205,-8706,1745152420176853223
1248161,262,1497,4058,4223,-1129,-8508,1745152420176853223
1248353,194,1472,4067,4397,-944,-8410,1745152420176853223
1248545,149,1446,4063,4516,-638,-8391,1745152420176853223
1248737,132,1428,4051,4624,-305,-8327,1745152420176853223
1248929,133,1402,4032,4785,-4,-8319,1745152420176853223
1249121,144,1377,4012,4968,185,-8328,1745152420176853223
1249313,156,1352,3995,5180,255,-8350,1745152420176853223
1249505,162,1326,3985,5395,215,-8406,1745152420235229669
1249697,153,1299,3975,5637,161,-8465,1745152420235229669
1249889,123,1275,3952,5870,148,-8563,1745152420235229669
1250081,73,1257,3925,6046,197,-8687,1745152420235229669
1250273,6,1239,3902,6190,336,-8768,1745152420235229669
1250465,-66,1218,3881,6389,486,-8782,1745152420235229669
1250657,-133,1203,3853,6549,697,-8782,1745152420235229669
1250849,-191,1172,3827,6647,915,-8652,1745152420235229669
1251041,-235,1132,3801,6673,1114,-8577,1745152420235229669
1251233,-259,1092,3770,6627,1344,-8424,1745152420235229669
1251425,-269,1053,3733,6505,1584,-8336,1745152420235229669
1251617,-269,1020,3685,6384,1815,-8296,1745152420235229669
1251809,-263,980,3623,6280,2006,-8270,1745152420292979714
1252001,-252,942,3553,6181,2131,-8254,1745152420292979714
1252193,-224,901,3479,6111,2214,-8277,1745152420292979714
1252385,-187,846,3404,5999,2277,-8313,1745152420292979714
1252577,-150,780,3324,5924,2324,-8219,1745152420292979714
1252769,-128,724,3238,5810,2334,-8106,1745152420292979714
1252961,-123,654,3146,5669,2410,-7926,1745152420292979714
1253153,-142,588,3041,5463,2429,-7756,1745152420292979714
1253345,-179,515,2932,5206,2459,-7567,1745152420292979714
1253537,-228,456,2820,4900,2493,-7449,1745152420292979714
1253729,-280,397,2707,4573,2537,-7359,1745152420292979714
1253921,-322,348,2598,4280,2586,-7318,1745152420292979714
1254113,-354,310,2486,4039,2597,-7334,1745152420418091644
1254305,-376,273,2369,3813,2609,-7410,1745152420418091644
1254497,-389,241,2252,3598,2619,-7446,1745152420418091644
1254689,-395,222,2130,3414,2658,-7499,1745152420418091644
1254881,-389,188,2010,3226,2729,-7481,1745152420418091644
1255073,-374,159,1897,3027,2790,-7496,1745152420418091644
1255265,-343,132,1784,2826,2782,-7515,1745152420418091644
1255457,-302,100,1665,2661,2730,-7493,1745152420418091644
1255649,-249,72,1546,2495,2722,-7483,1745152420418091644
1255841,-187,45,1440,2340,2744,-7461,1745152420418091644
1256033,-120,25,1348,2164,2790,-7468,1745152420418091644
1256225,-51,1,1259,1983,2802,-7460,1745152420418091644
1256417,16,-2,1166,1868,2673,-7490,1745152420431239389
1256609,80,-23,1077,1820,2405,-7465,1745152420431239389
1256801,136,-39,996,1740,2109,-7507,1745152420431239389
1256993,180,-47,922,1674,1856,-7557,1745152420431239389
1257185,210,-59,854,1614,1668,-7534,1745152420431239389
1257377,233,-75,789,1551,1496,-7479,1745152420431239389
1257569,251,-87,730,1524,1366,-7441,1745152420431239389
1257761,260,-97,674,1502,1245,-7470,1745152420431239389
1257953,250,-107,620,1480,1065,-7524,1745152420431239389
1258145,224,-118,569,1436,828,-7562,1745152420431239389
1258337,190,-129,530,1395,585,-7552,1745152420431239389
1258529,153,-140,501,1331,406,-7550,1745152420431239389
1258721,111,-150,477,1265,306,-7563,1745152420468927170
1258913,64,-153,450,1186,297,-7556,1745152420468927170
1259105,13,-153,415,1096,323,-7545,1745152420468927170
1259297,-41,-145,378,1012,322,-7548,1745152420468927170
1259489,-86,-134,346,946,241,-7529,1745152420468927170
1259681,-118,-122,323,906,108,-7462,1745152420468927170
1259873,-142,-107,306,919,-34,-7455,1745152420468927170
1260065,-167,-95,290,965,-200,-7462,1745152420468927170
1260257,-191,-86,271,993,-281,-7462,1745152420468927170
1260449,-211,-80,252,1034,-292,-7461,1745152420468927170
1260641,-225,-73,231,1075,-251,-7434,1745152420468927170
1260833,-225,-71,208,1121,-187,-7358,1745152420468927170
1261025,-212,-73,187,1127,-185,-7297,1745152420527283511
1261217,-186,-77,172,1133,-244,-7246,1745152420527283511
1261409,-151,-86,162,1132,-330,-7242,1745152420527283511
1261601,-114,-92,152,1100,-406,-7280,1745152420527283511
1261793,-87,-93,140,1084,-472,-7316,1745152420527283511
1261985,-72,-92,127,1056,-524,-7311,1745152420527283511
1262177,-67,-86,117,1031,-592,-7328,1745152420527283511
1262369,-66,-78,107,1003,-657,-7349,1745152420527283511
1262561,-67,-71,98,963,-763,-7372,1745152420527283511
1262753,-75,-61,89,948,-862,-7364,1745152420527283511
1262945,-89,-47,81,939,-1009,-7377,1745152420527283511
1263137,-104,-32,75,887,-1106,-7400,1745152420527283511
1263329,-110,-14,74,856,-1078,-7432,1745152420585738863
1263521,-117,5,63,933,-1018,-7478,1745152420585738863
1263713,-131,24,27,953,-982,-7455,1745152420585738863
1263905,-142,39,-9,964,-957,-7428,1745152420585738863
1264097,-137,48,-15,919,-917,-7427,1745152420585738863
1264289,-121,48,0,917,-900,-7414,1745152420585738863
1264481,-98,49,13,924,-926,-7415,1745152420585738863
1264673,-75,48,13,988,-1037,-7436,1745152420585738863
1264865,-60,48,-2,1065,-1178,-7455,1745152420585738863
1265057,-63,50,-20,1116,-1353,-7455,1745152420585738863
1265249,-71,50,-39,1121,-1501,-7433,1745152420585738863
1265441,-84,48,-51,1103,-1605,-7399,1745152420585738863
1265633,-95,45,-57,1071,-1632,-7342,1745152420643974998
1265825,-103,40,-61,1051,-1587,-7352,1745152420643974998
1266017,-111,39,-66,1019,-1509,-7363,1745152420643974998
1266209,-119,39,-72,1030,-1456,-7337,1745152420643974998
1266401,-120,40,-76,1063,-1433,-7319,1745152420643974998
1266593,-111,36,-77,1080,-1470,-7327,1745152420643974998
1266785,-92,30,-75,1101,-1497,-7395,1745152420643974998
1266977,-77,25,-77,1113,-1519,-7447,1745152420643974998
1267169,-72,24,-81,1077,-1523,-7487,1745152420643974998
1267361,-66,24,-86,1054,-1537,-7536,1745152420643974998
1267553,-56,27,-90,1029,-1555,-7575,1745152420643974998
1267745,-43,32,-94,1002,-1564,-7599,1745152420643974998
1267937,-31,40,-99,968,-1575,-7687,1745152420705289073
1268129,-25,49,-106,963,-1593,-7768,1745152420705289073
1268321,-24,59,-111,946,-1581,-7792,1745152420705289073
1268513,-25,72,-116,948,-1591,-7795,1745152420705289073
1268705,-21,82,-119,984,-1651,-7770,1745152420705289073
1268897,-10,86,-120,1048,-1739,-7763,1745152420705289073
1269089,3,85,-119,1103,-1849,-7733,1745152420705289073
1269281,15,81,-113,1139,-1904,-7686,1745152420705289073
1269473,25,73,-108,1199,-1982,-7618,1745152420705289073
1269665,38,63,-105,1233,-2098,-7517,1745152420705289073
1269857,59,47,-98,1242,-2270,-7418,1745152420705289073
1270049,85,32,-85,1243,-2396,-7423,1745152420705289073
1270241,102,21,-70,1192,-2495,-7466,1745152420765900550
1270433,110,15,-55,1168,-2561,-7633,1745152420765900550
1270625,95,17,-45,1107,-2584,-7791,1745152420765900550
1270817,69,27,-32,1076,-2570,-7950,1745152420765900550
1271009,41,39,-16,1068,-2537,-8033,1745152420765900550
1271201,11,53,1,1081,-2490,-8073,1745152420765900550
1271393,-15,64,19,1093,-2484,-8073,1745152420765900550
1271585,-36,73,36,1097,-2468,-8085,1745152420765900550
1271777,-53,80,49,1124,-2420,-8104,1745152420765900550
1271969,-70,87,53,1134,-2347,-8108,1745152420765900550
1272161,-88,89,46,1134,-2283,-8108,1745152420765900550
1272353,-100,89,37,1160,-2228,-8077,1745152420765900550
1272545,-105,86,31,1177,-2196,-8023,1745152420826742703
1272737,-102,81,25,1194,-2196,-7989,1745152420826742703
1272929,-90,73,16,1234,-2220,-7969,1745152420826742703
1273121,-74,60,9,1226,-2264,-7976,1745152420826742703
1273313,-63,49,1,1241,-2267,-8040,1745152420826742703
1273505,-60,39,-8,1246,-2233,-8093,1745152420826742703
1273697,-56,33,-15,1228,-2152,-8091,1745152420826742703
1273889,-43,30,-18,1254,-2051,-8022,1745152420826742703
1274081,-25,25,-20,1269,-1941,-7983,1745152420826742703
1274273,-9,20,-24,1290,-1880,-7998,1745152420826742703
1274465,-1,14,-31,1320,-1864,-8029,1745152420826742703
1274657,-3,8,-36,1353,-1878,-8086,1745152420826742703
1274849,-7,2,-40,1370,-1954,-8114,1745152420875891681
1275041,-13,-6,-36,1360,-2012,-8136,1745152420875891681
1275233,-24,-13,-31,1355,-2043,-8177,1745152420875891681
1275425,-42,-19,-28,1316,-2060,-8177,1745152420875891681
1275617,-63,-21,-28,1289,-2042,-8146,1745152420875891681
1275809,-79,-19,-28,1227,-2028,-8134,1745152420875891681
1276001,-89,-12,-29,1187,-1958,-8119,1745152420875891681
1276193,-95,-5,-33,1140,-1929,-8068,1745152420875891681
1276385,-95,3,-38,1136,-1955,-7996,1745152420875891681
1276577,-88,9,-39,1127,-1994,-8034,1745152420875891681
1276769,-76,17,-35,1141,-2000,-7996,1745152420875891681
1276961,-62,25,-31,1174,-1971,-7959,1745152420875891681
1277153,-47,30,-31,1191,-1929,-7889,1745152420937085393
1277345,-29,31,-31,1240,-1911,-7825,1745152420937085393
1277537,-5,28,-32,1261,-1914,-7803,1745152420937085393
1277729,18,23,-31,1258,-1905,-7800,1745152420937085393
1277921,38,19,-31,1230,-1934,-7761,1745152420937085393
1278113,56,14,-27,1228,-1968,-7768,1745152420937085393
1278305,69,12,-21,1216,-2004,-7805,1745152420937085393
1278497,75,11,-14,1193,-2040,-7845,1745152420937085393
1278689,74,12,-8,1174,-2054,-7890,1745152420937085393
1278881,67,16,-3,1189,-2058,-7938,1745152420937085393
1279073,54,21,-1,1212,-2053,-8002,1745152420937085393
1279265,36,26,0,1233,-2071,-8041,1745152420937085393
1279457,16,28,1,1240,-2067,-8029,1745152420990487145
1279649,-5,28,3,1250,-2040,-8021,1745152420990487145
1279841,-26,27,4,1238,-2000,-7965,1745152420990487145
1280033,-44,26,4,1234,-1980,-7885,1745152420990487145
1280225,-50,22,4,1221,-1993,-7815,1745152420990487145
1280417,-47,19,7,1196,-1985,-7790,1745152420990487145
1280609,-46,17,11,1173,-1967,-7741,1745152420990487145
1280801,-48,17,12,1183,-1976,-7707,1745152420990487145
1280993,-48,18,14,1165,-2012,-7697,1745152420990487145
1281185,-40,18,21,1199,-2017,-7702,1745152420990487145
1281377,-30,21,30,1188,-1986,-7708,1745152420990487145
1281569,-20,23,34,1222,-1972,-7750,1745152420990487145
1281761,-17,27,31,1224,-1906,-7766,1745152421050700918
1281953,-11,29,26,1212,-1803,-7742,1745152421050700918
1282145,1,29,23,1186,-1683,-7761,1745152421050700918
1282337,18,29,21,1143,-1544,-7808,1745152421050700918
1282529,36,29,15,1109,-1391,-7851,1745152421050700918
1282721,59,30,6,1067,-1325,-7876,1745152421050700918
1282913,86,37,-3,1069,-1334,-7858,1745152421050700918
1283105,120,43,-12,1082,-1490,-7831,1745152421050700918
1283297,157,44,-18,1123,-1702,-7834,1745152421050700918
1283489,179,43,-26,1154,-1871,-7862,1745152421050700918
1283681,178,46,-34,1184,-2015,-7914,1745152421050700918
1283873,164,51,-43,1195,-2110,-7953,1745152421050700918
1284065,150,56,-49,1220,-2135,-7967,1745152421109396319
1284257,137,58,-52,1233,-2082,-7998,1745152421109396319
1284449,126,60,-53,1288,-1984,-8019,1745152421109396319
1284641,118,57,-54,1311,-1887,-8004,1745152421109396319
1284833,115,53,-53,1345,-1813,-7975,1745152421109396319
1285025,118,42,-51,1375,-1749,-7926,1745152421109396319
1285217,124,30,-49,1349,-1725,-7921,1745152421109396319
1285409,130,18,-48,1320,-1737,-7911,1745152421109396319
1285601,140,8,-49,1268,-1808,-7920,1745152421109396319
1285793,154,-2,-49,1233,-1861,-7945,1745152421109396319
1285985,163,-7,-48,1224,-1959,-7914,1745152421109396319
1286177,164,-11,-50,1247,-2075,-7834,1745152421109396319
1286369,164,-15,-49,1249,-2209,-7780,1745152421178008505
1286561,164,-21,-48,1286,-2270,-7782,1745152421178008505
1286753,151,-26,-49,1293,-2295,-7809,1745152421178008505
1286945,131,-30,-50,1295,-2353,-7811,1745152421178008505
1287137,107,-32,-48,1289,-2379,-7771,1745152421178008505
1287329,87,-34,-40,1305,-2319,-7779,1745152421178008505
1287521,66,-35,-33,1276,-2250,-7797,1745152421178008505
1287713,44,-32,-29,1247,-2143,-7803,1745152421178008505
1287905,25,-29,-26,1237,-2049,-7781,1745152421178008505
1288097,9,-25,-26,1199,-1975,-7733,1745152421178008505
1288289,-4,-19,-24,1174,-1937,-7713,1745152421178008505
1288481,-14,-15,-22,1152,-1903,-7697,1745152421178008505
1288673,-19,-7,-19,1143,-1889,-7725,1745152421235184389
1288865,-22,4,-17,1140,-1842,-7734,1745152421235184389
1289057,-22,15,-19,1168,-1789,-7763,1745152421235184389
1289249,-17,25,-24,1222,-1754,-7813,1745152421235184389
1289441,-9,30,-31,1275,-1715,-7837,1745152421235184389
1289633,2,30,-39,1347,-1740,-7825,1745152421235184389
1289825,14,25,-44,1379,-1779,-7762,1745152421235184389
1290017,29,16,-48,1402,-1860,-7702,1745152421235184389
1290209,42,5,-53,1420,-1902,-7684,1745152421235184389
1290401,49,-6,-61,1404,-1941,-7671,1745152421235184389
1290593,47,-16,-70,1350,-1920,-7652,1745152421235184389
1290785,40,-21,-77,1274,-1885,-7637,1745152421235184389
1290977,34,-24,-85,1235,-1861,-7591,1745152421287641045
1291169,34,-25,-91,1202,-1872,-7590,1745152421287641045
1291361,37,-26,-96,1170,-1888,-7631,1745152421287641045
1291553,40,-24,-99,1153,-1914,-7667,1745152421287641045
1291745,42,-22,-101,1160,-1962,-7708,1745152421287641045
1291937,45,-22,-100,1158,-2002,-7731,1745152421287641045
1292129,48,-19,-99,1162,-1989,-7797,1745152421287641045
1292321,49,-15,-101,1159,-1927,-7823,1745152421287641045
1292513,50,-10,-102,1148,-1881,-7809,1745152421287641045
1292705,55,-7,-103,1146,-1848,-7777,1745152421287641045
1292897,65,-2,-101,1121,-1841,-7752,1745152421287641045
1293089,76,3,-97,1117,-1810,-7770,1745152421287641045
1293281,84,10,-96,1153,-1799,-7783,1745152421345876346
1293473,85,15,-100,1187,-1826,-7772,1745152421345876346
1293665,78,17,-107,1224,-1874,-7733,1745152421345876346
1293857,66,15,-111,1262,-1976,-7703,1745152421345876346
1294049,56,9,-110,1296,-2078,-7675,1745152421345876346
1294241,47,4,-109,1302,-2077,-7695,1745152421345876346
1294433,32,1,-113,1300,-2021,-7708,1745152421345876346
1294625,15,-3,-121,1288,-1898,-7658,1745152421345876346
1294817,4,-4,-130,1294,-1775,-7622,1745152421345876346
1295009,2,-4,-140,1292,-1633,-7570,1745152421345876346
1295201,9,-4,-149,1294,-1524,-7578,1745152421345876346
1295393,28,-3,-160,1304,-1483,-7635,1745152421345876346
1295585,52,-5,-169,1330,-1471,-7695,1745152421406424960
1295777,75,-10,-178,1362,-1498,-7788,1745152421406424960
1295969,91,-17,-189,1382,-1512,-7836,1745152421406424960
1296161,97,-23,-203,1388,-1497,-7869,1745152421406424960
1296353,100,-29,-220,1371,-1479,-7893,1745152421406424960
1296545,102,-33,-238,1365,-1435,-7847,1745152421406424960
1296737,106,-38,-255,1358,-1411,-7812,1745152421406424960
1296929,114,-44,-272,1330,-1408,-7782,1745152421406424960
1297121,118,-49,-291,1327,-1392,-7762,1745152421406424960
1297313,117,-53,-309,1321,-1383,-7763,1745152421406424960
1297505,110,-56,-329,1309,-1332,-7775,1745152421406424960
1297697,98,-56,-348,1310,-1269,-7791,1745152421406424960
1297889,89,-57,-367,1330,-1180,-7740,1745152421464054225
1298081,86,-59,-386,1375,-1110,-7673,1745152421464054225
1298273,86,-63,-409,1398,-992,-7648,1745152421464054225
1298465,86,-69,-434,1438,-921,-7620,1745152421464054225
1298657,83,-75,-462,1455,-847,-7635,1745152421464054225
1298849,82,-78,-489,1470,-760,-7703,1745152421464054225
1299041,81,-81,-518,1474,-695,-7776,1745152421464054225
1299233,82,-83,-547,1524,-598,-7819,1745152421464054225
1299425,82,-87,-578,1551,-506,-7872,1745152421464054225
1299617,79,-89,-614,1605,-421,-7931,1745152421464054225
1299809,72,-94,-653,1650,-358,-7979,1745152421464054225
1300001,64,-102,-691,1702,-289,-7996,1745152421464054225
1300193,56,-111,-729,1736,-209,-7987,1745152421525217260
1300385,45,-121,-769,1778,-117,-8003,1745152421525217260
1300577,33,-133,-814,1808,-28,-8033,1745152421525217260
1300769,19,-146,-863,1856,71,-8063,1745152421525217260
1300961,2,-161,-913,1897,161,-8048,1745152421525217260
1301153,-16,-176,-961,1949,221,-8008,1745152421525217260
1301345,-34,-193,-1010,1972,266,-7976,1745152421525217260
1301537,-51,-208,-1062,1996,336,-7982,1745152421525217260
1301729,-64,-223,-1113,2024,403,-7974,1745152421525217260
1301921,-76,-236,-1163,2062,471,-7991,1745152421525217260
1302113,-91,-248,-1214,2099,564,-8025,1745152421525217260
1302305,-107,-256,-1264,2166,671,-8025,1745152421525217260
1302497,-123,-264,-1312,2241,782,-8049,1745152421580341131
1302689,-132,-269,-1360,2333,937,-8081,1745152421580341131
1302881,-136,-271,-1407,2423,1108,-8152,1745152421580341131
1303073,-137,-273,-1455,2575,1272,-8228,1745152421580341131
1303265,-137,-274,-1507,2701,1424,-8322,1745152421580341131
1303457,-141,-277,-1560,2854,1543,-8433,1745152421580341131
1303649,-141,-286,-1612,2997,1649,-8476,1745152421580341131
1303841,-134,-302,-1662,3146,1742,-8459,1745152421580341131
1304033,-128,-324,-1715,3260,1838,-8402,1745152421580341131
1304225,-125,-349,-1777,3362,1927,-8332,1745152421580341131
1304417,-128,-378,-1844,3440,1958,-8256,1745152421580341131
1304609,-135,-409,-1918,3524,1967,-8175,1745152421580341131
1304801,-148,-441,-1997,3595,1919,-8022,1745152421640092200
1304993,-162,-473,-2075,3665,1890,-7839,1745152421640092200
1305185,-175,-507,-2148,3736,1828,-7593,1745152421640092200
1305377,-187,-547,-2226,3802,1801,-7367,1745152421640092200
1305569,-196,-586,-2309,3830,1778,-7262,1745152421640092200
1305761,-201,-627,-2401,3846,1787,-7235,1745152421640092200
1305953,-203,-668,-2495,3810,1819,-7253,1745152421640092200
1306145,-197,-700,-2583,3776,1932,-7326,1745152421640092200
1306337,-182,-717,-2664,3729,2147,-7481,1745152421640092200
1306529,-158,-723,-2745,3727,2402,-7650,1745152421640092200
1306721,-119,-730,-2824,3765,2615,-7706,1745152421640092200
1306913,-53,-741,-2901,3811,2793,-7725,1745152421640092200
1307105,31,-755,-2973,3860,2961,-7805,1745152421697229855
1307297,121,-771,-3038,3885,3045,-7886,1745152421697229855
1307489,200,-787,-3104,3923,3013,-7980,1745152421697229855
1307681,266,-803,-3166,3958,2847,-8046,1745152421697229855
1307873,310,-817,-3217,3961,2603,-8056,1745152421697229855
1308065,337,-830,-3261,3990,2347,-8035,1745152421697229855
1308257,348,-843,-3298,3975,2096,-7971,1745152421697229855
1308449,343,-862,-3337,3978,1878,-7870,1745152421697229855
1308641,323,-884,-3385,3929,1677,-7726,1745152421697229855
1308833,296,-904,-3433,3801,1543,-7619,1745152421697229855
1309025,272,-919,-3474,3589,1451,-7559,1745152421697229855
1309217,257,-926,-3508,3377,1387,-7498,1745152421697229855
1309409,253,-929,-3540,3180,1353,-7489,1745152421757213422
1309601,258,-922,-3569,2975,1327,-7470,1745152421757213422
1309793,267,-910,-3590,2841,1265,-7463,1745152421757213422
1309985,279,-896,-3606,2765,1123,-7499,1745152421757213422
1310177,291,-883,-3617,2764,928,-7584,1745152421757213422
1310369,309,-872,-3627,2780,746,-7715,1745152421757213422
1310561,325,-862,-3636,2808,628,-7797,1745152421757213422
1310753,336,-854,-3644,2817,533,-7861,1745152421757213422
1310945,342,-847,-3650,2796,508,-7878,1745152421757213422
1311137,346,-838,-3655,2767,494,-7923,1745152421757213422
1311329,351,-833,-3662,2730,463,-7964,1745152421757213422
1311521,358,-829,-3666,2679,364,-7992,1745152421757213422
1311713,367,-827,-3664,2597,208,-8012,1745152421814379150
1311905,381,-826,-3650,2536,-15,-7968,1745152421814379150
1312097,400,-823,-3629,2451,-249,-7945,1745152421814379150
1312289,420,-817,-3602,2348,-464,-7939,1745152421814379150
1312481,432,-806,-3575,2264,-644,-7883,1745152421814379150
1312673,435,-788,-3549,2186,-800,-7836,1745152421814379150
1312865,433,-762,-3525,2100,-913,-7833,1745152421814379150
1313057,429,-732,-3497,2071,-999,-7799,1745152421814379150
1313249,423,-706,-3464,2118,-1089,-7734,1745152421814379150
1313441,415,-686,-3429,2197,-1199,-7641,1745152421814379150
1313633,407,-672,-3391,2270,-1359,-7606,1745152421814379150
1313825,399,-663,-3351,2322,-1537,-7627,1745152421814379150
1314017,388,-658,-3315,2334,-1748,-7699,1745152421874140323
1314209,372,-653,-3281,2293,-1934,-7774,1745152421874140323
1314401,347,-646,-3247,2239,-2099,-7820,1745152421874140323
1314593,314,-638,-3209,2176,-2249,-7792,1745152421874140323
1314785,276,-626,-3167,2113,-2399,-7759,1745152421874140323
1314977,237,-614,-3121,2049,-2491,-7738,1745152421874140323
1315169,196,-604,-3074,2004,-2557,-7722,1745152421874140323
1315361,154,-590,-3029,1953,-2585,-7671,1745152421874140323
1315553,117,-567,-2986,1940,-2576,-7667,1745152421874140323
1315745,87,-541,-2939,1914,-2511,-7692,1745152421874140323
1315937,65,-512,-2891,1921,-2432,-7781,1745152421874140323
1316129,45,-483,-2841,1958,-2342,-7858,1745152421874140323
1316321,36,-456,-2787,2030,-2260,-7987,1745152421930751055
1316513,38,-432,-2729,2120,-2178,-8108,1745152421930751055
1316705,49,-415,-2670,2253,-2162,-8138,1745152421930751055
1316897,64,-403,-2611,2371,-2201,-8060,1745152421930751055
1317089,82,-394,-2552,2445,-2300,-7977,1745152421930751055
1317281,101,-390,-2495,2454,-2397,-7939,1745152421930751055
1317473,114,-387,-2442,2429,-2504,-7937,1745152421930751055
1317665,115,-384,-2399,2316,-2597,-7957,1745152421930751055
1317857,106,-377,-2358,2178,-2677,-7969,1745152421930751055
1318049,90,-369,-2315,2055,-2728,-7948,1745152421930751055
1318241,68,-359,-2268,1991,-2794,-7899,1745152421930751055
1318433,40,-347,-2222,1939,-2828,-7801,1745152421930751055
1318625,5,-331,-2173,1921,-2851,-7722,1745152421998663404
1318817,-35,-311,-2118,1921,-2835,-7686,1745152421998663404
1319009,-75,-289,-2062,1928,-2765,-7643,1745152421998663404
1319201,-115,-270,-2007,1944,-2657,-7677,1745152421998663404
1319393,-151,-253,-1956,1990,-2573,-7741,1745152421998663404
1319585,-181,-240,-1910,2071,-2491,-7764,1745152421998663404
1319777,-201,-225,-1866,2061,-2403,-7839,1745152421998663404
1319969,-214,-195,-1809,2032,-2282,-8005,1745152421998663404
1320161,-217,-166,-1744,2030,-2153,-8203,1745152421998663404
1320353,-214,-145,-1677,2132,-2082,-8365,1745152421998663404
1320545,-206,-134,-1616,2292,-2027,-8475,1745152421998663404
1320737,-193,-126,-1556,2419,-1952,-8546,1745152421998663404
1320929,-173,-126,-1494,2573,-1889,-8541,1745152422054596122
1321121,-147,-136,-1429,2731,-1850,-8485,1745152422054596122
1321313,-117,-157,-1372,2817,-1834,-8400,1745152422054596122
1321505,-91,-184,-1327,2822,-1881,-8311,1745152422054596122
1321697,-71,-208,-1287,2770,-1964,-8250,1745152422054596122
1321889,-59,-227,-1247,2683,-2036,-8185,1745152422054596122
1322081,-55,-239,-1202,2560,-2128,-8157,1745152422054596122
1322273,-63,-253,-1159,2479,-2235,-8168,1745152422054596122
1322465,-84,-269,-1120,2376,-2375,-8129,1745152422054596122
1322657,-112,-282,-1083,2278,-2476,-8027,1745152422054596122
1322849,-150,-286,-1043,2171,-2552,-7959,1745152422054596122
1323041,-199,-281,-1008,2030,-2591,-7873,1745152422054596122
1323233,-254,-271,-977,1915,-2549,-7857,1745152422112310282
1323425,-306,-256,-950,1809,-2456,-7895,1745152422112310282
1323617,-349,-241,-919,1779,-2342,-7855,1745152422112310282
1323809,-381,-221,-887,1743,-2170,-7803,1745152422112310282
1324001,-400,-197,-856,1743,-1973,-7765,1745152422112310282
1324193,-404,-175,-829,1745,-1817,-7750,1745152422112310282
1324385,-394,-155,-802,1775,-1697,-7735,1745152422112310282
1324577,-369,-138,-774,1793,-1602,-7669,1745152422112310282
1324769,-332,-118,-744,1799,-1508,-7634,1745152422112310282
1324961,-291,-97,-715,1789,-1472,-7541,1745152422112310282
1325153,-239,-74,-685,1740,-1396,-7338,1745152422112310282
1325345,-162,-44,-658,1717,-1233,-7486,1745152422112310282
1325537,-88,-29,-630,1753,-1192,-7683,1745152422165628962
1325729,-52,-33,-607,1811,-1519,-7807,1745152422165628962
1325921,-42,-44,-584,1864,-2063,-7899,1745152422165628962
1326113,-46,-46,-547,1779,-2510,-7987,1745152422165628962
1326305,-67,-27,-498,1610,-2647,-8083,1745152422165628962
1326497,-103,15,-456,1440,-2486,-8141,1745152422165628962
1326689,-136,70,-428,1341,-2207,-8165,1745152422165628962
1326881,-152,126,-408,1337,-1879,-8134,1745152422165628962
1327073,-143,175,-383,1502,-1614,-8186,1745152422165628962
1327265,-114,201,-347,1827,-1381,-8306,1745152422165628962
1327457,-91,208,-306,2222,-1279,-8392,1745152422165628962
1327649,-82,204,-266,2529,-1312,-8339,1745152422165628962
1327841,-69,196,-228,2738,-1398,-8273,1745152422225301854
1328033,-43,183,-194,2800,-1418,-8248,1745152422225301854
1328225,-13,165,-172,2768,-1355,-8263,1745152422225301854
1328417,13,145,-158,2677,-1305,-8353,1745152422225301854
1328609,41,117,-140,2613,-1364,-8442,1745152422225301854
1328801,63,88,-120,2614,-1577,-8572,1745152422225301854
1328993,70,56,-101,2637,-1856,-8644,1745152422225301854
1329185,54,24,-86,2652,-2154,-8696,1745152422225301854
1329377,21,-9,-72,2608,-2390,-8674,1745152422225301854
1329569,-27,-39,-64,2503,-2520,-8597,1745152422225301854
1329761,-80,-63,-61,2363,-2505,-8497,1745152422225301854
1329953,-134,-75,-58,2171,-2383,-8349,1745152422225301854
1330145,-176,-78,-49,1965,-2162,-8157,1745152422282329562
1330337,-197,-78,-36,1856,-1923,-8015,1745152422282329562
1330529,-198,-74,-24,1797,-1715,-7887,1745152422282329562
1330721,-184,-71,-12,1781,-1585,-7778,1745152422282329562
1330913,-169,-68,2,1778,-1520,-7681,1745152422282329562
1331105,-152,-63,19,1744,-1543,-7576,1745152422282329562
1331297,-138,-52,38,1662,-1577,-7512,1745152422282329562
1331489,-136,-36,56,1559,-1626,-7428,1745152422282329562
1331681,-145,-15,69,1398,-1640,-7334,1745152422282329562
1331873,-161,15,81,1246,-1599,-7302,1745152422282329562
1332065,-185,53,97,1089,-1556,-7339,1745152422282329562
1332257,-217,101,116,999,-1500,-7426,1745152422282329562
1332449,-253,159,137,1015,-1454,-7536,1745152422362608881
1332641,-286,221,160,1110,-1483,-7534,1745152422362608881
1332833,-313,284,184,1266,-1519,-7493,1745152422362608881
1333025,-334,339,211,1437,-1533,-7498,1745152422362608881
1333217,-355,386,234,1572,-1501,-7505,1745152422362608881
1333409,-377,420,249,1668,-1460,-7535,1745152422362608881
1333601,-392,442,256,1718,-1390,-7573,1745152422362608881
1333793,-395,468,262,1718,-1277,-7600,1745152422362608881
1333985,-380,489,270,1732,-1182,-7583,1745152422362608881
1334177,-344,510,280,1766,-1038,-7643,1745152422362608881
1334369,-300,530,294,1805,-915,-7694,1745152422362608881
1334561,-246,551,311,1884,-903,-7685,1745152422362608881
1334753,-189,567,325,1965,-926,-7682,1745152422404455374
1334945,-139,578,334,2032,-1038,-7694,1745152422404455374
1335137,-94,583,340,2109,-1188,-7654,1745152422404455374
1335329,-55,583,348,2164,-1359,-7557,1745152422404455374
1335521,-28,576,361,2219,-1531,-7454,1745152422404455374
1335713,-21,559,377,2279,-1766,-7361,1745152422404455374
1335905,-38,525,392,2426,-2004,-7345,1745152422404455374
1336097,-84,466,406,2687,-2284,-7517,1745152422404455374
1336289,-138,364,420,3012,-2553,-8047,1745152422404455374
1336481,-169,205,429,3319,-2628,-8750,1745152422404455374
1336673,-161,27,416,3482,-2422,-9243,1745152422404455374
1336865,-122,-117,380,3371,-1918,-9361,1745152422404455374
1337057,-71,-204,342,3033,-1352,-9192,1745152422466320330
1337249,-13,-245,329,2623,-927,-8993,1745152422466320330
1337441,44,-265,337,2215,-756,-8779,1745152422466320330
1337633,76,-280,350,1893,-773,-8614,1745152422466320330
1337825,68,-266,353,1639,-859,-8511,1745152422466320330
1338017,22,-232,347,1419,-858,-8365,1745152422466320330
1338209,-34,-194,341,1258,-716,-8170,1745152422466320330
1338401,-92,-148,347,1149,-471,-7956,1745152422466320330
1338593,-143,-96,376,1151,-182,-7802,1745152422466320330
1338785,-166,-48,417,1287,147,-7772,1745152422466320330
1338977,-156,-9,454,1475,483,-7776,1745152422466320330
1339169,-115,16,469,1670,835,-7721,1745152422466320330
1339361,-55,36,462,1813,1155,-7659,1745152422518965317
1339553,11,54,439,1887,1396,-7609,1745152422518965317
1339745,79,66,412,1924,1476,-7606,1745152422518965317
1339937,155,67,385,1914,1412,-7656,1745152422518965317
1340129,232,75,360,1932,1219,-7767,1745152422518965317
1340321,296,75,334,1964,954,-7972,1745152422518965317
1340513,339,66,306,1983,671,-8199,1745152422518965317
1340705,364,48,280,1960,440,-8403,1745152422518965317
1340897,376,29,256,1928,287,-8571,1745152422518965317
1341089,382,8,233,1861,207,-8733,1745152422518965317
1341281,385,-9,214,1790,137,-8839,1745152422518965317
1341473,385,-21,198,1680,71,-8872,1745152422518965317
1341665,380,-25,184,1536,-5,-8878,1745152422579573514
1341857,374,-17,175,1385,-151,-8826,1745152422579573514
1342049,360,4,180,1331,-377,-8781,1745152422579573514
1342241,337,21,195,1349,-644,-8747,1745152422579573514
1342433,307,29,209,1446,-882,-8627,1745152422579573514
1342625,269,35,215,1488,-1022,-8496,1745152422579573514
1342817,232,42,212,1504,-993,-8332,1745152422579573514
1343009,201,51,205,1541,-846,-8173,1745152422579573514
1343201,178,51,195,1550,-635,-7995,1745152422579573514
1343393,171,47,186,1549,-429,-7857,1745152422579573514
1343585,179,41,175,1549,-291,-7746,1745152422579573514
1343777,198,37,158,1550,-232,-7681,1745152422579573514
1343969,221,37,133,1585,-258,-7670,1745152422636201069
1344161,246,38,101,1614,-325,-7687,1745152422636201069
1344353,273,38,69,1616,-440,-7721,1745152422636201069
1344545,293,37,45,1624,-642,-7794,1745152422636201069
1344737,299,33,28,1604,-881,-7881,1745152422636201069
1344929,291,26,20,1561,-1128,-7982,1745152422636201069
1345121,274,19,19,1527,-1335,-8062,1745152422636201069
1345313,250,9,24,1509,-1487,-8107,1745152422636201069
1345505,217,3,28,1499,-1574,-8205,1745152422636201069
1345697,176,3,29,1500,-1632,-8286,1745152422636201069
1345889,133,9,26,1473,-1630,-8305,1745152422636201069
1346081,93,16,21,1453,-1560,-8320,1745152422636201069
1346273,58,23,16,1381,-1404,-8324,1745152422695383862
1346465,33,29,13,1314,-1151,-8321,1745152422695383862
1346657,20,37,9,1232,-865,-8254,1745152422695383862
1346849,20,45,5,1202,-577,-8214,1745152422695383862
1347041,35,50,-2,1219,-357,-8170,1745152422695383862
1347233,55,57,-14,1247,-214,-8144,1745152422695383862
1347425,76,63,-25,1224,-147,-8049,1745152422695383862
1347617,103,58,-24,1220,-174,-8041,1745152422695383862
1347809,130,57,-20,1189,-219,-8035,1745152422695383862
1348001,153,55,-16,1154,-320,-8046,1745152422695383862
1348193,162,55,-10,1135,-469,-8075,1745152422695383862
1348385,160,55,-1,1117,-616,-8097,1745152422695383862
1348577,152,52,9,1072,-763,-8116,1745152422753469842
1348769,137,51,15,1025,-888,-8171,1745152422753469842
1348961,114,51,23,947,-954,-8118,1745152422753469842
1349153,89,54,33,934,-993,-8063,1745152422753469842
1349345,61,55,43,954,-1009,-8054,1745152422753469842
1349537,27,55,49,962,-1025,-8048,1745152422753469842
1349729,-4,54,52,972,-1000,-8057,1745152422753469842
1349921,-27,54,56,990,-943,-8094,1745152422753469842
1350113,-46,56,60,1030,-879,-8143,1745152422753469842
1350305,-59,57,60,1086,-831,-8176,1745152422753469842
1350497,-64,57,57,1148,-765,-8169,1745152422753469842
1350689,-64,56,48,1156,-712,-8207,1745152422753469842
1350881,-63,58,37,1165,-656,-8213,1745152422814567253
1351073,-57,62,31,1169,-653,-8159,1745152422814567253
1351265,-45,65,29,1180,-636,-8068,1745152422814567253
1351457,-29,67,27,1202,-665,-7981,1745152422814567253
1351649,-12,68,23,1211,-652,-7886,1745152422814567253
1351841,3,67,20,1232,-653,-7777,1745152422814567253
1352033,14,65,22,1226,-658,-7738,1745152422814567253
1352225,21,60,26,1233,-707,-7710,1745152422814567253
1352417,25,53,29,1241,-732,-7714,1745152422814567253
1352609,24,48,31,1226,-762,-7747,1745152422814567253
1352801,19,44,36,1214,-799,-7785,1745152422814567253
1352993,9,39,40,1237,-829,-7816,1745152422814567253
1353185,0,33,43,1269,-862,-7898,1745152422873867544
1353377,-7,28,44,1287,-856,-7972,1745152422873867544
1353569,-11,28,41,1273,-812,-8041,1745152422873867544
1353761,-8,32,35,1265,-754,-8043,1745152422873867544
1353953,4,34,31,1291,-694,-8051,1745152422873867544
1354145,19,32,22,1251,-790,-7748,1745152422873867544
1354337,29,54,7,117,-1483,-6952,1745152422873867544
1354529,-151,274,-36,-1420,-3977,-8081,1745152422873867544
1354721,-431,345,-67,1389,-3871,-8518,1745152422873867544
1354913,-432,160,63,3111,-1046,-7418,1745152422873867544
1355105,-385,149,186,2141,412,-7202,1745152422873867544
1355297,-338,168,117,1160,371,-7471,1745152422873867544
1355489,-297,178,-33,1423,141,-7657,1745152422928191892
1355681,-205,129,-105,1734,28,-7668,1745152422928191892
1355873,-112,77,-81,1828,-72,-7794,1745152422928191892
1356065,-64,40,-42,1900,-225,-7890,1745152422928191892
1356257,-57,1,-28,1905,-311,-7915,1745152422928191892
1356449,-48,-51,-23,1859,-217,-7922,1745152422928191892
1356641,-19,-114,-14,1877,-140,-7872,1745152422928191892
1356833,10,-177,-7,1830,-150,-7836,1745152422928191892
1357025,34,-210,-6,1496,-80,-7858,1745152422928191892
1357217,66,-216,-12,1124,29,-7933,1745152422928191892
1357409,101,-201,-21,904,-78,-8087,1745152422928191892
1357601,126,-171,-25,829,-280,-8229,1745152422928191892
1357793,146,-146,-20,929,-449,-8312,1745152422986831773
1357985,165,-131,-8,1067,-520,-8363,1745152422986831773
1358177,178,-120,7,1143,-524,-8378,1745152422986831773
1358369,177,-113,12,1106,-634,-8360,1745152422986831773
1358561,164,-99,4,1006,-726,-8278,1745152422986831773
1358753,152,-81,-1,939,-867,-8220,1745152422986831773
1358945,131,-60,5,927,-1029,-8186,1745152422986831773
1359137,102,-40,15,965,-1111,-8161,1745152422986831773
1359329,71,-23,23,1004,-1100,-8116,1745152422986831773
1359521,46,-8,26,1062,-1045,-8069,1745152422986831773
1359713,29,4,22,1083,-1000,-8020,1745152422986831773
1359905,16,17,13,1087,-966,-7989,1745152422986831773
1360097,7,27,4,1093,-918,-7967,1745152423045730818
1360289,0,35,-1,1090,-920,-7931,1745152423045730818
1360481,-4,44,-3,1106,-917,-7929,1745152423045730818
1360673,-6,51,-2,1116,-918,-7982,1745152423045730818
1360865,-11,55,-3,1129,-959,-8044,1745152423045730818
1361057,-17,58,-7,1130,-986,-8075,1745152423045730818
1361249,-24,59,-11,1113,-985,-8136,1745152423045730818
1361441,-34,61,-14,1085,-935,-8151,1745152423045730818
1361633,-42,65,-15,1107,-833,-8149,1745152423045730818
1361825,-50,67,-16,1175,-801,-8059,1745152423045730818
1362017,-60,63,-19,1219,-788,-8022,1745152423045730818
1362209,-71,62,-22,1197,-745,-7985,1745152423045730818
1397921,-8,-4,-25,1409,-256,-8052,1745152424005438822
1398113,-89,36,-50,1286,-1306,-8791,1745152424005438822
1398305,10,4,-49,1779,954,-7665,1745152424005438822
1398497,91,-9,-15,1481,122,-8156,1745152424005438822
1398689,88,4,-54,1498,-483,-8521,1745152424005438822
1398881,78,-5,-88,1464,-690,-8228,1745152424005438822
1399073,109,17,-76,1336,-1002,-8123,1745152424005438822
1399265,201,4,-74,1312,-585,-8227,1745152424005438822
1399457,253,58,-48,1342,-1182,-7973,1745152424005438822
1399649,311,130,-44,960,-393,-8490,1745152424005438822
1399841,-704,6,-82,1922,-5543,-8021,1745152424005438822
1400033,-585,9,-151,2011,-3813,-8032,1745152424005438822
1400225,-666,15,-72,1953,-2147,-7844,1745152424064280680
1400417,-676,-49,18,1505,-217,-7414,1745152424064280680
1400609,-598,-15,22,1034,1244,-7194,1745152424064280680
1400801,-456,10,-52,783,1993,-6990,1745152424064280680
1400993,-258,44,-136,813,2022,-6852,1745152424064280680
1401185,-63,73,-193,1061,1497,-7021,1745152424064280680
1401377,79,79,-205,1381,656,-7304,1745152424064280680
1401569,146,66,-184,1619,-237,-7604,1745152424064280680
1401761,147,31,-152,1756,-917,-7878,1745152424064280680
1401953,106,-7,-124,1718,-1308,-8077,1745152424064280680
1402145,47,-34,-108,1493,-1397,-8214,1745152424064280680
1402337,-17,-41,-102,1224,-1282,-8320,1745152424064280680
1402529,-73,-34,-103,1075,-1063,-8388,1745152424119733819
1402721,-115,-18,-111,1061,-845,-8461,1745152424119733819
1402913,-145,2,-120,1174,-658,-8579,1745152424119733819
1403105,-169,14,-126,1370,-545,-8704,1745152424119733819
1403297,-189,12,-131,1617,-483,-8850,1745152424119733819
1403489,-220,2,-134,1776,-454,-9022,1745152424119733819
1403681,-265,-13,-133,1856,-455,-9169,1745152424119733819
1403873,-322,-34,-127,1893,-509,-9265,1745152424119733819
1404065,-382,-56,-113,1921,-566,-9400,1745152424119733819
1404257,-447,-90,-97,2008,-647,-9476,1745152424119733819
1404449,-529,-130,-95,2086,-720,-9469,1745152424119733819
1404641,-634,-169,-103,2123,-738,-9485,1745152424119733819
1404833,-751,-209,-112,2185,-713,-9395,1745152424176661893
1405025,-864,-236,-120,2247,-579,-9122,1745152424176661893
1405217,-952,-245,-132,2229,-356,-8634,1745152424176661893
1405409,-981,-225,-152,2134,44,-8596,1745152424176661893
1405601,-950,-195,-170,2097,608,-8596,1745152424176661893
1405793,-896,-155,-191,2289,1039,-8187,1745152424176661893
1405985,-906,-85,-212,2398,1276,-7726,1745152424176661893
1406177,-887,-62,-230,2533,1343,-7806,1745152424176661893
1406369,-742,-135,-245,2684,1351,-7755,1745152424176661893
1406561,-567,-193,-246,2918,1327,-7530,1745152424176661893
1406753,-411,-189,-236,3149,1333,-7595,1745152424176661893
1406945,-283,-187,-230,3346,1357,-7531,1745152424176661893
1407137,-161,-196,-248,3479,1417,-7332,1745152424251992247
1407329,-29,-207,-290,3512,1487,-7008,1745152424251992247
1407521,104,-191,-351,3391,1567,-6811,1745152424251992247
1407713,240,-132,-416,3100,1617,-6892,1745152424251992247
1407905,365,-47,-471,2795,1475,-7277,1745152424251992247
1408097,489,33,-514,2704,1052,-7837,1745152424251992247
1408289,623,62,-531,2917,255,-8002,1745152424251992247
1408481,733,17,-515,3325,-740,-7712,1745152424251992247
1408673,807,-75,-492,3660,-1608,-7301,1745152424251992247
1408865,834,-174,-489,3839,-2235,-6986,1745152424251992247
1409057,808,-273,-517,3861,-2635,-6454,1745152424251992247
1409249,737,-334,-550,3686,-2875,-5980,1745152424251992247
1409441,620,-353,-570,3463,-3055,-6014,1745152424308275743
1409633,461,-385,-591,3330,-3047,-6085,1745152424308275743
1409825,264,-431,-619,3208,-2814,-6237,1745152424308275743
1410017,50,-474,-650,3144,-2500,-6477,1745152424308275743
1410209,-147,-507,-670,3149,-2172,-6790,1745152424308275743
1410401,-308,-544,-663,3389,-1883,-6912,1745152424308275743
1410593,-434,-594,-623,4028,-1642,-6722,1745152424308275743
1410785,-505,-621,-539,5075,-1484,-6796,1745152424308275743
1410977,-590,-732,-469,5850,-1083,-7827,1745152424308275743
1411169,-695,-986,-515,6015,-522,-8316,1745152424308275743
1411361,-607,-1269,-618,5614,103,-8213,1745152424308275743
1411553,-407,-1405,-649,5095,339,-8570,1745152424308275743
1411745,-284,-1441,-611,4688,-206,-9129,1745152424350818375
1411937,-245,-1529,-574,4119,-1241,-9090,1745152424350818375
1412129,-245,-1601,-543,3310,-2203,-8736,1745152424350818375
1412321,-281,-1585,-497,2354,-2767,-8418,1745152424350818375
1412513,-357,-1483,-441,1433,-2934,-8131,1745152424350818375
1412705,-456,-1333,-392,696,-2860,-7798,1745152424350818375
1412897,-542,-1168,-345,247,-2707,-7591,1745152424350818375
1413089,-605,-1020,-296,234,-2629,-7460,1745152424350818375
1413281,-657,-899,-243,563,-2706,-7285,1745152424350818375
1413473,-706,-808,-182,1010,-2825,-7219,1745152424350818375
1413665,-747,-734,-121,1420,-2908,-7098,1745152424350818375
1413857,-787,-671,-75,1644,-2823,-7016,1745152424350818375
1414049,-825,-620,-47,1679,-2684,-6949,1745152424411975108
1414241,-850,-575,-28,1545,-2449,-6827,1745152424411975108
1414433,-856,-533,-2,1348,-2229,-6826,1745152424411975108
1414625,-839,-493,35,1164,-2028,-6882,1745152424411975108
1414817,-802,-444,85,1010,-1796,-6995,1745152424411975108
1415009,-744,-385,150,933,-1481,-7063,1745152424411975108
1415201,-670,-321,225,922,-1131,-7106,1745152424411975108
1415393,-584,-261,305,989,-835,-7143,1745152424411975108
1415585,-492,-210,386,1067,-711,-7157,1745152424411975108
1415777,-396,-167,466,1116,-753,-7272,1745152424411975108
1415969,-297,-130,544,1124,-944,-7454,1745152424411975108
1416161,-204,-91,618,1092,-1214,-7663,1745152424411975108
1416353,-128,-44,689,1025,-1487,-7821,1745152424471167901
1416545,-71,10,757,929,-1715,-7906,1745152424471167901
1416737,-32,71,821,796,-1893,-7990,1745152424471167901
1416929,-3,143,889,633,-2011,-8048,1745152424471167901
1417121,22,225,960,493,-2055,-8096,1745152424471167901
1417313,44,318,1028,408,-2036,-8171,1745152424471167901
1417505,65,413,1090,406,-2002,-8216,1745152424471167901
1417697,88,509,1149,433,-1962,-8244,1745152424471167901
1417889,114,605,1210,496,-1890,-8231,1745152424471167901
1418081,128,681,1272,730,-1888,-8285,1745152424471167901
1418273,121,712,1341,1124,-1974,-8075,1745152424471167901
1418465,103,712,1418,1445,-2057,-7641,1745152424471167901
1418657,87,709,1495,1591,-1979,-7150,1745152424534502426
1418849,80,729,1556,1489,-1745,-6880,1745152424534502426
1419041,79,774,1594,1252,-1409,-6749,1745152424534502426
1419233,81,832,1618,1020,-1102,-6698,1745152424534502426
1419425,92,894,1647,857,-850,-6742,1745152424534502426
1419617,111,955,1694,782,-651,-6843,1745152424534502426
1419809,136,1013,1763,803,-502,-6981,1745152424534502426
1420001,170,1075,1846,898,-382,-7181,1745152424534502426
1420193,211,1133,1931,1038,-256,-7392,1745152424534502426
1420385,266,1187,2016,1149,-157,-7688,1745152424534502426
1420577,333,1237,2098,1241,-81,-7984,1745152424534502426
1420769,409,1279,2173,1310,-48,-8265,1745152424534502426
1420961,491,1314,2243,1353,-51,-8466,1745152424592992361
1421153,569,1345,2309,1380,-151,-8547,1745152424592992361
1421345,637,1377,2367,1357,-306,-8674,1745152424592992361
1421537,692,1409,2421,1337,-526,-8625,1745152424592992361
1421729,724,1432,2475,1352,-834,-8624,1745152424592992361
1421921,732,1461,2532,1351,-1102,-8777,1745152424592992361
1422113,730,1494,2595,1329,-1312,-8845,1745152424592992361
1422305,721,1529,2670,1339,-1394,-8841,1745152424592992361
1422497,707,1576,2753,1341,-1359,-8874,1745152424592992361
1422689,690,1625,2840,1391,-1281,-8886,1745152424592992361
1422881,665,1670,2926,1516,-1172,-8829,1745152424592992361
1423073,629,1715,3016,1659,-1072,-8686,1745152424592992361
1423265,586,1767,3107,1774,-926,-8582,1745152424644085644
1423457,536,1817,3198,1895,-830,-8517,1745152424644085644
1423649,477,1861,3289,2009,-792,-8399,1745152424644085644
1423841,411,1904,3380,2144,-841,-8286,1745152424644085644
1424033,345,1942,3468,2273,-921,-8231,1745152424644085644
1424225,288,1970,3553,2382,-1034,-8096,1745152424644085644
1424417,241,1987,3629,2516,-1129,-7978,1745152424644085644
1424609,198,1999,3688,2696,-1236,-7932,1745152424644085644
1424801,157,1998,3730,2931,-1372,-7929,1745152424644085644
1424993,126,1975,3766,3161,-1574,-7910,1745152424644085644
1425185,97,1942,3799,3438,-1743,-7818,1745152424644085644
1425377,66,1907,3826,3700,-1852,-7719,1745152424644085644
1425569,24,1874,3839,3951,-1873,-7640,1745152424715497492
1425761,-30,1847,3831,4174,-1819,-7593,1745152424715497492
1425953,-96,1819,3804,4360,-1730,-7672,1745152424715497492
1426145,-176,1781,3769,4566,-1583,-7658,1745152424715497492
1426337,-262,1752,3732,4756,-1348,-7595,1745152424715497492
1426529,-350,1728,3701,4915,-1113,-7714,1745152424715497492
1426721,-436,1702,3680,5112,-893,-7910,1745152424715497492
1426913,-511,1664,3676,5304,-727,-8067,1745152424715497492
1427105,-573,1617,3689,5551,-626,-8171,1745152424715497492
1427297,-626,1575,3713,5846,-578,-8283,1745152424715497492
1427489,-676,1522,3744,6168,-588,-8327,1745152424715497492
1427681,-727,1459,3764,6510,-635,-8263,1745152424715497492
1427873,-776,1401,3777,6736,-593,-8168,1745152424766026613
1428065,-820,1336,3800,6951,-558,-8110,1745152424766026613
1428257,-867,1269,3820,7109,-529,-8011,1745152424766026613
1428449,-919,1207,3825,7261,-509,-7887,1745152424766026613
1428641,-979,1151,3819,7341,-441,-7776,1745152424766026613
1428833,-1043,1096,3805,7422,-402,-7698,1745152424766026613
1429025,-1118,1042,3793,7502,-332,-7592,1745152424766026613
1429217,-1195,1002,3784,7535,-225,-7517,1745152424766026613
1429409,-1265,969,3773,7540,-56,-7504,1745152424766026613
1429601,-1323,933,3753,7580,161,-7507,1745152424766026613
1429793,-1372,893,3725,7652,432,-7470,1745152424766026613
1429985,-1410,859,3692,7753,739,-7456,1745152424766026613
1430177,-1435,826,3656,7845,1037,-7472,1745152424819971694
1430369,-1449,791,3612,7951,1308,-7491,1745152424819971694
1430561,-1457,748,3559,8036,1544,-7597,1745152424819971694
1430753,-1460,696,3504,8111,1694,-7604,1745152424819971694
1430945,-1456,662,3448,8200,1788,-7765,1745152424819971694
1431137,-1439,591,3398,8231,1916,-7829,1745152424819971694
1431329,-1413,527,3356,8214,2053,-7723,1745152424819971694
1431521,-1368,476,3308,8111,2206,-7549,1745152424819971694
1431713,-1289,427,3240,7986,2353,-7375,1745152424819971694
1431905,-1185,389,3138,7759,2514,-7302,1745152424819971694
1432097,-1072,353,3021,7360,2893,-7073,1745152424819971694
1432289,-954,289,2952,7102,2836,-7152,1745152424819971694
1432481,-839,229,2868,6852,2702,-7200,1745152424884815633
1432673,-729,182,2784,6596,2524,-7327,1745152424884815633
1432865,-628,135,2708,6404,2267,-7358,1745152424884815633
1433057,-539,111,2636,6205,2012,-7392,1745152424884815633
1433249,-458,72,2570,6060,1824,-7274,1745152424884815633
1433441,-395,31,2496,5899,1651,-7225,1745152424884815633
1433633,-359,-10,2409,5713,1506,-7246,1745152424884815633
1433825,-346,-40,2317,5486,1390,-7208,1745152424884815633
1434017,-343,-65,2229,5275,1331,-7112,1745152424884815633
1434209,-337,-83,2153,5022,1336,-6983,1745152424884815633
1434401,-328,-102,2076,4819,1318,-6911,1745152424884815633
1434593,-318,-124,1985,4614,1238,-6872,1745152424884815633
1434785,-305,-146,1890,4442,1044,-6854,1745152424942393857
1434977,-293,-168,1803,4266,854,-6990,1745152424942393857
1435169,-301,-171,1723,4044,645,-7010,1745152424942393857
1435361,-309,-165,1648,3833,423,-7058,1745152424942393857
1435553,-320,-161,1567,3641,186,-7108,1745152424942393857
1435745,-322,-160,1484,3470,-24,-7188,1745152424942393857
1435937,-328,-148,1408,3343,-188,-7274,1745152424942393857
1436129,-347,-127,1334,3253,-309,-7346,1745152424942393857
1436321,-372,-108,1264,3175,-407,-7370,1745152424942393857
1436513,-393,-90,1201,3149,-482,-7423,1745152424942393857
1436705,-412,-80,1145,3191,-543,-7452,1745152424942393857
1436897,-436,-72,1092,3233,-601,-7379,1745152424942393857
1437089,-460,-68,1042,3283,-625,-7288,1745152424994970772
1437281,-473,-73,996,3281,-570,-7256,1745152424994970772
1437473,-476,-86,956,3245,-443,-7278,1745152424994970772
1437665,-480,-94,920,3194,-303,-7260,1745152424994970772
1437857,-481,-102,886,3148,-194,-7203,1745152424994970772
1438049,-470,-112,855,3138,-123,-7163,1745152424994970772
1438241,-445,-122,829,3109,-125,-7181,1745152424994970772
1438433,-415,-134,804,3093,-175,-7268,1745152424994970772
1438625,-392,-143,784,3065,-260,-7338,1745152424994970772
1438817,-381,-149,770,3018,-333,-7407,1745152424994970772
1439009,-379,-155,761,2942,-375,-7449,1745152424994970772
1439201,-382,-159,756,2871,-394,-7424,1745152424994970772
1439393,-391,-160,749,2818,-448,-7399,1745152425062454426
1439585,-398,-160,735,2760,-583,-7376,1745152425062454426
1439777,-402,-161,719,2689,-719,-7411,1745152425062454426
1439969,-408,-157,706,2632,-816,-7447,1745152425062454426
1440161,-419,-147,701,2589,-854,-7419,1745152425062454426
1440353,-429,-136,695,2595,-877,-7426,1745152425062454426
1440545,-441,-125,681,2597,-881,-7421,1745152425062454426
1440737,-458,-114,662,2624,-858,-7405,1745152425062454426
1440929,-476,-105,643,2688,-831,-7298,1745152425062454426
1441121,-485,-102,627,2715,-786,-7135,1745152425062454426
1441313,-478,-105,610,2705,-711,-7057,1745152425062454426
1441505,-463,-108,587,2647,-592,-7118,1745152425062454426
1441697,-452,-108,558,2601,-519,-7213,1745152425126313010
1441889,-445,-103,528,2573,-487,-7204,1745152425126313010
1442081,-433,-99,502,2534,-458,-7152,1745152425126313010
1442273,-410,-95,481,2506,-426,-7166,1745152425126313010
1442465,-385,-92,457,2493,-385,-7215,1745152425126313010
1442657,-356,-86,432,2478,-333,-7219,1745152425126313010
1442849,-321,-80,408,2477,-275,-7248,1745152425126313010
1443041,-280,-78,385,2485,-271,-7273,1745152425126313010
1443233,-236,-81,361,2517,-330,-7282,1745152425126313010
1443425,-194,-87,338,2524,-426,-7280,1745152425126313010
1443617,-163,-96,315,2511,-545,-7292,1745152425126313010
1443809,-144,-104,294,2488,-693,-7309,1745152425126313010
1444001,-135,-107,276,2416,-789,-7314,1745152425175340010
1444193,-127,-107,261,2347,-847,-7355,1745152425175340010
1444385,-121,-103,246,2285,-849,-7357,1745152425175340010
1444577,-117,-96,234,2240,-846,-7359,1745152425175340010
1444769,-117,-88,221,2199,-892,-7350,1745152425175340010
1444961,-124,-78,212,2179,-941,-7326,1745152425175340010
1445153,-135,-67,209,2162,-950,-7338,1745152425175340010
1445345,-153,-57,203,2238,-974,-7399,1745152425175340010
1445537,-183,-44,179,2286,-1008,-7418,1745152425175340010
1445729,-205,-36,149,2289,-1023,-7396,1745152425175340010
1445921,-213,-36,132,2302,-967,-7377,1745152425175340010
1446113,-208,-40,129,2277,-942,-7347,1745152425175340010
1446305,-192,-49,132,2248,-911,-7337,1745152425235072277
1446497,-170,-59,127,2236,-884,-7315,1745152425235072277
1446689,-148,-70,114,2227,-867,-7322,1745152425235072277
1446881,-132,-76,94,2236,-874,-7375,1745152425235072277
1447073,-127,-77,68,2227,-927,-7387,1745152425235072277
1447265,-120,-80,47,2223,-961,-7368,1745152425235072277
1447457,-111,-83,36,2209,-957,-7333,1745152425235072277
1447649,-93,-88,31,2211,-931,-7322,1745152425235072277
1447841,-72,-91,27,2209,-914,-7352,1745152425235072277
1448033,-48,-89,23,2205,-918,-7409,1745152425235072277
1448225,-24,-83,21,2192,-944,-7496,1745152425235072277
1448417,-7,-80,20,2172,-973,-7535,1745152425235072277
1448609,1,-74,22,2135,-1033,-7518,1745152425286787221
1448801,7,-64,26,2085,-1104,-7514,1745152425286787221
1448993,10,-51,34,1997,-1181,-7563,1745152425286787221
1449185,4,-32,43,1967,-1216,-7582,1745152425286787221
1449377,-6,-12,51,1914,-1257,-7580,1745152425286787221
1449569,-19,11,55,1899,-1277,-7576,1745152425286787221
1449761,-38,38,57,1901,-1327,-7572,1745152425286787221
1449953,-60,64,59,1941,-1390,-7578,1745152425286787221
1450145,-79,83,62,2004,-1418,-7574,1745152425286787221
1450337,-97,98,65,2064,-1413,-7569,1745152425286787221
1450529,-113,111,64,2120,-1363,-7595,1745152425286787221
1450721,-121,119,56,2185,-1307,-7512,1745152425286787221
1450913,-109,115,50,2258,-1246,-7459,1745152425351800117
1451105,-90,103,40,2326,-1208,-7405,1745152425351800117
1451297,-67,87,26,2366,-1187,-7391,1745152425351800117
1451489,-42,68,8,2370,-1160,-7440,1745152425351800117
1451681,-20,47,-12,2351,-1176,-7464,1745152425351800117
1451873,3,23,-29,2291,-1235,-7471,1745152425351800117
1452065,42,1,-41,2279,-1263,-7451,1745152425351800117
1452257,61,-3,-56,2226,-1340,-7510,1745152425351800117
1452449,84,-30,-66,2231,-1377,-7535,1745152425351800117
1452641,89,-31,-72,2208,-1431,-7560,1745152425351800117
1452833,92,-39,-79,2215,-1508,-7558,1745152425351800117
1453025,91,-44,-85,2192,-1548,-7602,1745152425351800117
1453217,91,-45,-84,2172,-1510,-7682,1745152425410427289
1453409,82,-43,-82,2129,-1475,-7729,1745152425410427289
1453601,68,-41,-86,2121,-1459,-7773,1745152425410427289
1453793,52,-33,-90,2083,-1500,-7780,1745152425410427289
1453985,39,-24,-89,2075,-1526,-7758,1745152425410427289
1454177,28,-14,-86,2086,-1537,-7734,1745152425410427289
1454369,14,-5,-82,2111,-1517,-7692,1745152425410427289
1454561,-1,2,-80,2133,-1553,-7608,1745152425410427289
1454753,-11,6,-77,2142,-1653,-7545,1745152425410427289
1454945,-15,5,-74,2138,-1755,-7526,1745152425410427289
1455137,-23,5,-69,2145,-1849,-7539,1745152425410427289
1455329,-38,6,-65,2131,-1898,-7582,1745152425410427289
1455521,-54,12,-62,2097,-1850,-7643,1745152425471136162
1455713,-68,20,-61,2090,-1755,-7622,1745152425471136162
1455905,-71,27,-63,2129,-1639,-7624,1745152425471136162
1456097,-61,28,-67,2188,-1582,-7593,1745152425471136162
1456289,-43,26,-70,2263,-1568,-7591,1745152425471136162
1456481,-22,17,-71,2331,-1582,-7637,1745152425471136162
1456673,-5,5,-77,2377,-1598,-7699,1745152425471136162
1456865,3,-7,-86,2390,-1618,-7707,1745152425471136162
1457057,8,-21,-98,2376,-1690,-7685,1745152425471136162
1457249,16,-35,-110,2337,-1775,-7659,1745152425471136162
1457441,21,-48,-121,2289,-1880,-7642,1745152425471136162
1457633,22,-58,-133,2214,-1947,-7617,1745152425471136162
1457825,22,-63,-141,2152,-1920,-7640,1745152425533010180
1458017,17,-62,-148,2103,-1872,-7655,1745152425533010180
1458209,10,-57,-156,2066,-1871,-7628,1745152425533010180
1458401,8,-50,-159,2078,-1854,-7595,1745152425533010180
1458593,9,-42,-158,2081,-1869,-7594,1745152425533010180
1458785,12,-39,-154,2110,-1863,-7652,1745152425533010180
1458977,10,-39,-150,2122,-1873,-7681,1745152425533010180
1459169,1,-38,-145,2158,-1899,-7685,1745152425533010180
1459361,-8,-37,-135,2160,-1955,-7686,1745152425533010180
1459553,-11,-35,-123,2152,-1952,-7712,1745152425533010180
1459745,-15,-31,-111,2133,-1928,-7733,1745152425533010180
1459937,-21,-29,-104,2117,-1929,-7718,1745152425533010180
1460129,-26,-26,-99,2085,-1954,-7682,1745152425586919948
1460321,-24,-20,-95,2075,-1994,-7669,1745152425586919948
1460513,-20,-15,-89,2051,-2012,-7665,1745152425586919948
1460705,-15,-10,-81,2059,-2018,-7654,1745152425586919948
1460897,-12,-4,-74,2077,-2017,-7644,1745152425586919948
1461089,-12,3,-71,2097,-2025,-7609,1745152425586919948
1461281,-13,7,-70,2146,-2027,-7594,1745152425586919948
1461473,-13,9,-71,2179,-2020,-7610,1745152425586919948
1461665,-17,8,-72,2188,-1992,-7602,1745152425586919948
1461857,-20,5,-73,2227,-1950,-7580,1745152425586919948
1462049,-19,1,-73,2235,-1952,-7558,1745152425586919948
1462241,-11,-5,-73,2234,-1943,-7558,1745152425586919948
1462433,-1,-12,-75,2240,-1927,-7578,1745152425643430630
1462625,5,-16,-77,2250,-1930,-7587,1745152425643430630
1462817,9,-19,-77,2228,-1982,-7584,1745152425643430630
1463009,21,-26,-76,2219,-2018,-7563,1745152425643430630
1463201,39,-33,-70,2178,-2037,-7604,1745152425643430630
1463393,49,-36,-60,2135,-2029,-7669,1745152425643430630
1463585,50,-31,-53,2100,-2021,-7710,1745152425643430630
1463777,47,-23,-45,2057,-2002,-7727,1745152425643430630
1463969,41,-14,-35,2067,-2015,-7718,1745152425643430630
1464161,32,-4,-27,2064,-2044,-7723,1745152425643430630
1464353,17,5,-18,2077,-2099,-7698,1745152425643430630
1464545,-5,14,-9,2096,-2148,-7712,1745152425643430630
1464737,-30,25,-1,2128,-2152,-7706,1745152425702274675
1464929,-55,36,3,2163,-2079,-7717,1745152425702274675
1465121,-75,46,-2,2177,-1996,-7702,1745152425702274675
1465313,-84,51,-12,2199,-1956,-7638,1745152425702274675
1465505,-78,52,-22,2212,-1924,-7623,1745152425702274675
1465697,-64,47,-31,2252,-1878,-7591,1745152425702274675
1465889,-47,38,-40,2306,-1835,-7547,1745152425702274675
1466081,-27,31,-56,2311,-1810,-7519,1745152425702274675
1466273,-8,25,-82,2312,-1833,-7515,1745152425702274675
1466465,19,11,-106,2298,-1863,-7479,1745152425702274675
1466657,44,-8,-111,2255,-1790,-7457,1745152425702274675
1466849,48,-35,-82,2260,-2093,-7498,1745152425702274675
1467041,76,-42,-98,2200,-1969,-7563,1745152425760669298
1467233,84,-43,-105,2145,-1969,-7600,1745152425760669298
1467425,75,-47,-103,2091,-1959,-7620,1745152425760669298
1467617,62,-43,-96,2083,-1920,-7636,1745152425760669298
1467809,48,-38,-84,2100,-1862,-7639,1745152425760669298
1468001,35,-32,-72,2137,-1795,-7628,1745152425760669298
1468193,29,-28,-61,2159,-1748,-7666,1745152425760669298
1468385,26,-23,-52,2163,-1718,-7701,1745152425760669298
1468577,26,-19,-45,2191,-1702,-7725,1745152425760669298
1468769,26,-16,-40,2204,-1734,-7722,1745152425760669298
1468961,24,-13,-39,2192,-1801,-7697,1745152425760669298
1469153,21,-13,-40,2171,-1880,-7677,1745152425760669298
1469345,19,-14,-40,2156,-1940,-7650,1745152425818482051
1469537,14,-14,-41,2137,-1981,-7595,1745152425818482051
1469729,5,-15,-47,2110,-1976,-7542,1745152425818482051
1469921,-2,-14,-55,2081,-1986,-7495,1745152425818482051
1470113,-2,-12,-59,2064,-1947,-7513,1745152425818482051
1470305,1,-9,-59,2055,-1846,-7557,1745152425818482051
1470497,6,-6,-60,2079,-1770,-7544,1745152425818482051
1470689,21,-6,-60,2130,-1701,-7517,1745152425818482051
1470881,43,-12,-58,2216,-1683,-7508,1745152425818482051
1471073,66,-20,-57,2280,-1720,-7542,1745152425818482051
1471265,88,-31,-56,2296,-1777,-7571,1745152425818482051
1471457,102,-41,-55,2300,-1821,-7608,1745152425818482051
1471649,107,-50,-52,2265,-1852,-7629,1745152425881112885
1471841,103,-56,-51,2235,-1861,-7650,1745152425881112885
1472033,95,-58,-47,2172,-1888,-7651,1745152425881112885
1472225,86,-55,-44,2131,-1906,-7648,1745152425881112885
1472417,75,-49,-40,2091,-1944,-7644,1745152425881112885
1472609,62,-42,-34,2061,-1949,-7640,1745152425881112885
1472801,47,-34,-29,2046,-1940,-7676,1745152425881112885
1472993,24,-23,-28,2033,-1923,-7684,1745152425881112885
1473185,0,-13,-27,2050,-1927,-7673,1745152425881112885
1473377,-22,-2,-26,2066,-1935,-7658,1745152425881112885
1473569,-40,5,-23,2091,-1922,-7653,1745152425881112885
1473761,-55,9,-18,2114,-1885,-7658,1745152425881112885
1473953,-69,12,-14,2140,-1837,-7641,1745152425942329618
1474145,-80,14,-14,2183,-1786,-7601,1745152425942329618
1474337,-87,12,-16,2217,-1741,-7605,1745152425942329618
1474529,-84,7,-17,2227,-1724,-7611,1745152425942329618
1474721,-73,-2,-16,2238,-1710,-7613,1745152425942329618
1474913,-54,-10,-18,2247,-1660,-7615,1745152425942329618
1475105,-32,-19,-21,2249,-1638,-7581,1745152425942329618
1475297,-5,-28,-24,2240,-1633,-7549,1745152425942329618
1475489,23,-36,-26,2208,-1618,-7567,1745152425942329618
1475681,48,-44,-28,2172,-1613,-7576,1745152425942329618
1475873,67,-49,-29,2140,-1661,-7582,1745152425942329618
1476065,80,-51,-28,2090,-1734,-7605,1745152425942329618
1476257,87,-50,-25,2074,-1781,-7635,1745152425993158164
1476449,86,-46,-23,2068,-1818,-7674,1745152425993158164
1476641,77,-41,-21,2052,-1840,-7695,1745152425993158164
1476833,64,-32,-20,2051,-1834,-7713,1745152425993158164
1477025,51,-23,-18,2061,-1807,-7752,1745152425993158164
1477217,39,-14,-18,2075,-1755,-7746,1745152425993158164
1477409,30,-6,-20,2084,-1688,-7724,1745152425993158164
1477601,24,0,-22,2114,-1654,-7719,1745152425993158164
1477793,20,-3,-28,2168,-1664,-7676,1745152425993158164
1477985,18,-5,-33,2178,-1766,-7623,1745152425993158164
1478177,19,-13,-34,2188,-1868,-7597,1745152425993158164
1478369,15,-21,-31,2189,-1910,-7608,1745152425993158164
1478561,5,-27,-30,2147,-1895,-7606,1745152426053410999
1478753,-4,-29,-32,2105,-1850,-7589,1745152426053410999
1478945,-8,-30,-35,2099,-1817,-7538,1745152426053410999
1479137,-2,-30,-34,2087,-1781,-7528,1745152426053410999
1479329,9,-29,-31,2096,-1779,-7561,1745152426053410999
1479521,16,-27,-28,2118,-1780,-7600,1745152426053410999
1479713,18,-24,-24,2149,-1778,-7650,1745152426053410999
1479905,15,-21,-21,2156,-1796,-7679,1745152426053410999
1480097,10,-18,-20,2165,-1780,-7696,1745152426053410999
1480289,5,-15,-17,2157,-1753,-7713,1745152426053410999
1480481,1,-13,-14,2133,-1730,-7709,1745152426053410999
1480673,0,-9,-13,2109,-1737,-7697,1745152426053410999
1480865,1,-7,-13,2099,-1731,-7691,1745152426111936194
1481057,-4,-4,-14,2085,-1782,-7648,1745152426111936194
1481249,-9,0,-14,2084,-1848,-7612,1745152426111936194
1481441,-14,2,-11,2070,-1882,-7610,1745152426111936194
1481633,-25,6,-8,2073,-1896,-7609,1745152426111936194
1481825,-40,10,-8,2098,-1890,-7621,1745152426111936194
1482017,-58,13,-9,2123,-1863,-7593,1745152426111936194
1482209,-72,16,-9,2161,-1855,-7577,1745152426111936194
1482401,-83,14,-7,2190,-1814,-7581,1745152426111936194
1482593,-89,10,-6,2217,-1792,-7577,1745152426111936194
1482785,-91,4,-7,2235,-1783,-7551,1745152426111936194
1482977,-85,-1,-8,2228,-1736,-7513,1745152426111936194
1483169,-70,-8,-7,2208,-1685,-7507,1745152426169917956
1483361,-49,-12,-8,2163,-1617,-7511,1745152426169917956
1483553,-29,-15,-10,2131,-1583,-7552,1745152426169917956
1483745,-8,-15,-13,2078,-1563,-7606,1745152426169917956
1483937,12,-14,-15,2066,-1592,-7661,1745152426169917956
1484129,28,-12,-13,2068,-1626,-7710,1745152426169917956
1484321,35,-7,-12,2062,-1703,-7744,1745152426169917956
1484513,34,-3,-11,2053,-1765,-7759,1745152426169917956
1484705,27,1,-11,2051,-1783,-7771,1745152426169917956
1484897,20,5,-10,2056,-1771,-7760,1745152426169917956
1485089,9,10,-9,2043,-1725,-7729,1745152426169917956
1485281,0,15,-11,2069,-1734,-7696,1745152426169917956
1485473,-2,18,-13,2085,-1737,-7661,1745152426228536431
1485665,0,17,-14,2110,-1752,-7663,1745152426228536431
1485857,0,16,-16,2143,-1742,-7700,1745152426228536431
1486049,-6,15,-20,2159,-1773,-7712,1745152426228536431
1486241,-16,11,-25,2174,-1778,-7688,1745152426228536431
1486433,-24,8,-27,2193,-1787,-7689,1745152426228536431
1486625,-29,0,-26,2201,-1772,-7693,1745152426228536431
1486817,-31,-7,-24,2183,-1749,-7677,1745152426228536431
1487009,-31,-13,-25,2179,-1723,-7660,1745152426228536431
1487201,-28,-16,-28,2183,-1690,-7683,1745152426228536431
1487393,-23,-20,-29,2177,-1650,-7690,1745152426228536431
1487585,-13,-23,-28,2150,-1662,-7707,1745152426228536431
1487777,1,-25,-26,2147,-1695,-7723,1745152426295033740
1487969,14,-28,-25,2145,-1714,-7735,1745152426295033740
1488161,24,-29,-26,2141,-1712,-7757,1745152426295033740
1488353,33,-29,-27,2127,-1724,-7752,1745152426295033740
1488545,39,-28,-28,2100,-1729,-7748,1745152426295033740
1488737,45,-26,-31,2082,-1739,-7744,1745152426295033740
1488929,47,-23,-31,2083,-1793,-7767,1745152426295033740
1489121,46,-19,-29,2080,-1807,-7758,1745152426295033740
1489313,42,-16,-26,2088,-1818,-7767,1745152426295033740
1489505,35,-13,-25,2110,-1829,-7784,1745152426295033740
1489697,27,-9,-24,2125,-1845,-7774,1745152426295033740
1489889,20,-9,-23,2164,-1856,-7749,1745152426295033740
1490081,15,-10,-20,2186,-1854,-7735,1745152426355051889
1490273,9,-12,-18,2194,-1845,-7748,1745152426355051889
1490465,1,-19,-19,2194,-1832,-7741,1745152426355051889
1490657,-7,-22,-21,2176,-1804,-7730,1745152426355051889
1490849,-10,-27,-20,2150,-1789,-7757,1745152426355051889
1491041,-12,-29,-20,2153,-1790,-7761,1745152426355051889
1491233,-13,-30,-20,2150,-1799,-7772,1745152426355051889
1491425,-13,-32,-24,2167,-1829,-7788,1745152426355051889
1491617,-15,-35,-28,2163,-1832,-7760,1745152426355051889
1491809,-16,-40,-29,2155,-1842,-7755,1745152426355051889
1492001,-17,-44,-32,2130,-1810,-7772,1745152426355051889
1492193,-21,-45,-35,2091,-1799,-7724,1745152426355051889
1492385,-25,-46,-37,2070,-1813,-7683,1745152426402294479
1492577,-27,-46,-37,2086,-1851,-7665,1745152426402294479
1492769,-30,-45,-34,2074,-1860,-7684,1745152426402294479
1492961,-35,-43,-32,2082,-1860,-7689,1745152426402294479
1493153,-40,-41,-32,2094,-1838,-7661,1745152426402294479
1493345,-43,-39,-33,2101,-1823,-7649,1745152426402294479
1493537,-47,-40,-34,2117,-1822,-7622,1745152426402294479
1493729,-57,-40,-37,2123,-1845,-7619,1745152426402294479
1493921,-69,-42,-37,2110,-1894,-7593,1745152426402294479
1494113,-75,-46,-31,2100,-1887,-7605,1745152426402294479
1494305,-76,-49,-22,2082,-1790,-7620,1745152426402294479
1494497,-73,-49,-19,2049,-1711,-7639,1745152426402294479
1494689,-66,-48,-20,2049,-1650,-7662,1745152426462481846
1494881,-54,-47,-22,2053,-1652,-7640,1745152426462481846
1495073,-42,-48,-19,2070,-1693,-7630,1745152426462481846
1495265,-30,-49,-14,2077,-1746,-7647,1745152426462481846
1495457,-27,-53,-14,2073,-1768,-7677,1745152426462481846
1495649,-31,-54,-15,2058,-1791,-7689,1745152426462481846
1495841,-39,-53,-17,2049,-1799,-7664,1745152426462481846
1496033,-42,-52,-17,2030,-1820,-7622,1745152426462481846
1496225,-41,-50,-20,2035,-1775,-7632,1745152426462481846
1496417,-43,-48,-24,2022,-1715,-7648,1745152426462481846
1496609,-49,-43,-30,2044,-1661,-7618,1745152426462481846
1496801,-53,-40,-35,2046,-1637,-7574,1745152426462481846
1496993,-51,-41,-38,2071,-1642,-7542,1745152426520947197
1497185,-43,-43,-37,2062,-1651,-7535,1745152426520947197
1497377,-33,-45,-34,2071,-1618,-7543,1745152426520947197
1497569,-24,-45,-35,2054,-1563,-7557,1745152426520947197
1497761,-15,-41,-37,2042,-1522,-7552,1745152426520947197
1497953,-4,-38,-37,2022,-1490,-7562,1745152426520947197
1498145,5,-34,-37,2014,-1506,-7583,1745152426520947197
1498337,10,-30,-36,2000,-1579,-7585,1745152426520947197
1498529,11,-26,-37,2010,-1633,-7604,1745152426520947197
1498721,10,-23,-35,2025,-1676,-7632,1745152426520947197
1498913,3,-21,-36,2026,-1667,-7665,1745152426520947197
1499105,-8,-18,-40,2040,-1659,-7614,1745152426520947197
1499297,-17,-17,-44,2042,-1684,-7524,1745152426578962552
1499489,-15,-17,-45,2039,-1703,-7495,1745152426578962552
1499681,-10,-21,-44,2035,-1706,-7537,1745152426578962552
1499873,-10,-25,-44,2015,-1707,-7557,1745152426578962552
1500065,-15,-25,-47,2015,-1701,-7581,1745152426578962552
1500257,-19,-24,-49,2005,-1686,-7641,1745152426578962552
1500449,-25,-22,-48,1984,-1646,-7656,1745152426578962552
1500641,-28,-19,-46,1999,-1615,-7657,1745152426578962552
1500833,-26,-15,-42,2023,-1564,-7658,1745152426578962552
1501025,-22,-12,-43,2039,-1507,-7657,1745152426578962552
1501217,-16,-11,-47,2072,-1459,-7658,1745152426578962552
1501409,-10,-12,-51,2082,-1432,-7659,1745152426578962552
1501601,-8,-14,-57,2087,-1438,-7668,1745152426637752797
1501793,-4,-16,-64,2105,-1473,-7621,1745152426637752797
1501985,4,-20,-68,2087,-1496,-7603,1745152426637752797
1502177,15,-24,-73,2047,-1468,-7641,1745152426637752797
1502369,21,-26,-81,2036,-1434,-7677,1745152426637752797
1502561,25,-26,-93,2015,-1392,-7671,1745152426637752797
1502753,31,-25,-103,2023,-1374,-7665,1745152426637752797
1502945,40,-24,-113,2033,-1386,-7678,1745152426637752797
1503137,44,-26,-122,2088,-1448,-7687,1745152426637752797
1503329,44,-30,-129,2095,-1537,-7687,1745152426637752797
1503521,39,-34,-135,2102,-1589,-7687,1745152426637752797
1503713,32,-37,-141,2089,-1568,-7705,1745152426637752797
1503905,29,-37,-147,2072,-1422,-7734,1745152426697729644
1504097,27,-39,-156,2058,-1271,-7714,1745152426697729644
1504289,30,-36,-169,2072,-1146,-7691,1745152426697729644
1504481,39,-36,-183,2100,-1069,-7677,1745152426697729644
1504673,52,-39,-194,2110,-1056,-7674,1745152426697729644
1504865,63,-42,-206,2154,-1035,-7699,1745152426697729644
1505057,72,-46,-220,2170,-1020,-7774,1745152426697729644
1505249,75,-50,-237,2193,-961,-7809,1745152426697729644
1505441,75,-54,-257,2203,-873,-7830,1745152426697729644
1505633,72,-58,-278,2226,-770,-7838,1745152426697729644
1505825,70,-64,-301,2262,-678,-7844,1745152426697729644
1506017,69,-73,-326,2294,-592,-7800,1745152426697729644
1506209,75,-82,-351,2315,-485,-7773,1745152426762339263
1506401,88,-88,-382,2342,-326,-7801,1745152426762339263
1506593,104,-95,-420,2397,-135,-7773,1745152426762339263
1506785,123,-105,-459,2460,27,-7688,1745152426762339263
1506977,144,-120,-498,2565,170,-7622,1745152426762339263
1507169,165,-136,-537,2625,275,-7489,1745152426762339263
1507361,199,-157,-577,2679,397,-7375,1745152426762339263
1507553,243,-178,-621,2699,547,-7293,1745152426762339263
1507745,293,-200,-670,2704,682,-7220,1745152426762339263
1507937,343,-221,-723,2750,766,-7221,1745152426762339263
1508129,385,-240,-779,2794,796,-7266,1745152426762339263
1508321,418,-255,-837,2832,789,-7345,1745152426762339263
1508513,451,-270,-894,2862,757,-7485,1745152426810378251
1508705,482,-283,-951,2874,766,-7672,1745152426810378251
1508897,510,-292,-1007,2920,784,-7782,1745152426810378251
1509089,528,-299,-1067,2946,843,-7858,1745152426810378251
1509281,539,-302,-1130,2998,878,-7895,1745152426810378251
1509473,543,-306,-1190,3057,899,-7946,1745152426810378251
1509665,547,-316,-1247,3137,954,-7920,1745152426810378251
1509857,550,-326,-1301,3208,968,-7911,1745152426810378251
1510049,553,-341,-1353,3288,923,-7870,1745152426810378251
1510241,551,-358,-1410,3327,859,-7832,1745152426810378251
1510433,548,-379,-1468,3391,810,-7832,1745152426810378251
1510625,537,-399,-1526,3434,771,-7718,1745152426810378251
1510817,531,-422,-1578,3464,776,-7616,1745152426869689219
1511009,530,-445,-1630,3474,801,-7562,1745152426869689219
1511201,535,-468,-1682,3491,851,-7558,1745152426869689219
1511393,551,-485,-1729,3488,914,-7497,1745152426869689219
1511585,579,-500,-1779,3455,978,-7450,1745152426869689219
1511777,616,-511,-1832,3477,969,-7423,1745152426869689219
1511969,652,-519,-1889,3519,895,-7416,1745152426869689219
1512161,685,-532,-1950,3602,756,-7435,1745152426869689219
1512353,711,-548,-2006,3688,646,-7438,1745152426869689219
1512545,735,-568,-2058,3783,589,-7459,1745152426869689219
1512737,753,-593,-2111,3844,540,-7483,1745152426869689219
1512929,766,-620,-2164,3871,521,-7472,1745152426869689219
1513121,775,-645,-2218,3893,474,-7431,1745152426929903617
1513313,781,-671,-2269,3878,434,-7448,1745152426929903617
1513505,781,-696,-2314,3887,395,-7519,1745152426929903617
1513697,774,-714,-2353,3887,368,-7499,1745152426929903617
1513889,756,-731,-2390,3903,335,-7423,1745152426929903617
1514081,741,-744,-2425,3896,314,-7431,1745152426929903617
1514273,718,-751,-2464,3860,293,-7504,1745152426929903617
1514465,700,-756,-2504,3811,290,-7601,1745152426929903617
1514657,685,-759,-2544,3764,248,-7605,1745152426929903617
1514849,675,-762,-2581,3699,213,-7573,1745152426929903617
1515041,662,-765,-2618,3644,176,-7534,1745152426929903617
1515233,646,-766,-2653,3618,140,-7550,1745152426929903617
1515425,624,-765,-2687,3589,106,-7656,1745152426987880640
1515617,595,-763,-2727,3564,54,-7754,1745152426987880640
1515809,558,-763,-2768,3534,-24,-7837,1745152426987880640
1516001,516,-763,-2811,3536,-140,-7818,1745152426987880640
1516193,464,-766,-2852,3577,-292,-7762,1745152426987880640
1516385,402,-776,-2899,3616,-465,-7701,1745152426987880640
1516577,329,-794,-2948,3674,-640,-7610,1745152426987880640
1516769,251,-821,-3002,3691,-752,-7705,1745152426987880640
1516961,177,-851,-3053,3697,-738,-7780,1745152426987880640
1517153,109,-879,-3101,3666,-580,-7830,1745152426987880640
1517345,49,-900,-3145,3602,-318,-7880,1745152426987880640
1517537,0,-909,-3186,3538,-15,-7952,1745152426987880640
1517729,-36,-909,-3220,3481,280,-7985,1745152427044927410
1517921,-56,-903,-3252,3425,508,-8057,1745152427044927410
1518113,-54,-892,-3281,3418,655,-8154,1745152427044927410
1518305,-46,-886,-3309,3436,678,-8196,1745152427044927410
1518497,-37,-885,-3333,3462,577,-8200,1745152427044927410
1518689,-31,-889,-3347,3467,440,-8235,1745152427044927410
1518881,-21,-896,-3349,3455,285,-8264,1745152427044927410
1519073,-17,-901,-3352,3420,152,-8225,1745152427044927410
1519265,-22,-902,-3358,3310,64,-8147,1745152427044927410
1519457,-30,-903,-3358,3169,2,-8126,1745152427044927410
1519649,-37,-897,-3355,3048,-64,-8099,1745152427044927410
1519841,-40,-886,-3357,2936,-128,-7996,1745152427044927410
1520033,-43,-873,-3362,2807,-168,-7917,1745152427112303253
1520225,-47,-857,-3363,2713,-202,-7866,1745152427112303253
1520417,-52,-841,-3357,2685,-240,-7799,1745152427112303253
1520609,-59,-828,-3354,2669,-270,-7810,1745152427112303253
1520801,-64,-832,-3353,2666,-276,-7848,1745152427112303253
1520993,-68,-824,-3350,2701,-232,-7891,1745152427112303253
1521185,-69,-825,-3350,2759,-182,-7923,1745152427112303253
1521377,-66,-839,-3349,2843,-157,-7903,1745152427112303253
1521569,-58,-857,-3342,2861,-207,-7839,1745152427112303253
1521761,-43,-875,-3332,2794,-306,-7818,1745152427112303253
1521953,-22,-888,-3316,2693,-474,-7776,1745152427112303253
1522145,7,-888,-3295,2532,-674,-7793,1745152427112303253
1522337,34,-919,-3269,2346,-893,-7889,1745152427260828094
1522529,52,-940,-3241,2238,-1112,-7906,1745152427260828094
1522721,55,-945,-3208,2160,-1334,-7934,1745152427260828094
1522913,46,-962,-3173,2091,-1482,-7885,1745152427260828094
1523105,30,-963,-3138,2016,-1581,-7788,1745152427260828094
1523297,9,-957,-3103,1865,-1647,-7786,1745152427260828094
1523489,-2,-956,-3066,1683,-1633,-7781,1745152427260828094
1523681,-12,-926,-3029,1562,-1615,-7870,1745152427260828094
1523873,-22,-904,-2993,1476,-1577,-7985,1745152427260828094
1524065,-43,-895,-2957,1466,-1584,-7953,1745152427260828094
1524257,-74,-900,-2916,1577,-1678,-7956,1745152427260828094
1524449,-110,-929,-2863,1676,-1787,-7918,1745152427260828094
1524641,-142,-959,-2796,1747,-1895,-7764,1745152427282332742
1524833,-166,-972,-2730,1719,-1957,-7701,1745152427282332742
1525025,-184,-972,-2676,1630,-1978,-7828,1745152427282332742
1525217,-200,-996,-2634,1489,-1956,-7838,1745152427282332742
1525409,-219,-1015,-2592,1337,-1897,-7574,1745152427282332742
1525601,-244,-1003,-2544,1103,-1819,-7367,1745152427282332742
1525793,-268,-967,-2496,818,-1732,-7418,1745152427282332742
1525985,-282,-930,-2456,606,-1660,-7563,1745152427282332742
1526177,-284,-892,-2421,459,-1628,-7713,1745152427282332742
1526369,-279,-851,-2384,426,-1668,-7854,1745152427282332742
1526561,-278,-824,-2337,476,-1721,-7865,1745152427282332742
1526753,-283,-806,-2277,537,-1760,-7727,1745152427282332742
1526945,-289,-781,-2212,535,-1746,-7682,1745152427289590436
1527137,-297,-752,-2148,500,-1697,-7719,1745152427289590436
1527329,-302,-728,-2090,441,-1636,-7700,1745152427289590436
1527521,-302,-704,-2040,335,-1569,-7757,1745152427289590436
1527713,-294,-676,-1992,281,-1463,-7978,1745152427289590436
1527905,-278,-656,-1937,268,-1381,-8140,1745152427289590436
1528097,-256,-650,-1869,338,-1331,-8171,1745152427289590436
1528289,-233,-641,-1789,358,-1246,-8081,1745152427289590436
1528481,-202,-613,-1706,361,-1157,-8254,1745152427289590436
1528673,-175,-573,-1634,353,-1088,-8424,1745152427289590436
1528865,-146,-538,-1573,385,-1046,-8591,1745152427289590436
1529057,-124,-506,-1515,419,-986,-8700,1745152427289590436
1529249,-114,-469,-1454,479,-934,-8757,1745152427337474009
1529441,-119,-431,-1383,536,-848,-8724,1745152427337474009
1529633,-126,-383,-1306,539,-747,-8839,1745152427337474009
1529825,-129,-334,-1233,568,-623,-8960,1745152427337474009
1530017,-131,-291,-1164,626,-553,-8875,1745152427337474009
1530209,-121,-255,-1096,708,-547,-8752,1745152427337474009
1530401,-100,-224,-1037,799,-583,-8663,1745152427337474009
1530593,-78,-203,-995,900,-690,-8670,1745152427337474009
1530785,-68,-194,-966,973,-891,-8492,1745152427337474009
1530977,-62,-195,-926,998,-1100,-8255,1745152427337474009
1531169,-60,-192,-881,977,-1352,-8244,1745152427337474009
1531361,-62,-191,-853,904,-1595,-8050,1745152427337474009
1531553,-62,-186,-834,770,-1765,-7939,1745152427400768847
1531745,-64,-180,-815,673,-1859,-7962,1745152427400768847
1531937,-65,-178,-796,599,-1906,-7964,1745152427400768847
1532129,-63,-173,-776,586,-1901,-8019,1745152427400768847
1532321,-64,-169,-749,615,-1885,-8139,1745152427400768847
1532513,-70,-162,-715,724,-1862,-8261,1745152427400768847
1532705,-77,-163,-674,858,-1858,-8289,1745152427400768847
1532897,-78,-167,-628,923,-1832,-8303,1745152427400768847
1533089,-71,-165,-579,936,-1754,-8365,1745152427400768847
1533281,-59,-152,-523,898,-1675,-8436,1745152427400768847
1533473,-43,-129,-465,808,-1606,-8458,1745152427400768847
1533665,-25,-102,-400,753,-1571,-8457,1745152427400768847
1533857,-10,-69,-332,712,-1643,-8405,1745152427453402168
1534049,-3,-34,-265,716,-1748,-8414,1745152427453402168
1534241,-10,4,-202,736,-1899,-8379,1745152427453402168
1534433,-36,47,-140,817,-2047,-8311,1745152427453402168
1534625,-73,94,-82,873,-2148,-8223,1745152427453402168
1534817,-111,139,-28,926,-2200,-8102,1745152427453402168
1535009,-149,176,22,986,-2221,-8001,1745152427453402168
1535201,-187,215,68,1014,-2193,-7958,1745152427453402168
1535393,-211,257,107,1069,-2119,-8016,1745152427453402168
1535585,-222,299,141,1156,-2012,-8060,1745152427453402168
1535777,-221,340,169,1311,-1865,-8092,1745152427453402168
1535969,-212,375,191,1508,-1727,-8032,1745152427453402168
1536161,-191,405,213,1725,-1629,-8013,1745152427520716501
1536353,-169,433,232,1891,-1525,-7927,1745152427520716501
1536545,-134,450,251,2064,-1355,-7792,1745152427520716501
1536737,-83,451,258,2182,-1290,-7927,1745152427520716501
1536929,-8,432,278,2362,-1412,-8103,1745152427520716501
1537121,82,425,320,2575,-1584,-8041,1745152427520716501
1537313,180,420,349,2596,-1661,-7795,1745152427520716501
1537505,236,420,344,2409,-1749,-7673,1745152427520716501
1537697,211,428,313,2127,-2082,-7602,1745152427520716501
1537889,135,455,279,1839,-2474,-7482,1745152427520716501
1538081,48,507,271,1651,-2702,-7345,1745152427520716501
1538273,-35,571,298,1602,-2677,-7416,1745152427520716501
1538465,-114,635,349,1715,-2372,-7670,1745152427585094663
1538657,-175,692,398,1977,-1861,-7920,1745152427585094663
1538849,-213,739,426,2411,-1152,-7965,1745152427585094663
1539041,-232,783,435,2887,-407,-7744,1745152427585094663
1539233,-212,806,435,3376,179,-7648,1745152427585094663
1539425,-157,800,436,3789,548,-7564,1745152427585094663
1539617,-79,765,445,4108,595,-7502,1745152427585094663
1539809,13,709,463,4296,331,-7503,1745152427585094663
1540001,103,643,479,4283,-73,-7485,1745152427585094663
1540193,180,573,483,4104,-588,-7445,1745152427585094663
1540385,233,509,469,3822,-1023,-7515,1745152427585094663
1540577,229,469,436,3475,-1375,-7461,1745152427585094663
1540769,196,446,394,3159,-1587,-7441,1745152427632017099
1540961,129,444,352,2857,-1693,-7340,1745152427632017099
1541153,60,455,314,2621,-1686,-7225,1745152427632017099
1541345,-8,471,279,2489,-1598,-7104,1745152427632017099
1541537,-67,488,246,2458,-1429,-7024,1745152427632017099
1541729,-104,498,217,2469,-1235,-6985,1745152427632017099
1541921,-129,502,196,2544,-1064,-6920,1745152427632017099
1542113,-143,506,183,2623,-957,-6823,1745152427632017099
1542305,-145,503,181,2714,-862,-6822,1745152427632017099
1542497,-141,498,199,2861,-754,-6885,1745152427632017099
1542689,-118,476,228,3010,-687,-6970,1745152427632017099
1542881,-58,428,257,3148,-600,-7108,1745152427632017099
1543073,25,367,273,3224,-544,-7249,1745152427688478146
1543265,103,304,272,3200,-583,-7461,1745152427688478146
1543457,156,251,260,3114,-773,-7684,1745152427688478146
1543649,178,201,247,2970,-1067,-7870,1745152427688478146
1543841,156,156,232,2812,-1332,-8110,1745152427688478146
1544033,119,119,219,2606,-1473,-8352,1745152427688478146
1544225,80,89,203,2434,-1431,-8532,1745152427688478146
1544417,45,69,189,2319,-1219,-8662,1745152427688478146
1544609,23,55,185,2271,-902,-8822,1745152427688478146
1544801,25,39,191,2281,-567,-8838,1745152427688478146
1544993,55,18,208,2342,-302,-8790,1745152427688478146
1545185,97,1,221,2461,-142,-8787,1745152427688478146
1545377,138,-11,226,2569,-35,-8765,1745152427754236972
1545569,170,-21,220,2646,-28,-8716,1745152427754236972
1545761,185,-32,216,2672,-41,-8659,1745152427754236972
1545953,188,-46,218,2621,-1,-8584,1745152427754236972
1546145,189,-67,219,2539,111,-8560,1745152427754236972
1546337,188,-87,211,2423,295,-8496,1745152427754236972
1546529,195,-98,193,2283,492,-8425,1745152427754236972
1546721,223,-96,166,2142,710,-8390,1745152427754236972
1546913,267,-87,134,2011,807,-8385,1745152427754236972
1547105,313,-78,102,1908,812,-8422,1745152427754236972
1547297,339,-75,75,1841,691,-8407,1745152427754236972
1547489,341,-73,54,1747,498,-8496,1745152427754236972
1547681,335,-60,45,1600,365,-8610,1745152427812150923
1547873,323,-48,56,1477,222,-8672,1745152427812150923
1548065,268,-25,72,1323,-15,-8726,1745152427812150923
1548257,194,15,87,1069,-181,-8694,1745152427812150923
1548449,156,43,115,911,-338,-8441,1745152427812150923
1548641,147,76,143,922,-448,-8331,1745152427812150923
1548833,141,106,154,1036,-532,-8428,1745152427812150923
1549025,127,110,145,1171,-586,-8437,1745152427812150923
1549217,111,96,136,1250,-603,-8320,1745152427812150923
1549409,97,76,136,1267,-545,-8317,1745152427812150923
1549601,87,55,142,1227,-429,-8262,1745152427812150923
1549793,79,44,144,1134,-287,-8195,1745152427812150923
1549985,71,48,141,1020,-171,-8139,1745152427939452468
1550177,67,65,137,945,-163,-8103,1745152427939452468
1550369,69,83,134,949,-214,-8066,1745152427939452468
1550561,76,98,128,1056,-332,-8074,1745152427939452468
1550753,85,107,121,1197,-466,-8085,1745152427939452468
1550945,88,108,114,1360,-603,-8125,1745152427939452468
1551137,81,101,108,1485,-712,-8146,1745152427939452468
1551329,65,92,103,1581,-793,-8150,1745152427939452468
1551521,41,83,102,1615,-852,-8197,1745152427939452468
1551713,9,75,98,1624,-862,-8239,1745152427939452468
1551905,-25,70,88,1602,-784,-8229,1745152427939452468
1552097,-49,67,75,1540,-683,-8169,1745152427939452468
1552289,-59,73,68,1494,-568,-8032,1745152427947362135
1552481,-45,77,66,1457,-456,-7884,1745152427947362135
1552673,-19,79,63,1390,-368,-7808,1745152427947362135
1552865,3,79,58,1357,-338,-7680,1745152427947362135
1553057,19,67,58,1351,-344,-7571,1745152427947362135
1553249,29,47,61,1334,-351,-7519,1745152427947362135
1553441,32,28,60,1338,-311,-7512,1745152427947362135
1553633,30,25,53,1368,-260,-7540,1745152427947362135
1553825,24,35,40,1420,-219,-7612,1745152427947362135
1554017,17,45,29,1468,-188,-7724,1745152427947362135
1554209,15,43,24,1512,-197,-7885,1745152427947362135
1554401,18,31,28,1528,-242,-8023,1745152427947362135
1554593,27,16,33,1509,-327,-8141,1745152427995402842
1554785,36,2,32,1459,-430,-8250,1745152427995402842
1554977,39,-6,24,1375,-505,-8329,1745152427995402842
1555169,32,-5,19,1287,-606,-8367,1745152427995402842
1555361,19,-1,16,1224,-699,-8352,1745152427995402842
1555553,2,4,15,1156,-749,-8326,1745152427995402842
1555745,-19,8,17,1136,-772,-8258,1745152427995402842
1555937,-37,11,18,1110,-732,-8167,1745152427995402842
1556129,-53,13,16,1142,-664,-8108,1745152427995402842
1556321,-69,16,12,1145,-519,-8015,1745152427995402842
1556513,-82,20,12,1176,-357,-7909,1745152427995402842
1556705,-85,24,16,1184,-169,-7842,1745152427995402842
1556897,-74,24,16,1234,-19,-7814,1745152428043607142
1557089,-66,24,15,1278,41,-7743,1745152428043607142
1557281,-51,19,12,1335,6,-7736,1745152428043607142
1557473,-33,13,10,1351,-96,-7718,1745152428043607142
1557665,-15,3,10,1375,-225,-7720,1745152428043607142
1557857,2,-7,11,1342,-362,-7762,1745152428043607142
1558049,9,-17,12,1317,-483,-7797,1745152428043607142
1558241,4,-20,14,1281,-571,-7869,1745152428043607142
1558433,-7,-20,15,1266,-606,-7912,1745152428043607142
1558625,-17,-21,11,1284,-596,-7976,1745152428043607142
1558817,-29,-18,1,1290,-548,-8051,1745152428043607142
1559009,-39,-14,-6,1270,-484,-8115,1745152428043607142
1559201,-48,-11,-5,1299,-432,-8201,1745152428103612635
1559393,-54,-10,-4,1289,-429,-8254,1745152428103612635
1559585,-57,-11,-7,1296,-427,-8264,1745152428103612635
1559777,-54,-11,-11,1278,-436,-8239,1745152428103612635
1559969,-49,-11,-13,1270,-437,-8191,1745152428103612635
1560161,-43,-13,-14,1251,-443,-8118,1745152428103612635
1560353,-32,-17,-14,1236,-429,-8026,1745152428103612635
1560545,-22,-19,-16,1207,-408,-7944,1745152428103612635
1560737,-17,-19,-20,1153,-377,-7896,1745152428103612635
1560929,-16,-17,-22,1128,-356,-7868,1745152428103612635
1561121,-15,-16,-20,1137,-323,-7832,1745152428103612635
1561313,-16,-15,-15,1154,-308,-7816,1745152428103612635
1561505,-15,-14,-14,1206,-277,-7789,1745152428162215225
1561697,-14,-16,-14,1242,-251,-7797,1745152428162215225
1561889,-14,-19,-17,1265,-240,-7849,1745152428162215225
1562081,-17,-24,-20,1266,-249,-7918,1745152428162215225
1562273,-18,-23,-22,855,-795,-7635,1745152428162215225
1562465,-106,48,-18,216,-2291,-8189,1745152428162215225
1562657,-330,96,-30,873,-2987,-8301,1745152428162215225
1562849,-464,72,-56,1643,-2082,-8070,1745152428162215225
1563041,-484,23,-50,1844,-456,-7939,1745152428162215225
1563233,-418,-13,-39,1699,407,-7957,1745152428162215225
1563425,-383,-14,-70,1554,126,-8199,1745152428162215225
1563617,-388,-27,-131,1471,-23,-8359,1745152428162215225
1563809,-382,-50,-158,1314,-31,-8311,1745152428219326318
1564001,-358,-61,-141,1150,-3,-8316,1745152428219326318
1564193,-329,-50,-114,1071,-2,-8291,1745152428219326318
1564385,-310,-28,-98,1042,102,-8277,1745152428219326318
1564577,-298,-9,-94,1023,253,-8211,1745152428219326318
1564769,-297,4,-92,1020,346,-8191,1745152428219326318
1564961,-319,14,-86,1046,355,-8115,1745152428219326318
1565153,-266,31,-63,1144,216,-7511,1745152428219326318
1565345,-143,38,-49,1276,354,-7836,1745152428219326318
1565537,-110,26,-47,1471,362,-7781,1745152428219326318
1565729,-93,-4,-60,1643,114,-7753,1745152428219326318
1565921,-77,-37,-69,1580,-48,-7745,1745152428219326318
1566113,-51,-61,-61,1337,-28,-7773,1745152428279232020
1566305,-29,-63,-46,1026,-49,-7854,1745152428279232020
1566497,-19,-49,-41,778,-103,-7885,1745152428279232020
1566689,-11,-20,-43,615,-32,-8000,1745152428279232020
1566881,1,21,-47,583,65,-8087,1745152428279232020
1567073,9,64,-48,682,69,-8164,1745152428279232020
1567265,6,101,-47,907,16,-8237,1745152428279232020
1567457,-7,123,-47,1092,-62,-8311,1745152428279232020
1567649,-27,130,-52,1297,-8,-8399,1745152428279232020
1567841,-43,130,-52,1464,38,-8376,1745152428279232020
1568033,-47,119,-42,1555,132,-8363,1745152428279232020
1568225,-46,101,-32,1589,229,-8300,1745152428279232020
1568417,-41,80,-29,1554,255,-8259,1745152428340112558
1568609,-30,59,-29,1452,253,-8184,1745152428340112558
1568801,-9,45,-30,1310,296,-8112,1745152428340112558
1568993,20,40,-29,1213,410,-8040,1745152428340112558
1569185,47,35,-26,1262,378,-7950,1745152428340112558
1569377,64,25,-23,1344,162,-7932,1745152428340112558
1569569,79,13,-21,1318,16,-7847,1745152428340112558
1569761,107,7,-14,1199,89,-7777,1745152428340112558
1569953,143,7,-6,1172,110,-7757,1745152428340112558
1570145,172,11,-5,1128,14,-7826,1745152428340112558
1570337,176,19,-11,1034,-310,-7858,1745152428340112558
1570529,164,38,-19,920,-695,-7861,1745152428340112558
1572641,-15,90,-100,1336,372,-8006,1745152429259429681
1604705,27,47,2,1690,886,-7803,1745152429259429681
1604897,110,-22,7,1040,-469,-8058,1745152429259429681
1605089,22,9,-15,1313,-420,-8012,1745152429259429681
1605281,3,-19,-15,1262,-438,-7938,1745152429259429681
1605473,-1,-32,4,1239,-298,-8054,1745152429259429681
1605665,-8,-30,7,1280,-131,-8048,1745152429259429681
1605857,-20,-45,-6,1348,-111,-8098,1745152429259429681
1606049,-29,-62,-19,1339,-158,-8078,1745152429259429681
1606241,-33,-59,-23,1247,-149,-8099,1745152429259429681
1606433,-35,-66,-25,1122,-109,-8108,1745152429259429681
1606625,-39,-51,-27,1025,-15,-8125,1745152429259429681
1606817,-44,-32,-27,976,47,-8140,1745152429325093404
1607009,-47,-21,-24,980,63,-8167,1745152429325093404
1607201,-53,-3,-16,1061,54,-8176,1745152429325093404
1607393,-55,10,-8,1117,69,-8143,1745152429325093404
1607585,-47,19,-3,1119,133,-8053,1745152429325093404
1607777,-31,30,-3,1118,184,-8023,1745152429325093404
1607969,-18,34,-5,1131,183,-7979,1745152429325093404
1608161,-10,37,-5,1146,136,-7957,1745152429325093404
1608353,-4,37,0,1178,109,-7935,1745152429325093404
1608545,5,33,7,1205,70,-7944,1745152429325093404
1608737,15,28,8,1215,36,-7985,1745152429325093404
1608929,20,24,5,1215,-5,-8034,1745152429325093404
1609121,20,20,1,1234,-48,-8097,1745152429366447766
1609313,20,19,1,1243,-71,-8140,1745152429366447766
1609505,20,16,3,1268,-63,-8179,1745152429366447766
1609697,19,13,3,1302,-77,-8228,1745152429366447766
1609889,17,11,-2,1358,-86,-8317,1745152429366447766
1610081,8,5,-10,1393,-168,-8465,1745152429366447766
1610273,-18,-11,-15,1491,-312,-8659,1745152429366447766
1610465,-69,-52,-6,1762,-464,-8787,1745152429366447766
1610657,-137,-122,11,2048,-427,-8769,1745152429366447766
1610849,-198,-192,30,2203,-186,-8752,1745152429366447766
1611041,-238,-248,34,2211,53,-8820,1745152429366447766
1611233,-261,-298,20,2189,196,-8972,1745152429366447766
1611425,-342,-345,-9,1651,-1587,-8269,1745152429428557250
1611617,-384,-339,-35,2753,1980,-9440,1745152429428557250
1611809,-365,-450,-1,2022,681,-8491,1745152429428557250
1612001,-351,-426,-29,2193,615,-8837,1745152429428557250
1612193,-376,-482,-78,2257,434,-8177,1745152429428557250
1612385,-408,-474,-115,2113,163,-7809,1745152429428557250
1612577,-422,-456,-136,1840,-24,-7593,1745152429428557250
1612769,-422,-404,-152,1605,67,-7540,1745152429428557250
1612961,-409,-364,-176,1399,100,-7567,1745152429428557250
1613153,-377,-312,-212,1347,-79,-7458,1745152429428557250
1613345,-267,-279,-258,1517,135,-7415,1745152429428557250
1613537,-312,-248,-226,2243,-54,-8120,1745152429428557250
1613729,-577,-326,-272,3508,-2577,-7057,1745152429483689143
1613921,-534,-403,-409,3162,-1414,-6968,1745152429483689143
1614113,-512,-328,-359,2657,39,-8699,1745152429483689143
1614305,-508,-312,-258,2624,1187,-8155,1745152429483689143
1614497,-472,-255,-274,2939,1901,-6921,1745152429483689143
1614689,-395,-134,-434,2972,2965,-6140,1745152429483689143
1614881,-314,-64,-513,2374,3586,-6002,1745152429483689143
1615073,-102,-123,-464,2101,2750,-8582,1745152429483689143
1615265,68,-33,-460,1341,1897,-9684,1745152429483689143
1615457,183,231,-479,1090,1497,-11110,1745152429483689143
1615649,246,419,-510,2033,1027,-11972,1745152429483689143
1615841,382,374,-544,3865,-126,-9468,1745152429483689143
1616033,570,205,-566,5307,-995,-7598,1745152429545922480
1616225,689,-99,-579,6116,-1231,-7454,1745152429545922480
1616417,775,-380,-691,6263,-1299,-7201,1745152429545922480
1616609,618,-494,-871,5776,-1418,-6249,1745152429545922480
1616801,319,-564,-926,5578,-1862,-6145,1745152429545922480
1616993,66,-723,-966,5427,-1589,-6295,1745152429545922480
1617185,-195,-885,-1071,5031,-873,-6022,1745152429545922480
1617377,-511,-979,-1197,4820,-404,-6513,1745152429545922480
1617569,-796,-1035,-1339,5070,-72,-7367,1745152429545922480
1617761,-933,-1129,-1469,5649,524,-7631,1745152429545922480
1617953,-934,-1278,-1572,6027,1564,-8213,1745152429545922480
1618145,-849,-1444,-1642,6105,2253,-8069,1745152429545922480
1618337,-649,-1542,-1685,5885,2291,-7762,1745152429600498128
1618529,-349,-1638,-1688,5592,1813,-8321,1745152429600498128
1618721,-46,-1786,-1653,5184,1025,-8239,1745152429600498128
1618913,187,-1859,-1604,4494,241,-7995,1745152429600498128
1619105,371,-1893,-1554,3627,-594,-7855,1745152429600498128
1619297,523,-1898,-1531,2508,-1241,-7691,1745152429600498128
1619489,615,-1826,-1521,1520,-1847,-7682,1745152429600498128
1619681,659,-1658,-1474,763,-2357,-7489,1745152429600498128
1619873,672,-1447,-1387,365,-3226,-7342,1745152429600498128
1620065,655,-1242,-1282,-234,-3753,-6585,1745152429600498128
1620257,622,-1219,-1144,19,-4958,-6306,1745152429600498128
1620449,661,-1111,-1001,-259,-5353,-6449,1745152429600498128
1620641,661,-901,-918,-499,-5131,-5689,1745152429670447228
1620833,478,-759,-840,-239,-6216,-6626,1745152429670447228
1621025,228,-640,-782,289,-7140,-5719,1745152429670447228
1621217,73,-509,-701,761,-7435,-5592,1745152429670447228
1621409,-91,-373,-635,511,-7247,-6038,1745152429670447228
1621601,-261,-241,-495,-195,-6743,-6042,1745152429670447228
1621793,-397,-67,-294,-665,-5976,-5873,1745152429670447228
1621985,-483,144,-86,-678,-5316,-5788,1745152429670447228
1622177,-508,348,115,-413,-4853,-5888,1745152429670447228
1622369,-496,515,307,-29,-4621,-6062,1745152429670447228
1622561,-469,647,486,347,-4624,-6247,1745152429670447228
1622753,-441,760,654,611,-4808,-6343,1745152429670447228
1622945,-424,864,810,843,-5107,-6592,1745152429734916743
1623137,-421,937,960,1026,-5422,-7136,1745152429734916743
1623329,-437,967,1132,1209,-5713,-7594,1745152429734916743
1623521,-462,953,1330,1388,-5842,-7508,1745152429734916743
1623713,-476,943,1527,1383,-5757,-7043,1745152429734916743
1623905,-464,980,1697,1176,-5431,-6921,1745152429734916743
1624097,-419,1042,1826,1001,-4982,-7033,1745152429734916743
1624289,-355,1110,1931,901,-4509,-7184,1745152429734916743
1624481,-264,1181,2036,973,-4106,-7437,1745152429734916743
1624673,-158,1247,2144,1194,-3812,-7716,1745152429734916743
1624865,-59,1306,2252,1436,-3671,-8028,1745152429734916743
1625057,37,1351,2356,1608,-3571,-8098,1745152429734916743
1625249,123,1341,2455,1734,-3490,-8018,1745152429775228094
1625441,194,1270,2552,2281,-3526,-9208,1745152429775228094
1625633,161,1376,2648,2335,-3406,-9638,1745152429775228094
1625825,112,1491,2767,2301,-3463,-9306,1745152429775228094
1626017,80,1497,2858,2289,-3285,-9553,1745152429775228094
1626209,58,1529,2947,2297,-2983,-9793,1745152429775228094
1626401,38,1561,3030,2373,-2619,-9934,1745152429775228094
1626593,25,1582,3105,2539,-2215,-9983,1745152429775228094
1626785,8,1594,3183,2828,-1721,-10131,1745152429775228094
1626977,-4,1619,3282,3076,-1545,-9825,1745152429775228094
1627169,-5,1606,3352,3312,-1422,-9622,1745152429775228094
1627361,4,1566,3395,3510,-1385,-9453,1745152429775228094
1627553,23,1498,3418,3688,-1305,-9524,1745152429842254357
1627745,32,1432,3467,3840,-1148,-9729,1745152429842254357
1627937,17,1425,3610,3813,-956,-9931,1745152429842254357
1628129,-13,1425,3751,3885,-1045,-9525,1745152429842254357
1628321,-24,1407,3831,3843,-844,-9471,1745152429842254357
1628513,-28,1418,3901,3778,-590,-9422,1745152429842254357
1628705,-25,1443,3960,3686,-265,-9300,1745152429842254357
1628897,-11,1484,4021,3657,44,-9363,1745152429842254357
1629089,5,1522,4092,3731,347,-9605,1745152429842254357
1629281,21,1547,4175,3893,563,-9811,1745152429842254357
1629473,26,1566,4260,4124,690,-9878,1745152429842254357
1629665,24,1581,4343,4359,751,-9849,1745152429842254357
1629857,10,1592,4428,4516,791,-9675,1745152429892899311
1630049,-16,1599,4515,4676,792,-9457,1745152429892899311
1630241,-50,1607,4592,4757,758,-9240,1745152429892899311
1630433,-81,1603,4657,4773,653,-9023,1745152429892899311
1630625,-97,1597,4713,4733,550,-8748,1745152429892899311
1630817,-93,1592,4767,4682,432,-8366,1745152429892899311
1631009,-78,1593,4815,4690,337,-7991,1745152429892899311
1631201,-68,1604,4848,4785,224,-7858,1745152429892899311
1631393,-71,1602,4863,4949,53,-7770,1745152429892899311
1631585,-85,1589,4861,5226,-185,-7528,1745152429892899311
1631777,-108,1567,4847,5555,-425,-7435,1745152429892899311
1631969,-150,1538,4815,5919,-650,-7381,1745152429892899311
1632161,-209,1503,4770,6271,-852,-7344,1745152429952606057
1632353,-271,1459,4711,6629,-1017,-7433,1745152429952606057
1632545,-343,1404,4639,6914,-1074,-7637,1745152429952606057
1632737,-426,1352,4570,7144,-1002,-7852,1745152429952606057
1632929,-514,1312,4515,7335,-827,-8038,1745152429952606057
1633121,-597,1262,4475,7512,-561,-8209,1745152429952606057
1633313,-671,1205,4445,7749,-288,-8292,1745152429952606057
1633505,-735,1147,4415,7997,-50,-8322,1745152429952606057
1633697,-791,1083,4388,8236,159,-8401,1745152429952606057
1633889,-833,1008,4367,8463,311,-8439,1745152429952606057
1634081,-866,927,4355,8686,418,-8478,1745152429952606057
1634273,-894,842,4347,8945,448,-8503,1745152429952606057
1634465,-935,747,4337,9165,479,-8255,1745152430010966357
1634657,-986,671,4322,9215,591,-8002,1745152430010966357
1634849,-1030,619,4292,9090,797,-7859,1745152430010966357
1635041,-1060,574,4237,8914,1093,-7747,1745152430010966357
1635233,-1081,537,4164,8707,1389,-7618,1745152430010966357
1635425,-1096,509,4087,8492,1664,-7477,1745152430010966357
1635617,-1102,486,4015,8378,1874,-7454,1745152430010966357
1635809,-1104,464,3953,8317,2064,-7414,1745152430010966357
1636001,-1100,447,3891,8295,2251,-7416,1745152430010966357
1636193,-1086,423,3821,8294,2430,-7441,1745152430010966357
1636385,-1058,393,3737,8298,2614,-7430,1745152430010966357
1636577,-1007,363,3640,8231,2820,-7392,1745152430010966357
1636769,-940,326,3542,8166,3024,-7362,1745152430094716530
1636961,-872,284,3433,8031,3151,-7354,1745152430094716530
1637153,-809,233,3321,7871,3203,-7312,1745152430094716530
1637345,-761,174,3210,7643,3100,-7252,1745152430094716530
1637537,-732,126,3105,7378,2979,-7200,1745152430094716530
1637729,-723,76,2999,7049,2840,-7115,1745152430094716530
1637921,-731,38,2884,6744,2699,-6808,1745152430094716530
1638113,-757,5,2757,6417,2546,-6647,1745152430094716530
1638305,-795,-52,2621,6009,2513,-6252,1745152430094716530
1638497,-843,-96,2503,5580,2457,-6009,1745152430094716530
1638689,-896,-134,2387,5186,2396,-5945,1745152430094716530
1638881,-961,-155,2257,4788,2384,-5983,1745152430094716530
1639073,-1023,-166,2124,4451,2408,-6123,1745152430137798532
1639265,-1070,-165,1988,4162,2445,-6197,1745152430137798532
1639457,-1091,-155,1858,3891,2534,-6294,1745152430137798532
1639649,-1087,-135,1734,3700,2637,-6405,1745152430137798532
1639841,-1068,-109,1618,3608,2735,-6542,1745152430137798532
1640033,-1044,-86,1499,3614,2794,-6687,1745152430137798532
1640225,-1018,-78,1372,3638,2779,-6766,1745152430137798532
1640417,-986,-82,1253,3669,2716,-6819,1745152430137798532
1640609,-945,-92,1146,3704,2645,-6868,1745152430137798532
1640801,-900,-111,1047,3662,2646,-6853,1745152430137798532
1640993,-854,-139,959,3586,2670,-6786,1745152430137798532
1641185,-801,-181,878,3507,2616,-6813,1745152430137798532
1641377,-749,-209,781,3370,2459,-6874,1745152430185811322
1641569,-694,-229,694,3034,2473,-6730,1745152430185811322
1641761,-627,-266,661,2964,2353,-6839,1745152430185811322
1641953,-574,-274,626,2822,2222,-6835,1745152430185811322
1642145,-530,-284,585,2717,2034,-6842,1745152430185811322
1642337,-487,-293,538,2615,1828,-6851,1745152430185811322
1642529,-443,-300,490,2505,1673,-6927,1745152430185811322
1642721,-411,-301,450,2384,1572,-7017,1745152430185811322
1642913,-391,-295,421,2264,1485,-7044,1745152430185811322
1643105,-379,-283,397,2158,1393,-7088,1745152430185811322
1643297,-369,-266,381,2064,1319,-7142,1745152430185811322
1643489,-366,-242,366,1963,1242,-7205,1745152430185811322
1643681,-372,-217,341,1948,1150,-7277,1745152430250354327
1643873,-386,-194,305,1903,1084,-7337,1745152430250354327
1644065,-406,-168,271,1843,989,-7398,1745152430250354327
1644257,-429,-142,248,1818,890,-7408,1745152430250354327
1644449,-447,-119,233,1808,775,-7387,1745152430250354327
1644641,-463,-102,222,1823,663,-7342,1745152430250354327
1644833,-478,-87,209,1854,580,-7341,1745152430250354327
1645025,-490,-76,188,1890,563,-7273,1745152430250354327
1645217,-496,-70,166,1899,671,-7155,1745152430250354327
1645409,-491,-66,148,1920,848,-7058,1745152430250354327
1645601,-467,-63,136,1897,1074,-6972,1745152430250354327
1645793,-418,-62,126,1875,1290,-6880,1745152430250354327
1645985,-343,-69,119,1860,1427,-6816,1745152430314383742
1646177,-249,-77,117,1843,1445,-6827,1745152430314383742
1646369,-145,-88,117,1867,1351,-6927,1745152430314383742
1646561,-45,-99,115,1881,1144,-7077,1745152430314383742
1646753,39,-110,111,1898,921,-7230,1745152430314383742
1646945,106,-117,108,1910,677,-7351,1745152430314383742
1647137,158,-121,109,1892,538,-7511,1745152430314383742
1647329,186,-116,108,1848,444,-7615,1745152430314383742
1647521,195,-105,108,1785,353,-7682,1745152430314383742
1647713,201,-91,112,1729,273,-7759,1745152430314383742
1647905,207,-73,117,1656,205,-7865,1745152430314383742
1648097,203,-53,123,1612,129,-7943,1745152430314383742
1648289,186,-31,126,1596,39,-7981,1745152430364684949
1648481,163,-9,130,1594,-64,-8005,1745152430364684949
1648673,134,14,130,1610,-164,-8003,1745152430364684949
1648865,94,36,131,1631,-227,-7989,1745152430364684949
1649057,44,53,132,1697,-274,-7954,1745152430364684949
1649249,-5,62,132,1744,-351,-7895,1745152430364684949
1649441,-46,67,129,1794,-396,-7835,1745152430364684949
1649633,-77,67,123,1790,-413,-7780,1745152430364684949
1649825,-94,66,122,1762,-371,-7699,1745152430364684949
1650017,-88,52,121,1918,-412,-7744,1745152430364684949
1650209,-91,40,77,2083,-484,-7891,1745152430364684949
1650401,-113,42,6,2055,-542,-7866,1745152430364684949
1650593,-112,27,-33,1976,-546,-7829,1745152430425196167
1650785,-94,-1,-26,1931,-496,-7782,1745152430425196167
1650977,-59,-35,5,1907,-411,-7812,1745152430425196167
1651169,-23,-61,24,1892,-340,-7871,1745152430425196167
1651361,13,-77,17,1887,-286,-7924,1745152430425196167
1651553,45,-87,-8,1919,-332,-7946,1745152430425196167
1651745,70,-98,-34,1934,-444,-7939,1745152430425196167
1651937,85,-108,-52,1925,-532,-7964,1745152430425196167
1652129,88,-117,-61,1874,-629,-7952,1745152430425196167
1652321,76,-122,-66,1830,-729,-7934,1745152430425196167
1652513,59,-123,-69,1729,-752,-7896,1745152430425196167
1652705,42,-122,-61,1658,-797,-7868,1745152430425196167
1652897,24,-121,-49,1636,-826,-7825,1745152430476497365
1652897,24,-121,-49,1636,-826,-7825,1745152430476497365
1653089,9,-115,-40,1609,-874,-7818,1745152430476497365
1653281,-7,-101,-38,1614,-890,-7854,1745152430476497365
1653473,-28,-85,-40,1643,-913,-7896,1745152430476497365
1653665,-48,-72,-40,1668,-913,-7924,1745152430476497365
1653857,-61,-63,-34,1698,-885,-7931,1745152430476497365
1654049,-70,-55,-26,1706,-885,-7915,1745152430476497365
1654241,-75,-51,-19,1728,-882,-7882,1745152430476497365
1654433,-76,-49,-14,1758,-911,-7852,1745152430476497365
1654625,-74,-48,-9,1742,-966,-7857,1745152430476497365
1654817,-70,-48,-1,1725,-990,-7898,1745152430476497365
1655009,-68,-48,4,1719,-1005,-7915,1745152430543642793
1655201,-69,-46,4,1691,-971,-7877,1745152430543642793
1655393,-68,-42,4,1678,-911,-7848,1745152430543642793
1655585,-63,-37,5,1679,-847,-7854,1745152430543642793
1655777,-52,-36,4,1725,-819,-7863,1745152430543642793
1655969,-38,-35,1,1764,-811,-7797,1745152430543642793
1656161,-23,-37,-3,1820,-824,-7811,1745152430543642793
1656353,-6,-39,-8,1891,-863,-7841,1745152430543642793
1656545,12,-48,-13,1954,-938,-7836,1745152430543642793
1656737,31,-61,-15,1992,-1016,-7825,1745152430543642793
1656929,51,-76,-21,2014,-1084,-7862,1745152430543642793
1657121,69,-91,-31,2002,-1100,-7887,1745152430543642793
1657313,86,-104,-43,1989,-1086,-7886,1745152430593554056
1657505,104,-115,-55,1934,-1047,-7855,1745152430593554056
1657697,123,-121,-66,1878,-983,-7876,1745152430593554056
1657889,137,-123,-76,1824,-942,-7888,1745152430593554056
1658081,142,-117,-87,1770,-928,-7901,1745152430593554056
1658273,143,-109,-97,1764,-928,-7921,1745152430593554056
1658465,144,-101,-103,1757,-990,-7964,1745152430593554056
1658657,148,-97,-103,1761,-1085,-7955,1745152430593554056
1658849,154,-97,-101,1783,-1158,-7959,1745152430593554056
1659041,153,-94,-100,1784,-1170,-8004,1745152430593554056
1659233,142,-88,-103,1781,-1185,-8046,1745152430593554056
1659425,122,-83,-108,1776,-1209,-8001,1745152430593554056
1659617,102,-82,-113,1762,-1263,-7923,1745152430656066558
1659809,83,-79,-115,1748,-1312,-7858,1745152430656066558
1660001,64,-77,-117,1738,-1371,-7824,1745152430656066558
1660193,43,-74,-120,1736,-1405,-7820,1745152430656066558
1660385,19,-69,-124,1699,-1391,-7829,1745152430656066558
1660577,0,-64,-123,1696,-1350,-7814,1745152430656066558
1660769,-13,-59,-120,1700,-1314,-7758,1745152430656066558
1660961,-16,-59,-115,1744,-1287,-7713,1745152430656066558
1661153,-16,-60,-112,1773,-1292,-7677,1745152430656066558
1661345,-9,-65,-108,1812,-1374,-7623,1745152430656066558
1661537,8,-72,-105,1802,-1397,-7621,1745152430656066558
1661729,30,-79,-102,1781,-1417,-7657,1745152430656066558
1661921,47,-84,-102,1736,-1415,-7701,1745152430710608872
1662113,58,-85,-102,1681,-1425,-7705,1745152430710608872
1662305,72,-83,-98,1647,-1419,-7705,1745152430710608872
1662497,84,-79,-90,1640,-1388,-7710,1745152430710608872
1662689,90,-71,-81,1608,-1350,-7706,1745152430710608872
1662881,96,-62,-74,1629,-1323,-7679,1745152430710608872
1663073,106,-53,-66,1639,-1303,-7698,1745152430710608872
1663265,112,-42,-60,1676,-1258,-7749,1745152430710608872
1663457,107,-33,-56,1724,-1271,-7751,1745152430710608872
1663649,96,-27,-56,1772,-1369,-7682,1745152430710608872
1663841,89,-27,-54,1818,-1521,-7612,1745152430710608872
1664033,83,-31,-49,1841,-1663,-7597,1745152430710608872
1664225,69,-36,-46,1807,-1704,-7577,1745152430770811864
1664417,43,-37,-44,1754,-1683,-7570,1745152430770811864
1664609,10,-34,-46,1707,-1641,-7545,1745152430770811864
1664801,-18,-29,-46,1673,-1608,-7501,1745152430770811864
1664993,-34,-24,-44,1645,-1566,-7519,1745152430770811864
1665185,-44,-19,-40,1638,-1481,-7569,1745152430770811864
1665377,-55,-10,-35,1647,-1383,-7603,1745152430770811864
1665569,-60,0,-30,1651,-1275,-7642,1745152430770811864
1665761,-55,10,-27,1704,-1182,-7712,1745152430770811864
1665953,-41,15,-28,1728,-1120,-7746,1745152430770811864
1666145,-15,17,-29,1753,-1136,-7727,1745152430770811864
1666337,21,14,-29,1772,-1180,-7770,1745152430770811864
1666529,56,11,-31,1766,-1214,-7798,1745152430833164471
1666721,81,5,-34,1734,-1233,-7805,1745152430833164471
1666913,96,0,-38,1690,-1264,-7770,1745152430833164471
1667105,106,-2,-40,1630,-1318,-7713,1745152430833164471
1667297,120,0,-40,1589,-1369,-7691,1745152430833164471
1667489,134,2,-38,1590,-1416,-7701,1745152430833164471
1667681,136,4,-36,1607,-1449,-7706,1745152430833164471
1667873,123,7,-37,1662,-1518,-7713,1745152430833164471
1668065,102,10,-36,1711,-1565,-7723,1745152430833164471
1668257,80,11,-33,1754,-1585,-7764,1745152430833164471
1668449,55,9,-30,1782,-1584,-7812,1745152430833164471
1668641,26,5,-29,1793,-1556,-7826,1745152430833164471
1668833,-4,2,-30,1785,-1554,-7839,1745152430885671856
1669025,-26,-1,-31,1739,-1543,-7837,1745152430885671856
1669217,-41,-3,-27,1677,-1513,-7832,1745152430885671856
1669409,-46,-2,-23,1609,-1450,-7818,1745152430885671856
1669601,-49,4,-19,1578,-1368,-7842,1745152430885671856
1669793,-50,13,-17,1565,-1278,-7862,1745152430885671856
1669985,-51,24,-16,1589,-1246,-7873,1745152430885671856
1670177,-45,31,-16,1620,-1209,-7875,1745152430885671856
1670369,-34,34,-13,1662,-1211,-7870,1745152430885671856
1670561,-25,35,-10,1718,-1221,-7848,1745152430885671856
1670753,-21,36,-8,1735,-1268,-7852,1745152430885671856
1670945,-15,33,-9,1746,-1271,-7883,1745152430885671856
1671137,-10,30,-11,1727,-1258,-7914,1745152430962934484
1671329,-6,27,-16,1691,-1212,-7904,1745152430962934484
1671521,-4,26,-25,1679,-1139,-7851,1745152430962934484
1671713,1,28,-38,1650,-1075,-7837,1745152430962934484
1671905,10,28,-51,1654,-1060,-7831,1745152430962934484
1672097,25,25,-60,1666,-1051,-7823,1745152430962934484
1672289,46,20,-66,1679,-1036,-7824,1745152430962934484
1672481,64,13,-71,1690,-1073,-7843,1745152430962934484
1672673,79,5,-78,1708,-1152,-7838,1745152430962934484
1672865,96,-4,-84,1725,-1244,-7847,1745152430962934484
1673057,112,-15,-87,1726,-1305,-7888,1745152430962934484
1673249,120,-24,-89,1700,-1332,-7916,1745152430962934484
1673441,119,-30,-92,1672,-1325,-7937,1745152431004492177
1673633,116,-32,-93,1658,-1298,-7934,1745152431004492177
1673825,111,-31,-92,1662,-1294,-7905,1745152431004492177
1674017,102,-31,-90,1678,-1325,-7849,1745152431004492177
1674209,94,-31,-86,1685,-1393,-7820,1745152431004492177
1674401,85,-33,-80,1688,-1442,-7827,1745152431004492177
1674593,68,-32,-72,1655,-1454,-7879,1745152431004492177
1674785,40,-29,-66,1631,-1445,-7914,1745152431004492177
1674977,9,-25,-60,1610,-1481,-7905,1745152431004492177
1675169,-12,-19,-53,1577,-1527,-7901,1745152431004492177
1675361,-21,-13,-41,1545,-1475,-7903,1745152431004492177
1675553,-27,-8,-29,1543,-1411,-7952,1745152431004492177
1675745,-35,-2,-23,1556,-1355,-7963,1745152431065822138
1675937,-37,3,-19,1574,-1352,-7932,1745152431065822138
1676129,-26,7,-14,1606,-1349,-7938,1745152431065822138
1676321,-9,8,-6,1626,-1308,-7962,1745152431065822138
1676513,3,7,-3,1663,-1269,-7937,1745152431065822138
1676705,13,4,-2,1684,-1253,-7920,1745152431065822138
1676897,22,0,-2,1691,-1225,-7900,1745152431065822138
1677089,32,-6,-2,1700,-1211,-7923,1745152431065822138
1677281,38,-11,-2,1707,-1221,-7940,1745152431065822138
1677473,42,-15,-3,1697,-1260,-7931,1745152431065822138
1677665,45,-17,-4,1706,-1316,-7884,1745152431065822138
1677857,55,-21,-7,1714,-1371,-7823,1745152431065822138
1678049,69,-27,-13,1722,-1429,-7799,1745152431119674406
1678241,82,-33,-22,1713,-1432,-7809,1745152431119674406
1678433,89,-36,-31,1724,-1480,-7827,1745152431119674406
1678625,98,-39,-36,1712,-1511,-7841,1745152431119674406
1678817,108,-42,-37,1685,-1508,-7872,1745152431119674406
1679009,113,-44,-36,1674,-1464,-7932,1745152431119674406
1679201,111,-43,-34,1658,-1451,-7953,1745152431119674406
1679393,102,-40,-30,1645,-1454,-7964,1745152431119674406
1679585,88,-36,-26,1653,-1474,-7988,1745152431119674406
1679777,70,-33,-21,1664,-1506,-8009,1745152431119674406
1679969,46,-29,-17,1655,-1532,-8019,1745152431119674406
1680161,16,-26,-11,1646,-1572,-8032,1745152431119674406
1680353,-16,-22,-7,1654,-1540,-8036,1745152431180128125
1680545,-46,-19,-7,1653,-1486,-7996,1745152431180128125
1680737,-70,-16,-10,1684,-1382,-7972,1745152431180128125
1680929,-83,-15,-15,1708,-1247,-7924,1745152431180128125
1681121,-86,-18,-24,1731,-1147,-7872,1745152431180128125
1681313,-78,-22,-35,1788,-1107,-7811,1745152431180128125
1681505,-55,-32,-44,1792,-1139,-7720,1745152431180128125
1681697,-15,-48,-51,1817,-1217,-7679,1745152431180128125
1681889,30,-65,-55,1785,-1255,-7711,1745152431180128125
1682081,66,-78,-57,1744,-1270,-7751,1745152431180128125
1682273,86,-85,-58,1688,-1290,-7775,1745152431180128125
1682465,99,-85,-61,1613,-1351,-7827,1745152431180128125
1682657,114,-83,-59,1554,-1363,-7846,1745152431238363374
1682849,130,-75,-55,1543,-1380,-7853,1745152431238363374
1683041,142,-66,-48,1550,-1390,-7856,1745152431238363374
1683233,148,-57,-41,1580,-1442,-7853,1745152431238363374
1683425,152,-50,-33,1603,-1498,-7855,1745152431238363374
1683617,149,-45,-23,1608,-1519,-7891,1745152431238363374
1683809,138,-40,-13,1611,-1548,-7878,1745152431238363374
1684001,117,-36,-5,1600,-1587,-7835,1745152431238363374
1684193,90,-31,2,1574,-1627,-7791,1745152431238363374
1684385,62,-26,7,1562,-1659,-7775,1745152431238363374
1684577,29,-20,12,1536,-1649,-7769,1745152431238363374
1684769,-8,-13,15,1556,-1656,-7729,1745152431238363374
1684961,-40,-6,18,1583,-1644,-7698,1745152431296535655
1685153,-67,-1,22,1620,-1593,-7699,1745152431296535655
1685345,-88,4,24,1654,-1494,-7726,1745152431296535655
1685537,-100,6,25,1701,-1372,-7733,1745152431296535655
1685729,-107,4,22,1751,-1280,-7716,1745152431296535655
1685921,-103,-1,15,1769,-1253,-7677,1745152431296535655
1686113,-88,-10,9,1782,-1264,-7612,1745152431296535655
1686305,-62,-19,8,1757,-1272,-7624,1745152431296535655
1686497,-33,-27,9,1722,-1240,-7645,1745152431296535655
1686689,-7,-33,9,1676,-1204,-7639,1745152431296535655
1686881,18,-35,6,1619,-1166,-7616,1745152431296535655
1687073,42,-35,3,1594,-1170,-7585,1745152431296535655
1687265,67,-32,3,1581,-1152,-7621,1745152431352650559
1687457,90,-25,7,1588,-1138,-7656,1745152431352650559
1687649,113,-20,11,1610,-1102,-7706,1745152431352650559
1687841,137,-18,12,1633,-1059,-7732,1745152431352650559
1688033,161,-19,13,1669,-1077,-7749,1745152431352650559
