timestamp,gyr_x,gyr_y,gyr_z,acc_x,acc_y,acc_z,pkt_time_ns
110947,38,-42,82,2209,2177,-7580,1745175660399010406
111139,22,-100,62,2008,1239,-7503,1745175660399010406
111331,-56,-149,44,1928,2088,-7179,1745175660399010406
111523,-9,-189,66,1949,2514,-7108,1745175660399010406
111715,46,-254,125,2375,2880,-7431,1745175660399010406
111907,117,-303,175,2332,3186,-7544,1745175660399010406
112099,182,-341,188,2266,2902,-7770,1745175660399010406
112291,219,-359,179,1954,2537,-7953,1745175660399010406
112483,251,-342,155,1662,2388,-8070,1745175660399010406
112675,283,-297,144,1660,2062,-8120,1745175660399010406
112867,340,-244,130,1617,1916,-8166,1745175660399010406
113059,370,-189,118,1710,1809,-8177,1745175660399010406
113251,380,-158,100,1775,1799,-8225,1745175660453446992
113443,391,-125,74,1775,1792,-8259,1745175660453446992
113635,393,-103,44,1754,1660,-8216,1745175660453446992
113827,380,-85,22,1748,1529,-8122,1745175660453446992
114019,369,-64,17,1758,1475,-8060,1745175660453446992
114211,355,-48,19,1770,1528,-8064,1745175660453446992
114403,342,-39,20,1721,1500,-8047,1745175660453446992
114595,333,-16,22,1945,1326,-7940,1745175660453446992
114787,386,-1,40,1907,1359,-7939,1745175660453446992
114979,428,-2,52,1666,1619,-7890,1745175660453446992
115171,416,-5,41,1529,1738,-7864,1745175660453446992
115363,434,3,22,1498,1693,-7874,1745175660453446992
115555,463,27,12,1453,1721,-7847,1745175660514985076
115747,466,39,16,1451,970,-7142,1745175660514985076
115939,416,113,33,1765,2020,-8611,1745175660514985076
116131,622,31,38,1669,3107,-7483,1745175660514985076
116323,683,46,29,2109,2870,-8045,1745175660514985076
116515,806,-2,24,2334,2750,-7953,1745175660514985076
116707,926,-25,32,2430,2621,-7804,1745175660514985076
116899,999,-51,38,2591,987,-7864,1745175660514985076
117091,668,-67,-20,1797,-4755,-7389,1745175660514985076
117283,-103,77,-122,792,-6750,-6445,1745175660514985076
117475,-593,247,-39,-2,-4714,-6414,1745175660514985076
117667,-753,261,109,-28,-2201,-7529,1745175660514985076
117859,-883,302,169,474,204,-8133,1745175660575092756
118051,-1015,381,95,1307,2040,-8322,1745175660575092756
118243,-1032,395,-36,2301,3176,-8235,1745175660575092756
118435,-917,338,-136,3167,3694,-7938,1745175660575092756
118627,-724,243,-170,3662,3718,-7660,1745175660575092756
118819,-512,132,-142,3545,3518,-7593,1745175660575092756
119011,-376,14,-114,2901,3199,-7592,1745175660575092756
119203,-312,-58,-97,2226,2728,-7601,1745175660575092756
119395,-225,-90,-77,1705,2292,-7635,1745175660575092756
119587,-158,-73,-68,1401,1970,-7729,1745175660575092756
119779,-126,-41,-59,1351,1783,-7717,1745175660575092756
119971,-112,-5,-50,1478,1706,-7668,1745175660575092756
120163,-100,26,-40,1640,1796,-7653,1745175660632220724
120355,-85,46,-24,1819,1956,-7648,1745175660632220724
120547,-65,51,-12,1961,2098,-7677,1745175660632220724
120739,-37,40,-11,2057,2189,-7675,1745175660632220724
120931,-3,21,-17,2084,2180,-7683,1745175660632220724
121123,28,4,-23,2027,2083,-7688,1745175660632220724
121315,50,-7,-21,1949,1899,-7698,1745175660632220724
121507,59,-14,-8,1901,1714,-7708,1745175660632220724
121699,58,-14,10,1873,1535,-7733,1745175660632220724
121891,48,-12,23,1836,1413,-7746,1745175660632220724
122083,31,-7,30,1835,1337,-7778,1745175660632220724
122275,10,-2,30,1849,1304,-7805,1745175660632220724
122467,-13,4,23,1864,1274,-7799,1745175660683765044
122659,-36,8,7,1852,1261,-7771,1745175660683765044
122851,-58,15,-8,1860,1263,-7754,1745175660683765044
123043,-77,21,-18,1861,1295,-7737,1745175660683765044
123235,-95,23,-23,1872,1352,-7746,1745175660683765044
123427,-107,25,-23,1882,1421,-7762,1745175660683765044
123619,-109,27,-19,1887,1497,-7779,1745175660683765044
123811,-119,29,-20,1881,1578,-7790,1745175660683765044
124003,-133,29,-18,1893,1601,-7771,1745175660683765044
124195,-142,31,-17,1910,1651,-7743,1745175660683765044
124387,-145,32,-15,1905,1713,-7724,1745175660683765044
124579,-143,32,-14,1904,1767,-7723,1745175660683765044
124771,-135,31,-15,1926,1809,-7687,1745175660747361286
124963,-125,29,-21,1953,1815,-7693,1745175660747361286
125155,-120,26,-30,1978,1822,-7705,1745175660747361286
125347,-115,23,-39,1983,1839,-7696,1745175660747361286
125539,-107,20,-46,1978,1827,-7696,1745175660747361286
125731,-97,19,-51,1939,1847,-7706,1745175660747361286
125923,-88,19,-50,1921,1863,-7726,1745175660747361286
126115,-74,16,-41,1920,1866,-7695,1745175660747361286
126307,-61,12,-30,1931,1833,-7709,1745175660747361286
126499,-60,12,-25,1934,1779,-7735,1745175660747361286
126691,-60,8,-22,1915,1733,-7733,1745175660747361286
126883,-62,7,-20,1898,1707,-7713,1745175660747361286
127075,-64,8,-21,1871,1697,-7712,1745175660805960387
127267,-69,9,-21,1864,1706,-7712,1745175660805960387
127459,-74,10,-19,1861,1702,-7731,1745175660805960387
127651,-79,13,-17,1843,1730,-7730,1745175660805960387
127843,-84,17,-12,1835,1753,-7751,1745175660805960387
128035,-87,21,-5,1836,1790,-7744,1745175660805960387
128227,-86,26,3,1872,1813,-7746,1745175660805960387
128419,-82,26,10,1907,1842,-7727,1745175660805960387
128611,-78,23,14,1954,1853,-7684,1745175660805960387
128803,-71,18,15,2000,1852,-7669,1745175660805960387
128995,-65,12,16,2003,1839,-7678,1745175660805960387
129187,-60,6,15,2006,1832,-7684,1745175660805960387
129379,-57,0,12,1976,1805,-7694,1745175660863558767
129571,-54,-2,10,1947,1797,-7704,1745175660863558767
129763,-53,-5,9,1940,1784,-7707,1745175660863558767
129955,-52,-5,11,1941,1787,-7701,1745175660863558767
130147,-52,-6,15,1934,1796,-7674,1745175660863558767
130339,-51,-9,21,1973,1828,-7676,1745175660863558767
130531,-50,-14,27,1974,1851,-7658,1745175660863558767
130723,-47,-21,33,1988,1876,-7643,1745175660863558767
130915,-43,-26,36,2011,1884,-7644,1745175660863558767
131107,-38,-35,40,2026,1892,-7663,1745175660863558767
131299,-32,-42,41,2003,1901,-7687,1745175660863558767
131491,-27,-47,40,1958,1913,-7685,1745175660863558767
131683,-21,-50,40,1939,1916,-7698,1745175660923141347
131875,-14,-53,43,1910,1918,-7707,1745175660923141347
132067,-9,-55,48,1932,1903,-7710,1745175660923141347
132259,-6,-58,54,1937,1864,-7684,1745175660923141347
132451,-2,-62,64,1961,1849,-7661,1745175660923141347
132643,0,-67,73,1963,1843,-7670,1745175660923141347
132835,2,-72,81,1949,1840,-7662,1745175660923141347
133027,5,-78,89,1944,1851,-7670,1745175660923141347
133219,11,-82,95,1933,1876,-7696,1745175660923141347
133411,18,-87,101,1911,1906,-7695,1745175660923141347
133603,26,-90,107,1890,1912,-7693,1745175660923141347
133795,37,-93,112,1880,1914,-7704,1745175660923141347
133987,48,-94,120,1870,1941,-7716,1745175660984573442
134179,60,-96,129,1879,1964,-7711,1745175660984573442
134371,72,-99,137,1878,1978,-7713,1745175660984573442
134563,84,-103,144,1897,1951,-7721,1745175660984573442
134755,95,-106,148,1896,1911,-7721,1745175660984573442
134947,103,-109,149,1876,1857,-7715,1745175660984573442
135139,108,-113,152,1854,1819,-7721,1745175660984573442
135331,109,-114,152,1848,1727,-7753,1745175660984573442
135523,106,-113,151,1821,1694,-7781,1745175660984573442
135715,66,-124,129,1589,1682,-7809,1745175660984573442
135907,-41,-113,91,1592,1437,-7648,1745175660984573442
136099,-56,-89,92,1661,1382,-7809,1745175660984573442
136291,-33,-72,120,1740,1527,-7789,1745175661044938933
136483,-20,-66,138,1838,1688,-7773,1745175661044938933
136675,-7,-60,137,1903,1816,-7806,1745175661044938933
136867,10,-63,130,1925,1885,-7804,1745175661044938933
137059,27,-70,122,1914,1906,-7779,1745175661044938933
137251,44,-74,122,1857,1889,-7775,1745175661044938933
137443,59,-76,126,1789,1830,-7775,1745175661044938933
137635,68,-75,131,1739,1749,-7808,1745175661044938933
137827,73,-68,134,1700,1686,-7805,1745175661044938933
138019,70,-55,136,1679,1641,-7796,1745175661044938933
138211,66,-45,135,1661,1612,-7799,1745175661044938933
138403,59,-35,131,1707,1589,-7828,1745175661044938933
138595,53,-26,126,1720,1597,-7821,1745175661097087362
138787,42,-17,118,1732,1573,-7823,1745175661097087362
138979,35,-11,113,1755,1576,-7798,1745175661097087362
139171,36,-3,112,1768,1589,-7816,1745175661097087362
139363,33,3,111,1761,1586,-7832,1745175661097087362
139555,27,9,108,1758,1562,-7835,1745175661097087362
139747,21,16,105,1736,1535,-7829,1745175661097087362
139939,15,23,101,1715,1518,-7829,1745175661097087362
140131,6,32,96,1718,1513,-7813,1745175661097087362
140323,-5,43,92,1728,1511,-7805,1745175661097087362
140515,-16,52,87,1743,1496,-7805,1745175661097087362
140707,-25,60,83,1757,1511,-7804,1745175661097087362
140899,-36,67,78,1768,1535,-7809,1745175661155381517
141091,-44,73,72,1783,1551,-7841,1745175661155381517
141283,-49,76,67,1803,1585,-7848,1745175661155381517
141475,-53,81,61,1782,1647,-7826,1745175661155381517
141667,-55,86,56,1793,1663,-7754,1745175661155381517
141859,-53,89,52,1801,1674,-7728,1745175661155381517
142051,-49,92,51,1808,1681,-7735,1745175661155381517
142243,-45,94,50,1827,1693,-7744,1745175661155381517
142435,-41,97,49,1835,1702,-7766,1745175661155381517
142627,-38,100,46,1848,1696,-7785,1745175661155381517
142819,-35,102,45,1857,1697,-7774,1745175661155381517
143011,-33,105,42,1853,1708,-7769,1745175661155381517
143203,-32,107,39,1865,1677,-7751,1745175661211456630
143395,-33,109,37,1892,1653,-7777,1745175661211456630
143587,-35,112,35,1899,1650,-7783,1745175661211456630
143779,-41,113,31,1888,1658,-7758,1745175661211456630
143971,-45,117,26,1867,1649,-7719,1745175661211456630
144163,-47,120,22,1899,1639,-7737,1745175661211456630
144355,-51,123,17,1911,1621,-7725,1745175661211456630
144547,-56,125,15,1940,1645,-7723,1745175661211456630
144739,-59,125,12,1948,1678,-7722,1745175661211456630
144931,-59,124,5,1978,1683,-7732,1745175661211456630
145123,-59,123,-1,1982,1695,-7710,1745175661211456630
145315,-59,135,-7,2208,1658,-7785,1745175661211456630
145507,-35,131,-16,1973,1833,-7717,1745175661275646408
145699,-39,95,-19,1914,1857,-7513,1745175661275646408
145891,-46,96,-32,2018,1697,-7664,1745175661275646408
146083,-23,96,-31,2015,1657,-7689,1745175661275646408
146275,-8,108,-19,2217,1666,-7733,1745175661275646408
146467,5,83,-25,1979,1832,-7664,1745175661275646408
146659,-28,73,-39,2040,1727,-7589,1745175661275646408
146851,-19,70,-50,2066,1665,-7676,1745175661275646408
147043,-7,70,-44,2082,1673,-7650,1745175661275646408
147235,-12,64,-39,2150,1684,-7659,1745175661275646408
147427,9,77,-30,2271,1749,-7773,1745175661275646408
147619,27,46,-33,2076,1922,-7634,1745175661275646408
147811,4,35,-47,2044,1837,-7611,1745175661330123098
148003,3,27,-53,2055,1755,-7641,1745175661330123098
148195,10,24,-43,2049,1706,-7628,1745175661330123098
148387,11,22,-32,2088,1712,-7649,1745175661330123098
148579,22,26,-21,2122,1753,-7741,1745175661330123098
148771,22,5,-22,1991,1846,-7625,1745175661330123098
148963,13,2,-27,2056,1778,-7647,1745175661330123098
149155,30,-4,-27,2087,1763,-7649,1745175661330123098
149347,38,-8,-21,2083,1779,-7619,1745175661330123098
149539,40,-12,-14,2093,1774,-7642,1745175661330123098
149731,46,-19,-6,2109,1793,-7661,1745175661330123098
149923,54,-26,0,2070,1801,-7684,1745175661330123098
150115,61,-36,6,2056,1804,-7687,1745175661393375489
150307,69,-45,9,2047,1763,-7692,1745175661393375489
150499,74,-51,13,2031,1719,-7679,1745175661393375489
150691,75,-56,20,2022,1666,-7684,1745175661393375489
150883,75,-60,26,1998,1631,-7690,1745175661393375489
151075,66,-62,28,2049,1603,-7774,1745175661393375489
151267,58,-64,23,1923,1663,-7712,1745175661393375489
151459,60,-78,30,1912,1659,-7615,1745175661393375489
151651,63,-73,32,1971,1633,-7735,1745175661393375489
151843,57,-72,34,1982,1609,-7743,1745175661393375489
152035,44,-76,35,1991,1602,-7694,1745175661393375489
152227,38,-76,38,1952,1623,-7717,1745175661393375489
152419,39,-78,40,1944,1644,-7719,1745175661452112036
152611,41,-79,41,1937,1677,-7710,1745175661452112036
152803,44,-82,42,1947,1690,-7722,1745175661452112036
152995,48,-83,42,1945,1679,-7735,1745175661452112036
153187,51,-87,43,1918,1662,-7744,1745175661452112036
153379,52,-88,43,1905,1620,-7773,1745175661452112036
153571,51,-87,42,1868,1593,-7793,1745175661452112036
153763,45,-85,41,1843,1537,-7778,1745175661452112036
153955,38,-82,42,1830,1496,-7771,1745175661452112036
154147,30,-77,44,1812,1461,-7771,1745175661452112036
154339,19,-70,45,1827,1464,-7778,1745175661452112036
154531,6,-63,46,1826,1456,-7806,1745175661452112036
154723,-8,-55,44,1811,1456,-7796,1745175661505310508
154915,-16,-46,45,1819,1464,-7807,1745175661505310508
155107,-17,-37,47,1831,1483,-7827,1745175661505310508
155299,-24,-30,45,1829,1522,-7817,1745175661505310508
155491,-35,-24,41,1815,1526,-7804,1745175661505310508
155683,-42,-16,39,1820,1545,-7802,1745175661505310508
155875,-45,-8,37,1822,1549,-7802,1745175661505310508
156067,-46,0,36,1835,1572,-7819,1745175661505310508
156259,-47,7,32,1816,1588,-7831,1745175661505310508
156451,-50,13,25,1810,1595,-7813,1745175661505310508
156643,-50,20,19,1806,1591,-7798,1745175661505310508
156835,-52,28,14,1804,1589,-7789,1745175661505310508
157027,-54,34,11,1824,1577,-7789,1745175661564323407
157219,-56,40,8,1834,1568,-7805,1745175661564323407
157411,-58,47,4,1829,1572,-7817,1745175661564323407
157603,-61,54,0,1840,1567,-7823,1745175661564323407
157795,-65,59,-4,1843,1572,-7808,1745175661564323407
157987,-70,65,-8,1839,1552,-7778,1745175661564323407
158179,-75,72,-11,1858,1554,-7770,1745175661564323407
158371,-82,78,-12,1869,1542,-7776,1745175661564323407
158563,-87,84,-13,1879,1556,-7775,1745175661564323407
158755,-93,91,-16,1890,1594,-7767,1745175661564323407
158947,-97,97,-20,1897,1608,-7770,1745175661564323407
159139,-101,101,-24,1914,1626,-7752,1745175661564323407
159331,-104,104,-29,1929,1635,-7753,1745175661624262130
159523,-107,108,-33,1955,1653,-7743,1745175661624262130
159715,-110,109,-36,1951,1664,-7733,1745175661624262130
159907,-112,109,-39,1971,1677,-7731,1745175661624262130
160099,-114,109,-42,1974,1666,-7714,1745175661624262130
160291,-116,108,-44,1991,1674,-7707,1745175661624262130
160483,-118,107,-48,1993,1668,-7703,1745175661624262130
160675,-119,106,-50,1992,1697,-7688,1745175661624262130
160867,-120,104,-51,2002,1701,-7698,1745175661624262130
161059,-119,101,-52,2032,1725,-7679,1745175661624262130
161251,-109,97,-47,2073,1765,-7658,1745175661624262130
161443,-91,91,-41,2093,1825,-7661,1745175661624262130
161635,-89,84,-46,2071,1861,-7660,1745175661681033955
161827,-94,78,-53,2070,1885,-7649,1745175661681033955
162019,-85,71,-53,2060,1921,-7636,1745175661681033955
162211,-70,66,-50,2062,1924,-7652,1745175661681033955
162403,-61,60,-47,2074,1928,-7640,1745175661681033955
162595,-48,54,-45,2087,1907,-7644,1745175661681033955
162787,-34,48,-44,2092,1887,-7651,1745175661681033955
162979,-24,41,-44,2088,1867,-7649,1745175661681033955
163171,-17,37,-43,2082,1864,-7653,1745175661681033955
163363,-10,32,-43,2085,1844,-7653,1745175661681033955
163555,-4,26,-44,2084,1837,-7661,1745175661681033955
163747,0,22,-44,2092,1842,-7646,1745175661681033955
163939,6,17,-45,2094,1828,-7641,1745175661739072019
164131,12,13,-47,2084,1821,-7651,1745175661739072019
164323,17,8,-50,2066,1808,-7659,1745175661739072019
164515,20,4,-51,2056,1782,-7666,1745175661739072019
164707,21,2,-49,2048,1772,-7683,1745175661739072019
164899,20,0,-49,2022,1733,-7702,1745175661739072019
165091,18,-1,-47,2005,1714,-7727,1745175661739072019
165283,15,-1,-46,2003,1710,-7733,1745175661739072019
165475,11,0,-44,1987,1701,-7744,1745175661739072019
165667,6,1,-42,1998,1691,-7726,1745175661739072019
165859,12,15,-33,2141,1665,-7741,1745175661739072019
166051,36,2,-29,1947,1826,-7775,1745175661739072019
166243,-6,-4,-42,1911,1716,-7651,1745175661802904404
166435,-21,4,-50,1935,1604,-7762,1745175661802904404
166627,-16,17,-40,1915,1583,-7776,1745175661802904404
166819,-32,29,-33,1980,1571,-7796,1745175661802904404
167011,-37,35,-31,1951,1635,-7850,1745175661802904404
167203,-57,36,-39,1933,1612,-7797,1745175661802904404
167395,-75,47,-46,1953,1567,-7816,1745175661802904404
167587,-74,57,-46,1957,1570,-7806,1745175661802904404
167779,-83,59,-45,1932,1585,-7782,1745175661802904404
167971,-95,67,-48,1913,1595,-7795,1745175661802904404
168163,-107,74,-54,1872,1601,-7789,1745175661802904404
168355,-118,90,-58,1881,1598,-7808,1745175661802904404
168547,-120,104,-60,1903,1628,-7856,1745175661856425270
168739,-125,123,-62,1908,1645,-7871,1745175661856425270
168931,-131,134,-67,1905,1662,-7869,1745175661856425270
169123,-139,143,-74,1935,1674,-7870,1745175661856425270
169315,-149,153,-84,1946,1636,-7854,1745175661856425270
169507,-161,165,-90,1990,1623,-7860,1745175661856425270
169699,-170,172,-95,2028,1585,-7844,1745175661856425270
169891,-185,182,-100,2075,1552,-7829,1745175661856425270
170083,-198,187,-105,2159,1525,-7831,1745175661856425270
170275,-215,189,-113,2195,1510,-7863,1745175661856425270
170467,-242,193,-124,2251,1469,-7897,1745175661856425270
170659,-271,197,-134,2303,1419,-7921,1745175661856425270
170851,-293,195,-144,2330,1359,-7953,1745175661976016208
171043,-313,200,-155,2310,1317,-7980,1745175661976016208
171235,-342,225,-153,2339,1230,-8053,1745175661976016208
171427,-370,266,-145,2392,1167,-8143,1745175661976016208
171619,-387,297,-132,2415,1148,-8226,1745175661976016208
171811,-394,313,-121,2407,1138,-8290,1745175661976016208
172003,-397,318,-115,2409,1087,-8377,1745175661976016208
172195,-403,319,-114,2473,945,-8500,1745175661976016208
172387,-419,311,-115,2544,709,-8753,1745175661976016208
172579,-441,306,-113,2521,536,-8949,1745175661976016208
172771,-461,311,-111,2554,349,-9192,1745175661976016208
172963,-497,314,-113,2613,96,-9602,1745175661976016208
173155,-556,332,-123,2667,-97,-10206,1745175661985263468
173347,-603,363,-147,2566,-97,-10279,1745175661985263468
173539,-594,389,-165,2611,-15,-10247,1745175661985263468
173731,-563,383,-178,2904,-111,-10384,1745175661985263468
173923,-538,341,-186,3197,-415,-11212,1745175661985263468
174115,-533,319,-193,3742,-1173,-12366,1745175661985263468
174307,-477,276,-196,3531,-1461,-11550,1745175661985263468
174499,-237,400,-20,3572,-576,-12893,1745175661985263468
174691,331,747,479,5039,1369,-12172,1745175661985263468
174883,746,692,870,6822,1062,-12617,1745175661985263468
175075,1032,315,1096,7663,-363,-12606,1745175661985263468
175267,1367,-170,1153,7641,-1612,-12107,1745175661985263468
175459,1628,-525,1059,6992,-2469,-12421,1745175662035599206
175651,1741,-646,1010,6170,-3578,-12646,1745175662035599206
175843,1737,-666,1156,5716,-5138,-12554,1745175662035599206
176035,1661,-714,1505,5750,-6871,-12284,1745175662035599206
176227,1550,-784,1958,5862,-8308,-12030,1745175662035599206
176419,1420,-835,2400,5771,-9234,-11963,1745175662035599206
176611,1237,-870,2748,5601,-9744,-11927,1745175662035599206
176803,975,-904,2964,5347,-9886,-11795,1745175662035599206
176995,602,-931,3073,5201,-9933,-11342,1745175662035599206
177187,200,-945,3179,5545,-9821,-11081,1745175662035599206
177379,-149,-981,3171,5572,-9193,-11271,1745175662035599206
177571,-495,-962,3126,5738,-8105,-11673,1745175662035599206
177763,-734,-961,3150,5988,-6595,-11623,1745175662090145114
177955,-847,-959,3169,6544,-5250,-11667,1745175662090145114
178147,-885,-983,3224,7059,-4091,-11505,1745175662090145114
178339,-853,-1034,3320,7448,-3092,-11300,1745175662090145114
178531,-756,-1108,3407,7744,-2286,-11032,1745175662090145114
178723,-635,-1194,3472,7882,-1650,-10747,1745175662090145114
178915,-510,-1280,3534,7840,-1211,-10541,1745175662090145114
179107,-391,-1345,3603,7593,-928,-10377,1745175662090145114
179299,-288,-1372,3690,7262,-822,-10176,1745175662090145114
179491,-209,-1378,3809,7001,-893,-9741,1745175662090145114
179683,-163,-1362,3942,6849,-1011,-9427,1745175662090145114
179875,-153,-1326,4077,6840,-1101,-9059,1745175662090145114
180067,-165,-1277,4194,6941,-1054,-8720,1745175662153623076
180259,-192,-1211,4277,7135,-841,-8420,1745175662153623076
180451,-233,-1143,4329,7390,-471,-8187,1745175662153623076
180643,-281,-1086,4351,7683,-91,-7998,1745175662153623076
180835,-326,-1040,4351,7974,293,-7864,1745175662153623076
181027,-349,-1005,4344,8165,712,-7636,1745175662153623076
181219,-341,-971,4337,8248,1181,-7458,1745175662153623076
181411,-310,-936,4335,8343,1650,-7301,1745175662153623076
181603,-270,-911,4335,8413,2034,-7198,1745175662153623076
181795,-222,-896,4333,8464,2333,-7023,1745175662153623076
181987,-170,-891,4319,8453,2571,-6940,1745175662153623076
182179,-124,-883,4300,8381,2765,-6835,1745175662153623076
182371,-86,-863,4289,8258,2930,-6711,1745175662211534682
182563,-63,-837,4295,8185,2971,-6638,1745175662211534682
182755,-49,-813,4317,8098,2955,-6385,1745175662211534682
182947,-43,-792,4345,8067,2881,-6081,1745175662211534682
183139,-56,-773,4371,8050,2796,-5937,1745175662211534682
183331,-91,-755,4391,8046,2653,-5696,1745175662211534682
183523,-144,-747,4394,8085,2522,-5392,1745175662211534682
183715,-213,-746,4382,8163,2379,-5052,1745175662211534682
183907,-285,-754,4361,8212,2269,-4786,1745175662211534682
184099,-360,-763,4329,8123,2369,-4750,1745175662211534682
184291,-438,-766,4286,7944,2639,-4866,1745175662211534682
184483,-513,-761,4235,7730,3000,-4923,1745175662211534682
184675,-584,-758,4182,7574,3349,-5006,1745175662271360281
184867,-643,-769,4132,7449,3598,-4839,1745175662271360281
185059,-690,-789,4082,7324,3761,-4644,1745175662271360281
185251,-730,-812,4029,7157,3868,-4556,1745175662271360281
185443,-765,-833,3974,6935,3933,-4400,1745175662271360281
185635,-800,-849,3915,6618,3993,-4230,1745175662271360281
185827,-833,-859,3850,6225,4042,-4210,1745175662271360281
186019,-859,-857,3781,5799,4100,-4172,1745175662271360281
186211,-875,-847,3706,5350,4164,-4171,1745175662271360281
186403,-882,-830,3624,4923,4211,-4250,1745175662271360281
186595,-875,-807,3540,4560,4215,-4263,1745175662271360281
186787,-848,-774,3455,4232,4254,-4290,1745175662271360281
186979,-799,-731,3370,3957,4281,-4340,1745175662336918485
187171,-734,-681,3286,3721,4314,-4405,1745175662336918485
187363,-663,-629,3207,3525,4326,-4535,1745175662336918485
187555,-581,-580,3131,3366,4369,-4578,1745175662336918485
187747,-488,-532,3057,3179,4386,-4539,1745175662336918485
187939,-388,-486,2983,2967,4419,-4536,1745175662336918485
188131,-290,-446,2905,2785,4428,-4424,1745175662336918485
188323,-198,-418,2826,2593,4394,-4371,1745175662336918485
188515,-114,-397,2751,2421,4349,-4420,1745175662336918485
188707,-41,-377,2678,2207,4286,-4492,1745175662336918485
188899,20,-355,2606,1950,4267,-4606,1745175662336918485
189091,74,-322,2556,1626,4348,-4723,1745175662336918485
189283,124,-308,2527,1774,4023,-4843,1745175662386028036
189475,164,-296,2410,1688,3948,-4934,1745175662386028036
189667,188,-268,2272,1265,4087,-4978,1745175662386028036
189859,208,-233,2190,1013,4092,-5057,1745175662386028036
190051,235,-209,2137,952,3948,-5182,1745175662386028036
190243,256,-203,2074,919,3834,-5328,1745175662386028036
190435,261,-195,1990,846,3777,-5509,1745175662386028036
190627,254,-180,1901,700,3741,-5673,1745175662386028036
190819,240,-164,1819,599,3658,-5800,1745175662386028036
191011,227,-146,1741,535,3595,-5942,1745175662386028036
191203,214,-123,1665,473,3571,-6025,1745175662386028036
191395,199,-97,1592,427,3552,-6131,1745175662386028036
191587,181,-69,1520,392,3525,-6252,1745175662451396970
191779,166,-47,1449,398,3485,-6336,1745175662451396970
191971,156,-32,1371,381,3438,-6419,1745175662451396970
192163,150,-22,1283,351,3381,-6509,1745175662451396970
192355,139,-15,1191,375,3280,-6590,1745175662451396970
192547,125,-18,1099,365,3166,-6586,1745175662451396970
192739,111,-26,1013,357,3015,-6580,1745175662451396970
192931,98,-33,932,314,2890,-6646,1745175662451396970
193123,80,-37,854,290,2779,-6667,1745175662451396970
193315,55,-43,781,256,2673,-6671,1745175662451396970
193507,26,-47,717,251,2580,-6734,1745175662451396970
193699,-3,-56,663,278,2472,-6776,1745175662451396970
193891,-28,-51,620,215,2426,-6792,1745175662506263448
194083,-50,-47,593,220,2396,-6792,1745175662506263448
194275,-66,-42,575,296,2361,-6924,1745175662506263448
194467,-73,-49,551,440,2348,-6922,1745175662506263448
194659,-89,-59,499,496,2271,-6927,1745175662506263448
194851,-120,-60,427,479,2276,-7085,1745175662506263448
195043,-138,-51,371,539,2209,-7184,1745175662506263448
195235,-137,-38,335,565,2123,-7242,1745175662506263448
195427,-127,-9,320,367,2118,-7321,1745175662506263448
195619,-101,36,338,40,2078,-7304,1745175662506263448
195811,-62,73,375,10,1994,-7262,1745175662506263448
196003,-22,77,411,179,1969,-7327,1745175662506263448
196195,5,84,424,302,1891,-7476,1745175662562071480
196387,34,89,409,345,1896,-7508,1745175662562071480
196579,79,96,394,370,1907,-7501,1745175662562071480
196771,131,107,385,405,1901,-7502,1745175662562071480
196963,181,107,374,433,1842,-7471,1745175662562071480
197155,227,99,358,457,1749,-7482,1745175662562071480
197347,263,94,339,450,1651,-7503,1745175662562071480
197539,290,93,319,403,1511,-7550,1745175662562071480
197731,304,97,300,339,1375,-7609,1745175662562071480
197923,305,113,293,243,1263,-7677,1745175662562071480
198115,301,134,299,202,1147,-7741,1745175662562071480
198307,292,154,306,251,1006,-7806,1745175662562071480
198499,279,169,305,262,982,-7837,1745175662623360555
198691,265,180,308,309,960,-7879,1745175662623360555
198883,247,184,302,390,976,-7905,1745175662623360555
199075,225,189,287,415,1038,-7905,1745175662623360555
199267,202,192,267,409,1089,-7921,1745175662623360555
199459,185,189,251,411,1126,-7935,1745175662623360555
199651,178,182,236,442,1113,-7985,1745175662623360555
199843,176,174,216,464,1087,-8047,1745175662623360555
200035,176,168,192,467,1061,-8117,1745175662623360555
200227,177,164,170,506,1032,-8140,1745175662623360555
200419,178,160,151,542,975,-8163,1745175662623360555
200611,175,152,129,599,901,-8198,1745175662623360555
200803,169,141,101,616,832,-8174,1745175662681091018
200995,163,126,72,631,740,-8101,1745175662681091018
201187,153,112,47,621,628,-8120,1745175662681091018
201379,137,100,28,619,523,-8155,1745175662681091018
201571,116,92,17,621,427,-8164,1745175662681091018
201763,89,87,11,597,391,-8191,1745175662681091018
201955,57,83,10,604,365,-8201,1745175662681091018
202147,25,80,12,608,363,-8190,1745175662681091018
202339,-5,73,17,615,376,-8177,1745175662681091018
202531,-29,65,23,640,361,-8187,1745175662681091018
202723,-50,56,26,679,382,-8185,1745175662681091018
202915,-68,53,27,693,394,-8195,1745175662681091018
203107,-90,50,21,699,409,-8217,1745175662748964773
203299,-111,38,3,820,344,-8235,1745175662748964773
203491,-128,20,-29,829,313,-8214,1745175662748964773
203683,-136,18,-52,735,360,-8238,1745175662748964773
203875,-135,24,-56,590,431,-8260,1745175662748964773
204067,-124,36,-45,459,501,-8269,1745175662748964773
204259,-109,50,-19,392,556,-8273,1745175662748964773
204451,-94,60,10,464,570,-8289,1745175662748964773
204643,-80,68,23,572,564,-8317,1745175662748964773
204835,-69,77,22,672,571,-8323,1745175662748964773
205027,-56,84,17,770,560,-8296,1745175662748964773
205219,-39,86,16,825,583,-8294,1745175662748964773
205411,-20,81,16,861,572,-8262,1745175662795425182
205603,-1,68,14,866,563,-8244,1745175662795425182
205795,18,55,6,798,530,-8207,1745175662795425182
205987,34,44,-9,738,486,-8176,1745175662795425182
206179,42,38,-27,703,425,-8137,1745175662795425182
206371,41,33,-44,679,354,-8098,1745175662795425182
206563,30,33,-57,710,255,-8085,1745175662795425182
206755,16,34,-65,745,192,-8115,1745175662795425182
206947,3,35,-71,760,182,-8125,1745175662795425182
207139,-6,37,-76,756,230,-8170,1745175662795425182
207331,-11,36,-82,742,269,-8178,1745175662795425182
207523,-12,33,-88,741,305,-8189,1745175662795425182
207715,-7,29,-95,733,298,-8192,1745175662855576403
207907,0,26,-102,732,290,-8190,1745175662855576403
208099,9,26,-109,734,282,-8187,1745175662855576403
208291,17,29,-117,736,252,-8189,1745175662855576403
208483,25,31,-129,742,230,-8157,1745175662855576403
208675,32,32,-139,752,213,-8133,1745175662855576403
208867,41,33,-147,755,184,-8096,1745175662855576403
209059,53,34,-148,757,172,-8057,1745175662855576403
209251,68,39,-146,759,180,-8086,1745175662855576403
209443,84,45,-144,761,154,-8128,1745175662855576403
209635,103,49,-141,774,92,-8117,1745175662855576403
209827,124,51,-136,813,12,-8138,1745175662855576403
210019,149,50,-130,800,-39,-8141,1745175662912654527
210211,174,53,-123,774,-49,-8122,1745175662912654527
210403,198,58,-114,746,-43,-8096,1745175662912654527
210595,217,66,-107,704,-30,-8073,1745175662912654527
210787,234,72,-99,691,-54,-8066,1745175662912654527
210979,250,76,-90,721,-117,-8064,1745175662912654527
211171,266,78,-82,763,-177,-8082,1745175662912654527
211363,276,79,-73,818,-242,-8097,1745175662912654527
211555,277,78,-68,852,-308,-8099,1745175662912654527
211747,273,76,-66,875,-366,-8118,1745175662912654527
211939,263,75,-68,887,-410,-8119,1745175662912654527
212131,248,73,-75,897,-474,-8113,1745175662912654527
212323,233,71,-82,897,-529,-8125,1745175662974319329
212515,213,68,-85,873,-535,-8140,1745175662974319329
212707,194,68,-83,836,-512,-8171,1745175662974319329
212899,174,73,-83,817,-461,-8203,1745175662974319329
213091,157,79,-83,839,-431,-8200,1745175662974319329
213283,144,81,-82,891,-417,-8192,1745175662974319329
213475,133,78,-79,968,-438,-8192,1745175662974319329
213667,125,74,-76,1017,-433,-8181,1745175662974319329
213859,116,67,-71,1034,-403,-8176,1745175662974319329
214051,107,57,-71,1022,-376,-8176,1745175662974319329
214243,101,47,-73,988,-351,-8186,1745175662974319329
214435,96,38,-75,956,-349,-8175,1745175662974319329
214627,90,32,-76,954,-362,-8155,1745175663030355327
214819,84,26,-75,952,-398,-8152,1745175663030355327
215011,75,22,-74,920,-422,-8160,1745175663030355327
215203,64,20,-74,895,-410,-8171,1745175663030355327
215395,55,19,-73,873,-398,-8167,1745175663030355327
215587,49,18,-73,861,-401,-8175,1745175663030355327
215779,47,17,-74,835,-386,-8169,1745175663030355327
215971,49,20,-75,858,-349,-8170,1745175663030355327
216163,53,25,-75,869,-300,-8194,1745175663030355327
216355,58,28,-76,911,-296,-8194,1745175663030355327
216547,65,27,-75,981,-299,-8155,1745175663030355327
216739,73,20,-76,1003,-343,-8115,1745175663030355327
216931,78,7,-77,1009,-395,-8061,1745175663087074236
217123,80,-2,-77,971,-429,-8035,1745175663087074236
217315,80,-7,-77,910,-470,-8018,1745175663087074236
217507,72,-7,-77,842,-466,-8013,1745175663087074236
217699,59,-4,-77,805,-485,-8032,1745175663087074236
217891,43,2,-74,782,-471,-8050,1745175663087074236
218083,30,7,-68,810,-474,-8049,1745175663087074236
218275,18,11,-62,838,-461,-8036,1745175663087074236
218467,8,14,-57,876,-445,-8039,1745175663087074236
218659,1,15,-54,887,-439,-8051,1745175663087074236
218851,0,18,-51,914,-436,-8045,1745175663087074236
219043,4,20,-47,932,-440,-8054,1745175663087074236
219235,12,23,-45,924,-417,-8083,1745175663153535296
219427,21,24,-43,894,-375,-8061,1745175663153535296
219619,31,28,-41,863,-326,-8060,1745175663153535296
219811,39,33,-40,847,-291,-8077,1745175663153535296
220003,48,39,-39,861,-251,-8069,1745175663153535296
220195,61,44,-37,876,-265,-8076,1745175663153535296
220387,76,48,-35,918,-270,-8096,1745175663153535296
220579,92,51,-33,958,-280,-8115,1745175663153535296
220771,105,51,-31,988,-314,-8093,1745175663153535296
220963,112,46,-31,996,-364,-8081,1745175663153535296
221155,113,40,-32,978,-410,-8097,1745175663153535296
221347,112,38,-35,954,-433,-8074,1745175663153535296
221539,106,38,-35,918,-459,-8063,1745175663201639596
221731,97,37,-33,879,-486,-8039,1745175663201639596
221923,88,34,-30,862,-471,-8046,1745175663201639596
222115,77,35,-29,872,-471,-8085,1745175663201639596
222307,67,38,-30,887,-463,-8097,1745175663201639596
222499,57,43,-29,926,-453,-8100,1745175663201639596
222691,48,44,-28,982,-452,-8077,1745175663201639596
222883,42,42,-26,1019,-426,-8067,1745175663201639596
223075,39,37,-26,1052,-416,-8030,1745175663201639596
223267,36,29,-27,1084,-433,-8017,1745175663201639596
223459,36,22,-30,1069,-463,-8015,1745175663201639596
223651,34,14,-34,1046,-500,-8001,1745175663201639596
223843,28,7,-39,1011,-516,-8025,1745175663264919903
224035,20,6,-43,950,-525,-8043,1745175663264919903
224227,11,9,-48,910,-529,-8048,1745175663264919903
224419,2,12,-48,849,-536,-8044,1745175663264919903
224611,-4,16,-47,848,-539,-8054,1745175663264919903
224803,-5,18,-43,842,-506,-8047,1745175663264919903
224995,-4,23,-37,848,-476,-8043,1745175663264919903
225187,0,27,-33,893,-440,-8032,1745175663264919903
225379,5,30,-29,925,-438,-8043,1745175663264919903
225571,11,28,-27,952,-452,-8043,1745175663264919903
225763,19,26,-26,948,-460,-8031,1745175663264919903
225955,26,23,-27,931,-464,-8046,1745175663264919903
226147,30,24,-27,879,-433,-8036,1745175663322004330
226339,31,25,-28,877,-450,-8043,1745175663322004330
226531,30,24,-30,862,-500,-8058,1745175663322004330
226723,29,23,-31,880,-537,-8049,1745175663322004330
226915,28,25,-30,900,-541,-8045,1745175663322004330
227107,26,28,-30,916,-526,-8057,1745175663322004330
227299,21,30,-29,932,-481,-8035,1745175663322004330
227491,15,28,-30,962,-490,-8004,1745175663322004330
227683,12,25,-30,1000,-509,-7983,1745175663322004330
227875,13,23,-27,1021,-539,-7961,1745175663322004330
228067,15,21,-24,1015,-526,-7972,1745175663322004330
228259,12,19,-23,980,-525,-7981,1745175663322004330
228451,6,17,-22,936,-515,-8027,1745175663381888730
228643,1,16,-21,902,-501,-8038,1745175663381888730
228835,0,20,-20,884,-496,-8104,1745175663381888730
229027,1,26,-17,904,-492,-8134,1745175663381888730
229219,4,33,-13,929,-477,-8123,1745175663381888730
229411,7,37,-11,965,-457,-8119,1745175663381888730
229603,12,40,-7,1010,-433,-8110,1745175663381888730
229795,20,40,-5,1032,-414,-8075,1745175663381888730
229987,30,38,-3,1046,-417,-8066,1745175663381888730
230179,39,34,-3,1032,-400,-8068,1745175663381888730
230371,47,30,-5,1005,-361,-8060,1745175663381888730
230563,51,27,-8,986,-344,-8065,1745175663381888730
230755,50,25,-11,967,-351,-8070,1745175663442747810
230947,48,23,-13,987,-389,-8032,1745175663442747810
231139,46,21,-14,994,-458,-8015,1745175663442747810
231331,42,17,-14,1032,-491,-8017,1745175663442747810
231523,36,13,-17,1036,-535,-8017,1745175663442747810
231715,26,10,-20,1017,-518,-8046,1745175663442747810
231907,15,11,-24,967,-482,-8051,1745175663442747810
232099,5,11,-26,939,-441,-8045,1745175663442747810
232291,-4,14,-30,934,-434,-8071,1745175663442747810
232483,-9,15,-32,971,-451,-8078,1745175663442747810
232675,-10,15,-34,980,-474,-8074,1745175663442747810
232867,-10,14,-36,1006,-472,-8094,1745175663442747810
233059,-12,13,-40,982,-473,-8113,1745175663504589485
233251,-13,12,-42,945,-463,-8140,1745175663504589485
233443,-13,11,-45,903,-422,-8128,1745175663504589485
233635,-10,13,-46,879,-425,-8108,1745175663504589485
233827,-5,16,-45,905,-420,-8098,1745175663504589485
234019,-3,20,-42,951,-443,-8090,1745175663504589485
234211,-1,22,-37,997,-492,-8057,1745175663504589485
234403,3,20,-31,1014,-497,-8043,1745175663504589485
234595,7,17,-29,1008,-477,-8027,1745175663504589485
234787,6,16,-31,960,-474,-8022,1745175663504589485
234979,2,14,-33,941,-485,-8041,1745175663504589485
235171,-1,13,-35,923,-490,-8073,1745175663504589485
235363,-4,14,-36,924,-516,-8083,1745175663564701227
235555,-9,17,-36,935,-511,-8091,1745175663564701227
235747,-15,20,-36,944,-489,-8111,1745175663564701227
235939,-22,23,-37,961,-460,-8122,1745175663564701227
236131,-24,25,-38,962,-448,-8123,1745175663564701227
236323,-21,27,-39,995,-391,-8122,1745175663564701227
236515,-14,27,-42,1023,-374,-8134,1745175663564701227
236707,-5,26,-45,1039,-365,-8131,1745175663564701227
236899,5,22,-49,1036,-350,-8120,1745175663564701227
237091,14,16,-53,1011,-379,-8110,1745175663564701227
237283,21,10,-53,1011,-434,-8096,1745175663564701227
237475,23,7,-50,1029,-485,-8082,1745175663564701227
237667,25,7,-46,996,-507,-8101,1745175663617046113
237859,22,10,-41,985,-519,-8134,1745175663617046113
238051,17,13,-36,978,-482,-8133,1745175663617046113
238243,10,15,-34,987,-449,-8125,1745175663617046113
238435,4,18,-30,1026,-452,-8118,1745175663617046113
238627,2,20,-26,1071,-460,-8098,1745175663617046113
238819,4,19,-22,1096,-470,-8096,1745175663617046113
239011,7,17,-22,1112,-473,-8121,1745175663617046113
239203,8,13,-26,1107,-430,-8108,1745175663617046113
239395,6,9,-30,1086,-442,-8093,1745175663617046113
239587,5,6,-36,1080,-439,-8090,1745175663617046113
239779,7,3,-40,1066,-484,-8086,1745175663617046113
239971,9,1,-44,1044,-498,-8080,1745175663675949794
240163,10,-1,-48,1017,-488,-8089,1745175663675949794
240355,9,0,-54,974,-457,-8114,1745175663675949794
240547,6,2,-58,958,-441,-8113,1745175663675949794
240739,5,3,-58,967,-443,-8125,1745175663675949794
240931,8,2,-57,981,-456,-8125,1745175663675949794
241123,11,3,-54,984,-455,-8100,1745175663675949794
241315,13,2,-51,1022,-493,-8077,1745175663675949794
241507,14,1,-47,1021,-528,-8056,1745175663675949794
241699,16,0,-44,1013,-540,-8043,1745175663675949794
241891,18,1,-42,998,-515,-8045,1745175663675949794
242083,15,2,-44,994,-501,-8050,1745175663675949794
242275,11,2,-46,990,-504,-8049,1745175663737321161
242467,7,-1,-49,976,-529,-8039,1745175663737321161
242659,5,-4,-53,974,-546,-8030,1745175663737321161
242851,3,-2,-55,937,-525,-8049,1745175663737321161
243043,0,1,-56,917,-530,-8043,1745175663737321161
243235,-3,4,-57,935,-546,-8054,1745175663737321161
243427,-3,7,-56,958,-558,-8046,1745175663737321161
243619,-2,11,-54,975,-567,-8049,1745175663737321161
243811,0,14,-51,992,-552,-8071,1745175663737321161
244003,6,18,-48,1030,-525,-8068,1745175663737321161
244195,11,22,-48,1036,-499,-8063,1745175663737321161
244387,17,22,-48,1037,-479,-8071,1745175663737321161
244579,24,21,-48,1033,-457,-8072,1745175663789197926
244771,33,21,-48,1011,-456,-8073,1745175663789197926
244963,40,22,-47,1002,-468,-8082,1745175663789197926
245155,46,24,-45,1010,-482,-8077,1745175663789197926
245347,50,24,-44,1030,-503,-8090,1745175663789197926
245539,52,24,-43,1042,-523,-8065,1745175663789197926
245731,53,23,-41,1050,-533,-8055,1745175663789197926
245923,52,21,-38,1067,-555,-8049,1745175663789197926
246115,50,18,-34,1084,-585,-8036,1745175663789197926
246307,47,15,-32,1085,-610,-8041,1745175663789197926
246499,43,12,-32,1082,-606,-8047,1745175663789197926
246691,35,10,-35,1077,-596,-8052,1745175663789197926
246883,27,7,-37,1061,-583,-8033,1745175663848451708
247075,19,3,-38,1061,-602,-8013,1745175663848451708
247267,12,0,-38,1062,-610,-8040,1745175663848451708
247459,6,-2,-37,1074,-593,-8037,1745175663848451708
247651,1,-2,-37,1075,-608,-8033,1745175663848451708
247843,-1,-1,-36,1065,-569,-8028,1745175663848451708
248035,-5,1,-37,1069,-557,-8009,1745175663848451708
248227,-7,1,-39,1068,-534,-8011,1745175663848451708
248419,-8,1,-41,1066,-530,-8015,1745175663848451708
248611,-8,2,-43,1044,-530,-8005,1745175663848451708
248803,-6,3,-45,1047,-517,-7997,1745175663848451708
248995,-3,1,-46,1028,-549,-8001,1745175663848451708
249187,0,-1,-49,1010,-554,-8005,1745175663916185881
249379,4,0,-51,990,-562,-8013,1745175663916185881
249571,6,2,-54,981,-586,-8011,1745175663916185881
249763,8,5,-54,986,-608,-8020,1745175663916185881
249955,8,7,-51,990,-631,-8057,1745175663916185881
250147,10,8,-49,1001,-634,-8067,1745175663916185881
250339,13,10,-43,987,-620,-8079,1745175663916185881
250531,15,12,-38,986,-591,-8088,1745175663916185881
250723,15,14,-35,972,-545,-8068,1745175663916185881
250915,15,15,-30,979,-548,-8047,1745175663916185881
251107,15,15,-27,1001,-557,-8034,1745175663916185881
251299,14,14,-24,1049,-588,-8034,1745175663916185881
251491,14,13,-21,1057,-598,-8041,1745175663974667534
251683,10,12,-20,1066,-610,-8066,1745175663974667534
251875,4,11,-21,1078,-612,-8064,1745175663974667534
252067,-4,10,-22,1073,-617,-8076,1745175663974667534
252259,-10,7,-26,1057,-625,-8093,1745175663974667534
252451,-11,4,-28,1015,-610,-8097,1745175663974667534
252643,-9,4,-31,969,-572,-8111,1745175663974667534
252835,-10,5,-34,951,-572,-8108,1745175663974667534
253027,-10,7,-36,931,-547,-8103,1745175663974667534
253219,-6,9,-34,935,-525,-8130,1745175663974667534
253411,-1,14,-29,976,-519,-8115,1745175663974667534
253603,6,18,-23,1021,-511,-8113,1745175663974667534
253795,13,19,-16,1041,-526,-8133,1745175664026349145
253987,20,16,-11,1083,-534,-8124,1745175664026349145
254179,26,11,-8,1091,-530,-8110,1745175664026349145
254371,30,9,-9,1084,-504,-8107,1745175664026349145
254563,31,9,-9,1074,-486,-8113,1745175664026349145
254755,31,8,-11,1077,-512,-8109,1745175664026349145
254947,31,5,-14,1113,-516,-8090,1745175664026349145
255139,30,0,-16,1133,-529,-8064,1745175664026349145
255331,27,-5,-18,1125,-562,-8063,1745175664026349145
255523,22,-10,-19,1109,-559,-8056,1745175664026349145
255715,19,-15,-23,1067,-540,-8057,1745175664026349145
255907,11,-18,-27,1038,-522,-8037,1745175664026349145
256099,3,-19,-32,1009,-563,-8036,1745175664104304006
256291,-1,-21,-34,996,-573,-8014,1745175664104304006
256483,-5,-18,-34,982,-596,-8018,1745175664104304006
256675,-8,-13,-33,980,-575,-8027,1745175664104304006
256867,-13,-9,-33,992,-591,-8038,1745175664104304006
257059,-17,-7,-32,1021,-595,-8025,1745175664104304006
257251,-17,-5,-31,1023,-581,-8017,1745175664104304006
257443,-16,-2,-32,1020,-562,-8007,1745175664104304006
257635,-14,1,-32,1014,-530,-8017,1745175664104304006
257827,-13,2,-34,1015,-510,-8009,1745175664104304006
258019,-11,0,-37,987,-533,-8021,1745175664104304006
258211,-8,-2,-39,997,-562,-8007,1745175664104304006
258403,-6,-3,-39,978,-584,-8000,1745175664144951864
258595,-6,-3,-37,964,-600,-7997,1745175664144951864
258787,-8,1,-35,935,-617,-7997,1745175664144951864
258979,-9,3,-33,938,-621,-8018,1745175664144951864
259171,-11,4,-32,939,-608,-8034,1745175664144951864
259363,-12,5,-30,948,-605,-8042,1745175664144951864
259555,-12,6,-27,965,-625,-8068,1745175664144951864
259747,-11,7,-25,973,-622,-8062,1745175664144951864
259939,-10,8,-22,966,-610,-8063,1745175664144951864
260131,-8,10,-20,968,-588,-8092,1745175664144951864
260323,-6,12,-18,969,-565,-8083,1745175664144951864
260515,-4,14,-17,995,-566,-8068,1745175664144951864
260707,-1,15,-16,1042,-575,-8091,1745175664217899739
260899,2,15,-14,1076,-610,-8082,1745175664217899739
261091,4,14,-11,1075,-606,-8058,1745175664217899739
261283,5,12,-9,1068,-604,-8048,1745175664217899739
261475,3,10,-8,1029,-593,-8037,1745175664217899739
261667,-2,10,-9,1017,-595,-8052,1745175664217899739
261859,-2,10,-7,983,-600,-8057,1745175664217899739
262051,3,10,-5,983,-583,-8056,1745175664217899739
262243,7,12,-2,999,-576,-8075,1745175664217899739
262435,7,14,-1,1005,-555,-8103,1745175664217899739
262627,8,13,2,1029,-544,-8082,1745175664217899739
262819,10,12,2,1035,-529,-8080,1745175664217899739
263011,15,11,2,1041,-523,-8071,1745175664266672783
263203,20,12,1,1060,-513,-8076,1745175664266672783
263395,24,11,-1,1073,-532,-8049,1745175664266672783
263587,25,8,-2,1081,-521,-8036,1745175664266672783
263779,25,3,-4,1071,-543,-8000,1745175664266672783
263971,23,1,-5,1057,-534,-8000,1745175664266672783
264163,19,0,-9,1023,-538,-8010,1745175664266672783
264355,12,0,-12,1014,-546,-7993,1745175664266672783
264547,7,0,-14,1007,-533,-7963,1745175664266672783
264739,6,0,-17,1019,-533,-7953,1745175664266672783
264931,3,0,-18,1018,-557,-7943,1745175664266672783
265123,3,-1,-18,1031,-577,-7920,1745175664266672783
265315,3,-4,-19,1032,-598,-7895,1745175664319251418
265507,5,-5,-21,1001,-578,-7911,1745175664319251418
265699,7,-3,-24,949,-542,-7913,1745175664319251418
265891,6,3,-26,935,-523,-7905,1745175664319251418
266083,6,6,-27,949,-544,-7911,1745175664319251418
266275,8,7,-27,971,-587,-7891,1745175664319251418
266467,10,9,-27,1000,-633,-7919,1745175664319251418
266659,10,11,-28,1000,-630,-7935,1745175664319251418
266851,8,14,-30,983,-611,-7939,1745175664319251418
267043,5,18,-33,958,-581,-7946,1745175664319251418
267235,4,20,-35,943,-566,-7940,1745175664319251418
267427,5,21,-35,946,-576,-7945,1745175664319251418
267619,7,25,-33,949,-587,-7948,1745175664390603735
267811,8,28,-31,959,-582,-7974,1745175664390603735
268003,5,29,-28,978,-613,-7959,1745175664390603735
268195,3,27,-25,1013,-654,-7951,1745175664390603735
268387,5,26,-22,1018,-674,-7969,1745175664390603735
268579,8,26,-20,1022,-668,-7992,1745175664390603735
268771,8,28,-19,993,-647,-8039,1745175664390603735
268963,7,31,-19,978,-615,-8061,1745175664390603735
269155,9,33,-18,976,-613,-8082,1745175664390603735
269347,15,34,-15,998,-602,-8100,1745175664390603735
269539,21,36,-12,1001,-616,-8098,1745175664390603735
269731,24,36,-8,1021,-633,-8110,1745175664390603735
269923,27,36,-4,1027,-625,-8099,1745175664431940024
270115,28,36,-2,1044,-633,-8100,1745175664431940024
270307,28,35,2,1051,-653,-8094,1745175664431940024
270499,24,34,5,1079,-676,-8091,1745175664431940024
270691,19,34,8,1102,-689,-8096,1745175664431940024
270883,14,34,12,1112,-660,-8092,1745175664431940024
271075,8,32,14,1097,-632,-8099,1745175664431940024
271267,3,30,16,1069,-602,-8099,1745175664431940024
271459,-2,28,16,1062,-557,-8081,1745175664431940024
271651,-5,24,15,1073,-548,-8078,1745175664431940024
271843,-6,22,14,1098,-557,-8091,1745175664431940024
272035,-4,20,12,1108,-585,-8078,1745175664431940024
272227,-1,17,11,1108,-573,-8081,1745175664492928060
272419,0,13,7,1084,-547,-8092,1745175664492928060
272611,-1,9,1,1066,-565,-8074,1745175664492928060
272803,0,6,-4,1026,-552,-8042,1745175664492928060
272995,2,6,-8,1017,-560,-8015,1745175664492928060
273187,3,6,-10,1027,-602,-8020,1745175664492928060
273379,4,6,-13,1028,-602,-8027,1745175664492928060
273571,3,4,-14,1029,-605,-8017,1745175664492928060
273763,-3,5,-16,1038,-601,-8026,1745175664492928060
273955,-10,5,-17,1022,-610,-8017,1745175664492928060
274147,-16,5,-16,1025,-610,-8027,1745175664492928060
274339,-19,7,-15,1027,-597,-8001,1745175664492928060
274531,-22,7,-12,1029,-597,-8020,1745175664563104971
274723,-25,6,-11,1039,-628,-8032,1745175664563104971
274915,-27,4,-10,1031,-638,-8030,1745175664563104971
275107,-30,3,-9,1021,-639,-8057,1745175664563104971
275299,-32,4,-10,1012,-628,-8058,1745175664563104971
275491,-35,6,-12,985,-622,-8059,1745175664563104971
275683,-36,7,-12,996,-624,-8079,1745175664563104971
275875,-34,10,-10,999,-608,-8070,1745175664563104971
276067,-29,14,-8,1008,-586,-8090,1745175664563104971
276259,-24,19,-7,1004,-548,-8115,1745175664563104971
276451,-19,23,-4,1035,-542,-8099,1745175664563104971
276643,-14,22,-1,1059,-551,-8097,1745175664563104971
276835,-8,23,3,1043,-589,-8105,1745175664611363697
277027,-2,23,6,1058,-607,-8088,1745175664611363697
277219,1,23,10,1044,-609,-8090,1745175664611363697
277411,-1,25,13,1027,-575,-8097,1745175664611363697
277603,-6,26,14,1024,-584,-8092,1745175664611363697
277795,-11,25,15,1015,-568,-8074,1745175664611363697
277987,-15,23,15,1053,-552,-8070,1745175664611363697
278179,-19,21,13,1086,-544,-8071,1745175664611363697
278371,-19,18,12,1111,-525,-8089,1745175664611363697
278563,-19,15,8,1141,-489,-8106,1745175664611363697
278755,-17,13,3,1141,-456,-8096,1745175664611363697
278947,-13,9,-2,1155,-467,-8070,1745175664611363697
279139,-9,4,-6,1138,-450,-8063,1745175664693824715
279331,-2,1,-9,1115,-440,-8059,1745175664693824715
279523,6,-1,-13,1096,-419,-8048,1745175664693824715
279715,11,-1,-16,1099,-434,-8029,1745175664693824715
279907,16,-1,-20,1121,-485,-8021,1745175664693824715
280099,17,-5,-22,1131,-547,-7962,1745175664693824715
280291,18,-8,-22,1132,-595,-7950,1745175664693824715
280483,15,-8,-23,1082,-587,-7947,1745175664693824715
280675,9,-7,-25,1031,-597,-7939,1745175664693824715
280867,2,-2,-24,988,-575,-7966,1745175664693824715
281059,-3,3,-23,979,-553,-7991,1745175664693824715
281251,-7,8,-21,993,-578,-7989,1745175664693824715
281443,-7,11,-18,1043,-575,-7975,1745175664736943071
281635,-8,12,-15,1061,-566,-7979,1745175664736943071
281827,-9,13,-15,1064,-576,-7973,1745175664736943071
282019,-9,14,-17,1077,-553,-7968,1745175664736943071
282211,-8,13,-21,1070,-549,-7972,1745175664736943071
282403,-4,11,-25,1065,-557,-7985,1745175664736943071
282595,-2,8,-30,1044,-568,-7986,1745175664736943071
282787,-3,6,-35,1027,-599,-7999,1745175664736943071
282979,-5,4,-37,998,-626,-8007,1745175664736943071
283171,-8,5,-39,955,-606,-8001,1745175664736943071
283363,-11,9,-40,960,-577,-8002,1745175664736943071
283555,-15,14,-39,961,-574,-8007,1745175664736943071
283747,-20,17,-36,1008,-587,-8001,1745175664828106665
283939,-21,19,-31,1060,-613,-7985,1745175664828106665
284131,-20,19,-26,1083,-639,-7970,1745175664828106665
284323,-17,19,-20,1140,-679,-7986,1745175664828106665
284515,-16,19,-15,1114,-660,-8011,1745175664828106665
284707,-17,19,-11,1075,-665,-8028,1745175664828106665
284899,-15,21,-7,1021,-630,-8046,1745175664828106665
285091,-14,22,-5,980,-589,-8060,1745175664828106665
285283,-12,26,0,978,-590,-8065,1745175664828106665
285475,-12,30,3,1002,-602,-8068,1745175664828106665
285667,-11,35,6,1047,-595,-8090,1745175664828106665
285859,-9,38,11,1105,-583,-8084,1745175664828106665
286051,-6,39,16,1143,-584,-8090,1745175664869117280
286243,-3,37,16,1175,-568,-8077,1745175664869117280
286435,1,33,15,1190,-571,-8056,1745175664869117280
286627,6,28,12,1168,-550,-8053,1745175664869117280
286819,10,24,9,1116,-522,-8054,1745175664869117280
287011,12,22,5,1097,-499,-8108,1745175664869117280
287203,12,19,3,1089,-477,-8115,1745175664869117280
287395,12,17,2,1100,-487,-8105,1745175664869117280
287587,12,13,1,1131,-514,-8090,1745175664869117280
287779,11,10,1,1163,-555,-8058,1745175664869117280
287971,8,8,1,1154,-550,-8056,1745175664869117280
288163,7,6,0,1144,-530,-8059,1745175664869117280
288355,7,4,-3,1103,-502,-8064,1745175664923296993
288547,7,2,-7,1082,-531,-8057,1745175664923296993
288739,6,1,-10,1050,-532,-8033,1745175664923296993
288931,2,0,-12,1054,-581,-8033,1745175664923296993
289123,-2,0,-15,1058,-611,-8021,1745175664923296993
289315,-8,1,-17,1040,-623,-8002,1745175664923296993
289507,-15,4,-17,1048,-602,-8000,1745175664923296993
289699,-22,8,-19,1054,-602,-8022,1745175664923296993
289891,-27,10,-20,1076,-609,-8019,1745175664923296993
290083,-27,11,-18,1075,-570,-8008,1745175664923296993
290275,-23,12,-16,1053,-551,-8015,1745175664923296993
290467,-20,13,-14,1054,-491,-7993,1745175664923296993
290659,-18,14,-13,1053,-497,-7993,1745175665037434232
290851,-16,12,-11,1062,-537,-7960,1745175665037434232
291043,-13,10,-8,1100,-590,-7956,1745175665037434232
291235,-11,9,-7,1092,-624,-7981,1745175665037434232
291427,-13,12,-8,1065,-642,-7997,1745175665037434232
291619,-19,14,-10,1038,-628,-8012,1745175665037434232
291811,-26,18,-13,1016,-604,-8026,1745175665037434232
292003,-33,20,-15,999,-590,-8016,1745175665037434232
292195,-37,25,-16,1012,-598,-8016,1745175665037434232
292387,-39,27,-14,1034,-596,-8002,1745175665037434232
292579,-38,29,-11,1082,-596,-8032,1745175665037434232
292771,-35,30,-8,1107,-610,-8047,1745175665037434232
292963,-30,30,-6,1101,-563,-8076,1745175665050481457
293155,-25,29,-5,1100,-548,-8088,1745175665050481457
293347,-21,27,-5,1095,-519,-8083,1745175665050481457
293539,-15,26,-4,1110,-518,-8082,1745175665050481457
293731,-8,26,-1,1109,-527,-8098,1745175665050481457
293923,-1,25,1,1094,-547,-8114,1745175665050481457
294115,4,24,2,1093,-530,-8116,1745175665050481457
294307,6,25,4,1091,-512,-8132,1745175665050481457
294499,7,27,5,1100,-504,-8109,1745175665050481457
294691,9,28,5,1112,-477,-8092,1745175665050481457
294883,13,26,7,1141,-481,-8060,1745175665050481457
295075,16,24,7,1160,-464,-8048,1745175665050481457
295267,18,20,5,1158,-432,-8026,1745175665905543437
295459,19,17,0,1152,-419,-8023,1745175665905543437
295651,19,12,-6,1166,-438,-8011,1745175665905543437
295843,18,5,-12,1175,-480,-7975,1745175665905543437
296035,15,-1,-18,1179,-520,-7979,1745175665905543437
296227,11,-5,-23,1145,-562,-7953,1745175665905543437
296419,5,-5,-28,1115,-558,-7945,1745175665905543437
296611,-6,-4,-32,1098,-563,-7948,1745175665905543437
296803,-19,-1,-36,1104,-567,-7952,1745175665905543437
296995,-27,1,-37,1087,-604,-7920,1745175665905543437
297187,-30,4,-35,1090,-568,-7925,1745175665905543437
297379,-31,8,-35,1063,-545,-7919,1745175665905543437
297571,-31,12,-36,1063,-520,-7946,1745175665918684723
297763,-31,16,-38,1078,-513,-7983,1745175665918684723
297955,-28,20,-38,1104,-525,-8004,1745175665918684723
298147,-21,21,-37,1112,-556,-7997,1745175665918684723
298339,-14,22,-35,1115,-557,-7998,1745175665918684723
298531,-7,23,-36,1089,-536,-7993,1745175665918684723
298723,-2,25,-36,1056,-546,-8008,1745175665918684723
298915,0,27,-36,1053,-543,-8003,1745175665918684723
299107,4,28,-34,1062,-562,-8014,1745175665918684723
299299,7,29,-32,1074,-600,-8007,1745175665918684723
299491,8,29,-29,1097,-641,-8034,1745175665918684723
299683,7,28,-25,1110,-676,-8070,1745175665918684723
299875,6,27,-22,1098,-705,-8080,1745175665925989136
300067,6,27,-20,1069,-679,-8081,1745175665925989136
300259,4,28,-18,1039,-660,-8100,1745175665925989136
300451,0,30,-16,1049,-649,-8109,1745175665925989136
300643,-1,31,-12,1059,-641,-8126,1745175665925989136
300835,1,32,-8,1092,-653,-8159,1745175665925989136
301027,4,32,-3,1140,-649,-8166,1745175665925989136
301219,6,32,1,1167,-639,-8200,1745175665925989136
301411,6,31,6,1188,-638,-8202,1745175665925989136
301603,6,29,9,1197,-625,-8184,1745175665925989136
301795,8,25,12,1197,-608,-8196,1745175665925989136
301987,10,20,14,1179,-585,-8182,1745175665925989136
302179,12,15,14,1144,-565,-8155,1745175665933619639
302371,10,13,14,1130,-551,-8134,1745175665933619639
302563,5,9,17,1121,-571,-8123,1745175665933619639
302755,2,5,22,1140,-593,-8079,1745175665933619639
302947,1,4,29,1132,-591,-8089,1745175665933619639
303139,-2,4,31,1149,-571,-8091,1745175665933619639
303331,-6,7,31,1143,-540,-8069,1745175665933619639
303523,-9,10,27,1157,-514,-8065,1745175665933619639
303715,-7,8,26,1150,-474,-8075,1745175665933619639
303907,-4,8,25,1173,-454,-8055,1745175665933619639
304099,-1,8,22,1172,-460,-8043,1745175665933619639
304291,0,6,17,1183,-482,-8031,1745175665933619639
304483,1,4,11,1177,-476,-8009,1745175665941005717
304675,2,3,3,1169,-464,-7994,1745175665941005717
304867,2,3,-3,1121,-452,-7983,1745175665941005717
305059,0,3,-10,1104,-439,-7973,1745175665941005717
305251,-2,2,-17,1096,-445,-7968,1745175665941005717
305443,-4,1,-23,1119,-444,-7922,1745175665941005717
305635,-9,1,-26,1139,-478,-7948,1745175665941005717
305827,-13,0,-27,1178,-522,-7946,1745175665941005717
306019,-15,-2,-26,1185,-564,-7932,1745175665941005717
306211,-16,-4,-26,1148,-552,-7928,1745175665941005717
306403,-19,-6,-28,1095,-533,-7939,1745175665941005717
306595,-27,-5,-29,1057,-554,-7922,1745175665941005717
306787,-35,-3,-29,1025,-563,-7918,1745175665948270339
306979,-39,0,-26,1039,-594,-7916,1745175665948270339
307171,-42,3,-24,1043,-604,-7942,1745175665948270339
307363,-48,8,-21,1058,-580,-7961,1745175665948270339
307555,-55,12,-21,1069,-559,-7956,1745175665948270339
307747,-61,16,-22,1108,-535,-7942,1745175665948270339
307939,-61,20,-22,1104,-495,-7942,1745175665948270339
308131,-58,22,-25,1121,-478,-7925,1745175665948270339
308323,-55,21,-26,1131,-473,-7928,1745175665948270339
308515,-49,20,-27,1120,-489,-7929,1745175665948270339
308707,-42,19,-28,1121,-503,-7956,1745175665948270339
308899,-33,19,-28,1113,-504,-7973,1745175665948270339
309091,-26,23,-26,1096,-497,-7997,1745175665955757926
309283,-19,29,-23,1087,-482,-8014,1745175665955757926
309475,-12,32,-21,1080,-451,-7994,1745175665955757926
309667,-4,34,-16,1094,-457,-7987,1745175665955757926
309859,6,36,-10,1124,-464,-7961,1745175665955757926
310051,15,37,-5,1155,-494,-7964,1745175665955757926
310243,22,38,1,1175,-517,-7953,1745175665955757926
310435,25,36,4,1206,-521,-7942,1745175665955757926
310627,25,34,5,1191,-521,-7965,1745175665955757926
310819,22,35,5,1174,-519,-7988,1745175665955757926
311011,16,37,2,1158,-509,-7982,1745175665955757926
311203,12,37,0,1167,-508,-7977,1745175665955757926
311395,8,35,-4,1165,-540,-7969,1745175665965995020
311587,4,33,-6,1190,-557,-7948,1745175665965995020
311779,1,33,-9,1202,-561,-7953,1745175665965995020
311971,-1,34,-11,1202,-548,-7964,1745175665965995020
312163,-3,34,-15,1193,-516,-7972,1745175665965995020
312355,-3,32,-19,1183,-523,-7978,1745175665965995020
312547,-2,30,-22,1163,-536,-7975,1745175665965995020
312739,0,31,-24,1160,-534,-7975,1745175665965995020
312931,1,32,-25,1169,-541,-8001,1745175665965995020
313123,1,34,-27,1191,-563,-8022,1745175665965995020
313315,0,33,-28,1230,-614,-8010,1745175665965995020
313507,0,29,-29,1230,-639,-8014,1745175665965995020
313699,-1,27,-30,1190,-658,-8024,1745175665974096509
313891,-6,26,-33,1162,-656,-8024,1745175665974096509
314083,-13,26,-33,1145,-675,-8023,1745175665974096509
314275,-21,28,-30,1156,-693,-8015,1745175665974096509
314467,-28,29,-27,1175,-695,-8000,1745175665974096509
314659,-34,29,-22,1174,-700,-8000,1745175665974096509
314851,-41,29,-19,1173,-707,-8022,1745175665974096509
315043,-46,29,-17,1181,-697,-8032,1745175665974096509
315235,-47,30,-15,1189,-690,-8034,1745175665974096509
315427,-44,32,-13,1189,-678,-8064,1745175665974096509
315619,-41,34,-11,1204,-668,-8090,1745175665974096509
315811,-38,37,-9,1193,-648,-8106,1745175665974096509
316003,-33,37,-6,1186,-664,-8101,1745175665981645867
316195,-27,38,-4,1173,-661,-8134,1745175665981645867
316387,-21,40,-3,1158,-635,-8143,1745175665981645867
316579,-18,44,-2,1119,-600,-8152,1745175665981645867
316771,-13,45,1,1114,-593,-8162,1745175665981645867
316963,-9,44,4,1142,-618,-8167,1745175665981645867
317155,-4,43,10,1175,-637,-8149,1745175665981645867
317347,0,42,15,1210,-655,-8152,1745175665981645867
317539,-1,42,20,1226,-641,-8159,1745175665981645867
317731,-3,40,22,1240,-621,-8167,1745175665981645867
317923,-4,37,25,1227,-620,-8172,1745175665981645867
318115,-5,35,27,1234,-607,-8183,1745175665981645867
318307,-6,32,29,1239,-605,-8199,1745175665989016841
318499,-7,30,29,1238,-595,-8204,1745175665989016841
318691,-8,27,29,1236,-557,-8224,1745175665989016841
318883,-6,24,28,1236,-525,-8228,1745175665989016841
319075,-5,22,27,1234,-496,-8251,1745175665989016841
319267,-3,19,25,1231,-478,-8227,1745175665989016841
319459,1,15,24,1235,-449,-8218,1745175665989016841
319651,3,12,22,1257,-432,-8178,1745175665989016841
319843,5,9,19,1264,-423,-8158,1745175665989016841
320035,6,6,17,1276,-430,-8140,1745175665989016841
320227,7,1,13,1267,-431,-8117,1745175665989016841
320419,6,-2,8,1293,-434,-8082,1745175665989016841
320611,2,-6,3,1302,-454,-8067,1745175665996341306
320803,-1,-12,-1,1307,-489,-8036,1745175665996341306
320995,-4,-17,-4,1286,-500,-8041,1745175665996341306
321187,-6,-18,-6,1250,-498,-8044,1745175665996341306
321379,-10,-16,-9,1185,-457,-8043,1745175665996341306
321571,-14,-15,-12,1162,-428,-8037,1745175665996341306
321763,-16,-14,-14,1132,-401,-8039,1745175665996341306
321955,-15,-11,-13,1163,-404,-8025,1745175665996341306
322147,-12,-8,-12,1167,-404,-8020,1745175665996341306
322339,-9,-6,-12,1195,-406,-8027,1745175665996341306
322531,-6,-4,-12,1219,-423,-8031,1745175665996341306
322723,-4,-4,-14,1238,-444,-8022,1745175665996341306
322915,-1,-4,-17,1229,-454,-8029,1745175666004004413
323107,0,-5,-21,1197,-441,-8017,1745175666004004413
323299,-2,-6,-26,1156,-402,-8010,1745175666004004413
323491,-6,-6,-32,1116,-354,-7996,1745175666004004413
323683,-10,-6,-37,1076,-345,-7996,1745175666004004413
323875,-14,-5,-39,1053,-295,-8014,1745175666004004413
324067,-14,-2,-42,1062,-288,-8068,1745175666004004413
324259,-12,2,-44,1095,-272,-8093,1745175666004004413
324451,-8,3,-44,1126,-267,-8105,1745175666004004413
324643,-3,1,-47,1149,-236,-8117,1745175666004004413
324835,3,1,-51,1145,-183,-8131,1745175666004004413
325027,8,-1,-58,1129,-112,-8140,1745175666004004413
325219,12,-2,-66,1099,-33,-8119,1745175666011375231
325411,13,-5,-78,1082,10,-8118,1745175666011375231
325603,11,-8,-89,1111,53,-8133,1745175666011375231
325795,11,-13,-103,1133,80,-8141,1745175666011375231
325987,16,-18,-118,1114,165,-8175,1745175666011375231
326179,22,-25,-138,1094,279,-8165,1745175666011375231
326371,22,-32,-162,1056,411,-8155,1745175666011375231
326563,20,-37,-189,1053,534,-8168,1745175666011375231
326755,22,-44,-218,1040,672,-8158,1745175666011375231
326947,28,-50,-249,1036,742,-8153,1745175666011375231
327139,39,-58,-281,1054,842,-8114,1745175666011375231
327331,51,-67,-314,1062,922,-8102,1745175666011375231
327523,60,-80,-350,1050,1012,-8072,1745175666018943130
327715,62,-92,-391,1031,1104,-8036,1745175666018943130
327907,61,-105,-436,1021,1177,-7992,1745175666018943130
328099,57,-117,-482,1003,1273,-7938,1745175666018943130
328291,52,-126,-532,978,1389,-7890,1745175666018943130
328483,46,-131,-586,968,1487,-7907,1745175666018943130
328675,42,-134,-644,966,1643,-7886,1745175666018943130
328867,37,-136,-707,946,1829,-7837,1745175666018943130
329059,31,-136,-771,969,2048,-7753,1745175666018943130
329251,21,-136,-837,991,2252,-7687,1745175666018943130
329443,13,-141,-904,1040,2396,-7637,1745175666018943130
329635,13,-152,-977,1095,2525,-7586,1745175666018943130
329827,23,-166,-1051,1114,2629,-7526,1745175666026680508
330019,38,-180,-1127,1127,2745,-7472,1745175666026680508
330211,56,-193,-1202,1144,2838,-7453,1745175666026680508
330403,73,-198,-1280,1187,2887,-7465,1745175666026680508
330595,88,-199,-1362,1232,2887,-7481,1745175666026680508
330787,109,-207,-1446,1325,2855,-7500,1745175666026680508
330979,131,-213,-1529,1407,2847,-7479,1745175666026680508
331171,158,-218,-1614,1481,2876,-7456,1745175666026680508
331363,193,-228,-1692,1481,2912,-7389,1745175666026680508
331555,229,-245,-1774,1520,2995,-7292,1745175666026680508
331747,235,-228,-1862,1572,3038,-7163,1745175666026680508
331939,223,-210,-1947,1600,3062,-7071,1745175666026680508
332131,214,-202,-2023,1629,3109,-6913,1745175666034060128
332323,208,-197,-2092,1708,3153,-6792,1745175666034060128
332515,204,-192,-2161,1766,3217,-6718,1745175666034060128
332707,198,-182,-2231,1837,3289,-6724,1745175666034060128
332899,193,-173,-2297,1980,3320,-6738,1745175666034060128
333091,189,-159,-2366,2108,3338,-6811,1745175666034060128
333283,190,-149,-2433,2284,3309,-6878,1745175666034060128
333475,196,-145,-2502,2451,3306,-6951,1745175666034060128
333667,210,-140,-2572,2592,3286,-6998,1745175666034060128
333859,230,-139,-2643,2672,3279,-6984,1745175666034060128
334051,252,-136,-2714,2745,3294,-6962,1745175666034060128
334243,275,-130,-2787,2767,3327,-6896,1745175666034060128
334435,300,-120,-2856,2743,3389,-6782,1745175666072910294
334627,327,-107,-2921,2758,3420,-6669,1745175666072910294
334819,349,-95,-2981,2813,3392,-6484,1745175666072910294
335011,359,-89,-3037,2883,3341,-6276,1745175666072910294
335203,355,-81,-3089,2990,3256,-6181,1745175666072910294
335395,343,-73,-3136,3089,3176,-6039,1745175666072910294
335587,327,-60,-3175,3211,3105,-5947,1745175666072910294
335779,312,-39,-3209,3344,3052,-5947,1745175666072910294
335971,300,-11,-3241,3417,3083,-5992,1745175666072910294
336163,291,18,-3276,3491,3149,-6061,1745175666072910294
336355,286,46,-3322,3524,3211,-6111,1745175666072910294
336547,287,78,-3365,3593,3279,-6204,1745175666072910294
336739,304,105,-3408,3639,3340,-6233,1745175666133219795
336931,327,135,-3449,3708,3360,-6241,1745175666133219795
337123,359,157,-3489,3775,3320,-6182,1745175666133219795
337315,394,176,-3527,3861,3236,-6065,1745175666133219795
337507,431,188,-3561,3947,3117,-5910,1745175666133219795
337699,467,197,-3594,4026,2992,-5798,1745175666133219795
337891,498,209,-3623,4109,2899,-5671,1745175666133219795
338083,512,225,-3656,4237,2842,-5534,1745175666133219795
338275,506,249,-3690,4362,2835,-5391,1745175666133219795
338467,483,275,-3721,4509,2798,-5261,1745175666133219795
338659,459,300,-3747,4672,2720,-5190,1745175666133219795
338851,444,321,-3765,4791,2621,-5171,1745175666133219795
339043,450,341,-3774,4877,2517,-5285,1745175666192390400
339235,477,361,-3778,4934,2448,-5462,1745175666192390400
339427,517,383,-3781,4974,2364,-5657,1745175666192390400
339619,559,397,-3792,5003,2255,-5796,1745175666192390400
339811,593,403,-3810,4997,2128,-5868,1745175666192390400
340003,625,412,-3833,5010,1948,-5951,1745175666192390400
340195,653,421,-3859,5034,1724,-5932,1745175666192390400
340387,677,433,-3883,5063,1524,-5858,1745175666192390400
340579,691,442,-3896,5127,1253,-5764,1745175666192390400
340771,691,445,-3903,5159,984,-5683,1745175666192390400
340963,681,452,-3903,5159,771,-5704,1745175666192390400
341155,660,461,-3895,5123,539,-5799,1745175666192390400
341347,631,470,-3884,5075,294,-5886,1745175666251849024
341539,602,475,-3864,5027,42,-5954,1745175666251849024
341731,570,480,-3837,4967,-193,-6019,1745175666251849024
341923,534,486,-3805,4942,-421,-6093,1745175666251849024
342115,490,502,-3771,4910,-644,-6157,1745175666251849024
342307,447,522,-3735,4907,-867,-6274,1745175666251849024
342499,408,547,-3693,4907,-1067,-6418,1745175666251849024
342691,379,572,-3643,4954,-1266,-6556,1745175666251849024
342883,362,594,-3589,4980,-1375,-6581,1745175666251849024
343075,358,613,-3531,5001,-1500,-6596,1745175666251849024
343267,364,630,-3469,5037,-1569,-6685,1745175666251849024
343459,380,648,-3405,5105,-1634,-6827,1745175666251849024
343651,408,658,-3340,5203,-1723,-7035,1745175666312087067
343843,451,659,-3271,5302,-1803,-7176,1745175666312087067
344035,502,647,-3202,5425,-1911,-7253,1745175666312087067
344227,555,625,-3132,5530,-2045,-7312,1745175666312087067
344419,606,600,-3060,5677,-2208,-7423,1745175666312087067
344611,649,564,-2985,5808,-2446,-7508,1745175666312087067
344803,683,519,-2910,5982,-2722,-7599,1745175666312087067
344995,709,468,-2842,6109,-3016,-7642,1745175666312087067
345187,726,399,-2816,6130,-3283,-7808,1745175666312087067
345379,718,350,-2816,6058,-3570,-7986,1745175666312087067
345571,695,303,-2797,5931,-3907,-8126,1745175666312087067
345763,664,266,-2728,5811,-4219,-8249,1745175666312087067
345955,613,234,-2631,5637,-4489,-8434,1745175666366542559
346147,547,209,-2516,5335,-4676,-8524,1745175666366542559
346339,472,195,-2377,5068,-4801,-8557,1745175666366542559
346531,383,186,-2223,4990,-4938,-8632,1745175666366542559
346723,280,183,-2084,5042,-5039,-8721,1745175666366542559
346915,169,185,-1974,5104,-5031,-8721,1745175666366542559
347107,63,196,-1885,5155,-4934,-8803,1745175666366542559
347299,-33,206,-1803,5187,-4728,-8949,1745175666366542559
347491,-113,204,-1705,5267,-4580,-9056,1745175666366542559
347683,-171,179,-1584,5344,-4461,-9160,1745175666366542559
347875,-215,142,-1454,5424,-4384,-9298,1745175666366542559
348067,-254,91,-1343,5423,-4287,-9358,1745175666366542559
348259,-292,45,-1266,5282,-4182,-9335,1745175666431838994
348451,-334,8,-1217,5103,-4075,-9351,1745175666431838994
348643,-377,-22,-1182,4897,-4002,-9338,1745175666431838994
348835,-421,-43,-1143,4704,-3840,-9356,1745175666431838994
349027,-470,-56,-1095,4533,-3664,-9336,1745175666431838994
349219,-520,-61,-1040,4405,-3459,-9325,1745175666431838994
349411,-571,-60,-978,4347,-3253,-9415,1745175666431838994
349603,-622,-55,-909,4352,-3050,-9539,1745175666431838994
349795,-660,-46,-842,4330,-2848,-9639,1745175666431838994
349987,-684,-35,-784,4331,-2628,-9708,1745175666431838994
350179,-692,-22,-735,4301,-2389,-9742,1745175666431838994
350371,-691,-9,-696,4272,-2143,-9708,1745175666431838994
350563,-687,4,-660,4198,-1915,-9661,1745175666483254254
350755,-677,14,-622,4104,-1721,-9598,1745175666483254254
350947,-660,18,-579,3989,-1545,-9485,1745175666483254254
351139,-634,19,-536,3828,-1365,-9338,1745175666483254254
351331,-603,17,-495,3641,-1218,-9227,1745175666483254254
351523,-574,13,-453,3454,-989,-9055,1745175666483254254
351715,-550,10,-413,3263,-764,-8887,1745175666483254254
351907,-522,25,-370,3031,-439,-8675,1745175666483254254
352099,-477,62,-333,2785,-1,-8514,1745175666483254254
352291,-371,99,-277,3122,238,-9122,1745175666483254254
352483,-232,25,-162,4012,203,-9641,1745175666483254254
352675,-65,-129,-32,4707,96,-9750,1745175666483254254
352867,89,-307,65,4967,-55,-9717,1745175666543714691
353059,185,-435,123,4908,-430,-9689,1745175666543714691
353251,214,-499,157,4543,-884,-9734,1745175666543714691
353443,174,-512,173,3918,-1252,-9771,1745175666543714691
353635,76,-494,165,3155,-1408,-9772,1745175666543714691
353827,-59,-452,136,2539,-1466,-9729,1745175666543714691
354019,-207,-391,107,2094,-1396,-9632,1745175666543714691
354211,-354,-320,94,1810,-1213,-9463,1745175666543714691
354403,-491,-249,106,1720,-856,-9247,1745175666543714691
354595,-616,-192,127,1788,-408,-8967,1745175666543714691
354787,-723,-153,139,1913,127,-8657,1745175666543714691
354979,-800,-135,132,2018,696,-8355,1745175666543714691
355171,-833,-131,115,2108,1226,-8086,1745175666616192154
355363,-827,-138,97,2149,1701,-7805,1745175666616192154
355555,-787,-154,83,2149,2039,-7586,1745175666616192154
355747,-723,-171,75,2102,2305,-7427,1745175666616192154
355939,-641,-186,72,2021,2443,-7345,1745175666616192154
356131,-553,-194,67,1919,2509,-7313,1745175666616192154
356323,-469,-195,58,1844,2508,-7343,1745175666616192154
356515,-394,-191,49,1779,2415,-7393,1745175666616192154
356707,-327,-180,43,1691,2314,-7457,1745175666616192154
356899,-266,-161,39,1639,2181,-7510,1745175666616192154
357091,-212,-142,34,1622,2078,-7562,1745175666616192154
357283,-167,-116,27,1621,1995,-7609,1745175666616192154
357475,-131,-91,14,1651,1937,-7680,1745175666658747703
357667,-110,-77,-1,1730,1841,-7677,1745175666658747703
357859,-98,-80,-11,1864,1701,-7689,1745175666658747703
358051,-101,-105,-19,1997,1511,-7832,1745175666658747703
358243,-130,-136,-25,2060,1401,-7987,1745175666658747703
358435,-176,-155,-31,1972,1405,-7984,1745175666658747703
358627,-217,-160,-37,1815,1467,-7961,1745175666658747703
358819,-235,-157,-36,1735,1486,-7941,1745175666658747703
359011,-238,-154,-31,1731,1451,-7947,1745175666658747703
359203,-237,-152,-20,1743,1405,-7944,1745175666658747703
359395,-239,-149,-8,1786,1344,-7911,1745175666658747703
359587,-249,-143,3,1817,1317,-7901,1745175666658747703
359779,-264,-135,9,1827,1273,-7914,1745175666716850401
359971,-279,-129,10,1846,1285,-7907,1745175666716850401
360163,-294,-124,8,1827,1330,-7922,1745175666716850401
360355,-307,-117,7,1826,1396,-7902,1745175666716850401
360547,-318,-109,9,1827,1506,-7856,1745175666716850401
360739,-323,-103,13,1833,1596,-7795,1745175666716850401
360931,-323,-104,20,1886,1667,-7741,1745175666716850401
361123,-318,-110,23,1915,1718,-7665,1745175666716850401
361315,-309,-117,26,1937,1771,-7627,1745175666716850401
361507,-274,-125,41,1996,1809,-7711,1745175666716850401
361699,-231,-135,62,2049,1908,-7856,1745175666716850401
361891,-204,-144,76,2058,1976,-8025,1745175666716850401
362083,-183,-154,79,2064,2014,-8219,1745175666784433638
362275,-158,-165,76,2050,2019,-8458,1745175666784433638
362467,-133,-173,69,2020,2093,-8695,1745175666784433638
362659,-113,-176,62,1939,2190,-8888,1745175666784433638
362851,-98,-175,49,1845,2284,-8975,1745175666784433638
363043,-81,-172,34,1786,2320,-8989,1745175666784433638
363235,-62,-168,18,1734,2300,-8910,1745175666784433638
363427,-42,-163,4,1702,2221,-8745,1745175666784433638
363619,-23,-159,-5,1658,2119,-8531,1745175666784433638
363811,-6,-152,-8,1615,1994,-8330,1745175666784433638
364003,4,-143,-4,1568,1858,-8138,1745175666784433638
364195,8,-130,5,1523,1741,-7985,1745175666784433638
364387,6,-116,18,1479,1670,-7874,1745175666841376920
364579,0,-102,36,1472,1617,-7789,1745175666841376920
364771,-8,-89,51,1501,1584,-7784,1745175666841376920
364963,-20,-76,60,1524,1567,-7789,1745175666841376920
365155,-34,-65,59,1558,1587,-7825,1745175666841376920
365347,-50,-55,49,1588,1588,-7855,1745175666841376920
365539,-64,-49,35,1626,1612,-7883,1745175666841376920
365731,-73,-44,21,1643,1641,-7895,1745175666841376920
365923,-78,-39,8,1662,1662,-7919,1745175666841376920
366115,-80,-33,1,1651,1679,-7924,1745175666841376920
366307,-82,-24,-3,1643,1683,-7939,1745175666841376920
366499,-82,-17,-8,1661,1686,-7939,1745175666841376920
366691,-83,-10,-13,1679,1673,-7951,1745175666892479213
366883,-88,-3,-20,1679,1663,-7930,1745175666892479213
367075,-96,3,-26,1699,1666,-7913,1745175666892479213
367267,-104,8,-32,1689,1659,-7878,1745175666892479213
367459,-113,13,-35,1691,1661,-7840,1745175666892479213
367651,-120,16,-36,1708,1692,-7814,1745175666892479213
367843,-128,18,-37,1713,1719,-7775,1745175666892479213
368035,-134,22,-34,1721,1762,-7754,1745175666892479213
368227,-137,25,-29,1730,1845,-7751,1745175666892479213
368419,-138,25,-22,1739,1890,-7751,1745175666892479213
368611,-135,24,-17,1754,1981,-7757,1745175666892479213
368803,-128,22,-13,1769,2026,-7753,1745175666892479213
368995,-117,19,-11,1763,2060,-7727,1745175666952966473
369187,-105,12,-9,1781,2060,-7709,1745175666952966473
369379,-95,7,-6,1784,2061,-7681,1745175666952966473
369571,-83,2,-5,1782,2072,-7688,1745175666952966473
369763,-70,0,-4,1775,2096,-7692,1745175666952966473
369955,-56,-2,-2,1771,2085,-7722,1745175666952966473
370147,-43,-5,-2,1772,2065,-7725,1745175666952966473
370339,-33,-8,-3,1788,2010,-7727,1745175666952966473
370531,-22,-10,-3,1809,1977,-7721,1745175666952966473
370723,-13,-14,-1,1816,1932,-7726,1745175666952966473
370915,-11,-19,3,1814,1926,-7734,1745175666952966473
371107,-11,-23,6,1789,1893,-7712,1745175666952966473
371299,-11,-26,8,1784,1891,-7688,1745175667011079796
371491,-9,-30,10,1775,1884,-7675,1745175667011079796
371683,-9,-34,11,1773,1867,-7679,1745175667011079796
371875,-13,-38,12,1770,1868,-7697,1745175667011079796
372067,-18,-40,12,1763,1877,-7700,1745175667011079796
372259,-23,-42,11,1759,1886,-7694,1745175667011079796
372451,-23,-45,10,1753,1887,-7698,1745175667011079796
372643,-20,-48,11,1762,1912,-7725,1745175667011079796
372835,-19,-51,11,1742,1932,-7737,1745175667011079796
373027,-18,-51,11,1733,1960,-7755,1745175667011079796
373219,-13,-52,9,1713,1970,-7740,1745175667011079796
373411,-6,-53,9,1725,1958,-7723,1745175667011079796
373603,1,-54,10,1721,1950,-7729,1745175667068012870
373795,8,-55,11,1715,1908,-7735,1745175667068012870
373987,15,-56,13,1694,1912,-7741,1745175667068012870
374179,22,-55,14,1692,1919,-7747,1745175667068012870
374371,25,-57,13,1695,1888,-7775,1745175667068012870
374563,24,-58,11,1688,1857,-7776,1745175667068012870
374755,24,-57,10,1670,1830,-7763,1745175667068012870
374947,23,-57,9,1674,1811,-7770,1745175667068012870
375139,21,-54,8,1651,1797,-7772,1745175667068012870
375331,16,-49,7,1632,1789,-7786,1745175667068012870
375523,10,-45,5,1617,1785,-7791,1745175667068012870
375715,4,-40,1,1629,1758,-7802,1745175667068012870
375907,-1,-35,1,1642,1755,-7811,1745175667126284890
376099,-4,-29,1,1639,1749,-7818,1745175667126284890
376291,-8,-25,2,1642,1760,-7819,1745175667126284890
376483,-13,-21,1,1651,1774,-7837,1745175667126284890
376675,-15,-16,0,1633,1804,-7827,1745175667126284890
376867,-15,-9,-2,1622,1801,-7787,1745175667126284890
377059,-15,-4,-5,1646,1828,-7787,1745175667126284890
377251,-16,-1,-7,1652,1828,-7751,1745175667126284890
377443,-15,2,-9,1656,1836,-7744,1745175667126284890
377635,-16,3,-10,1674,1843,-7769,1745175667126284890
377827,-16,3,-12,1657,1837,-7788,1745175667126284890
378019,-16,2,-15,1651,1848,-7784,1745175667126284890
378211,-16,2,-18,1659,1842,-7788,1745175667190335867
378403,-15,2,-20,1641,1827,-7777,1745175667190335867
378595,-15,2,-22,1630,1819,-7762,1745175667190335867
378787,-17,4,-22,1634,1795,-7741,1745175667190335867
378979,-18,5,-22,1616,1819,-7733,1745175667190335867
379171,-21,7,-21,1603,1816,-7747,1745175667190335867
379363,-25,9,-22,1620,1830,-7765,1745175667190335867
379555,-28,11,-21,1636,1828,-7772,1745175667190335867
379747,-31,11,-19,1644,1842,-7776,1745175667190335867
379939,-33,11,-20,1654,1859,-7785,1745175667190335867
380131,-33,11,-19,1655,1879,-7769,1745175667190335867
380323,-34,12,-20,1674,1864,-7751,1745175667190335867
380515,-36,10,-20,1675,1865,-7727,1745175667250902814
380707,-36,7,-22,1688,1871,-7701,1745175667250902814
380899,-37,4,-22,1695,1849,-7703,1745175667250902814
381091,-39,1,-22,1704,1876,-7704,1745175667250902814
381283,-41,-1,-22,1698,1873,-7706,1745175667250902814
381475,-41,-4,-21,1688,1906,-7718,1745175667250902814
381667,-39,-7,-21,1682,1918,-7729,1745175667250902814
381859,-37,-10,-21,1698,1945,-7716,1745175667250902814
382051,-34,-13,-21,1697,1960,-7714,1745175667250902814
382243,-29,-14,-19,1686,1985,-7708,1745175667250902814
382435,-23,-16,-18,1677,1998,-7705,1745175667250902814
382627,-16,-19,-17,1691,1998,-7709,1745175667250902814
382819,-8,-23,-18,1688,1988,-7725,1745175667301711933
383011,-3,-25,-17,1684,1968,-7736,1745175667301711933
383203,1,-26,-16,1678,1949,-7739,1745175667301711933
383395,3,-27,-17,1636,1932,-7753,1745175667301711933
383587,4,-26,-18,1623,1930,-7769,1745175667301711933
383779,5,-24,-19,1613,1911,-7765,1745175667301711933
383971,5,-23,-20,1622,1883,-7744,1745175667301711933
384163,4,-21,-20,1626,1862,-7738,1745175667301711933
384355,2,-20,-20,1625,1859,-7748,1745175667301711933
384547,-2,-19,-19,1628,1842,-7760,1745175667301711933
384739,-7,-18,-17,1623,1849,-7748,1745175667301711933
384931,-10,-18,-17,1633,1839,-7775,1745175667301711933
385123,-14,-19,-19,1631,1835,-7773,1745175667362124715
385315,-19,-18,-19,1628,1828,-7745,1745175667362124715
385507,-22,-17,-19,1617,1820,-7722,1745175667362124715
385699,-23,-17,-18,1619,1853,-7740,1745175667362124715
385891,-24,-16,-19,1604,1889,-7762,1745175667362124715
386083,-24,-15,-21,1586,1907,-7769,1745175667362124715
386275,-22,-13,-22,1596,1919,-7764,1745175667362124715
386467,-19,-12,-23,1615,1923,-7747,1745175667362124715
386659,-16,-13,-23,1631,1920,-7751,1745175667362124715
386851,-14,-14,-21,1639,1931,-7749,1745175667362124715
387043,-12,-16,-21,1632,1924,-7764,1745175667362124715
387235,-10,-16,-21,1602,1914,-7761,1745175667362124715
387427,-9,-16,-22,1589,1905,-7750,1745175667420870636
387619,-8,-17,-23,1594,1883,-7718,1745175667420870636
387811,-7,-16,-24,1590,1876,-7746,1745175667420870636
388003,-8,-17,-26,1598,1876,-7743,1745175667420870636
388195,-10,-17,-28,1586,1874,-7757,1745175667420870636
388387,-14,-17,-30,1607,1875,-7758,1745175667420870636
388579,-16,-18,-31,1605,1873,-7764,1745175667420870636
388771,-18,-17,-32,1613,1889,-7757,1745175667420870636
388963,-19,-17,-33,1628,1892,-7761,1745175667420870636
389155,-20,-18,-34,1624,1890,-7745,1745175667420870636
389347,-21,-19,-35,1620,1894,-7744,1745175667420870636
389539,-23,-19,-36,1617,1900,-7717,1745175667420870636
389731,-22,-19,-36,1620,1893,-7721,1745175667478150426
389923,-22,-20,-36,1606,1910,-7729,1745175667478150426
390115,-22,-20,-37,1609,1914,-7746,1745175667478150426
390307,-22,-19,-38,1604,1958,-7754,1745175667478150426
390499,-19,-18,-40,1590,1959,-7764,1745175667478150426
390691,-16,-18,-41,1598,1965,-7760,1745175667478150426
390883,-14,-19,-42,1606,1955,-7749,1745175667478150426
391075,-12,-18,-43,1612,1925,-7745,1745175667478150426
391267,-9,-20,-43,1610,1908,-7762,1745175667478150426
391459,-8,-20,-43,1604,1881,-7767,1745175667478150426
391651,-9,-19,-42,1587,1877,-7754,1745175667478150426
391843,-11,-20,-43,1587,1849,-7753,1745175667478150426
392035,-15,-20,-41,1562,1840,-7746,1745175667537504467
392227,-19,-20,-39,1575,1846,-7745,1745175667537504467
392419,-24,-19,-37,1572,1860,-7756,1745175667537504467
392611,-29,-18,-36,1555,1866,-7756,1745175667537504467
392803,-33,-17,-33,1549,1900,-7744,1745175667537504467
392995,-34,-17,-33,1549,1947,-7742,1745175667537504467
393187,-33,-17,-33,1563,1961,-7750,1745175667537504467
393379,-31,-18,-31,1561,1990,-7747,1745175667537504467
393571,-29,-18,-31,1559,2005,-7744,1745175667537504467
393763,-26,-18,-28,1550,2017,-7736,1745175667537504467
393955,-20,-18,-27,1541,2024,-7747,1745175667537504467
394147,-14,-17,-25,1555,2026,-7759,1745175667537504467
394339,-9,-17,-23,1560,2029,-7749,1745175667598351880
394531,-6,-19,-19,1566,2033,-7737,1745175667598351880
394723,-1,-20,-16,1573,2014,-7727,1745175667598351880
394915,3,-21,-13,1597,2015,-7710,1745175667598351880
395107,7,-22,-9,1601,2008,-7712,1745175667598351880
395299,12,-25,-7,1604,2012,-7713,1745175667598351880
395491,15,-27,-5,1611,2008,-7729,1745175667598351880
395683,19,-29,-4,1628,1984,-7730,1745175667598351880
395875,21,-31,-2,1625,1987,-7709,1745175667598351880
396067,23,-34,1,1622,1955,-7709,1745175667598351880
396259,25,-38,4,1618,1971,-7727,1745175667598351880
396451,26,-41,6,1591,1962,-7740,1745175667598351880
396643,28,-45,9,1573,1971,-7733,1745175667661512917
396835,30,-47,10,1555,1968,-7751,1745175667661512917
397027,32,-48,10,1540,1952,-7741,1745175667661512917
397219,35,-50,12,1525,1934,-7739,1745175667661512917
397411,37,-51,14,1528,1936,-7757,1745175667661512917
397603,36,-50,15,1519,1921,-7748,1745175667661512917
397795,37,-49,14,1496,1907,-7763,1745175667661512917
397987,37,-48,14,1497,1903,-7773,1745175667661512917
398179,34,-49,13,1502,1900,-7808,1745175667661512917
398371,29,-48,12,1492,1894,-7789,1745175667661512917
398563,22,-45,11,1467,1850,-7765,1745175667661512917
398755,23,-46,13,1469,1834,-7776,1745175667661512917
398947,22,-44,14,1463,1829,-7796,1745175667711053090
399139,6,-40,11,1439,1810,-7831,1745175667711053090
399331,-22,-29,2,1404,1783,-7818,1745175667711053090
399523,-32,-25,1,1401,1812,-7817,1745175667711053090
399715,-18,-24,6,1424,1859,-7779,1745175667711053090
399907,-7,-22,11,1459,1893,-7783,1745175667711053090
400099,-8,-19,12,1513,1904,-7817,1745175667711053090
400291,-9,-22,10,1532,1905,-7809,1745175667711053090
400483,-7,-23,9,1524,1926,-7781,1745175667711053090
400675,-3,-22,11,1496,1916,-7774,1745175667711053090
400867,0,-22,12,1492,1906,-7773,1745175667711053090
401059,2,-23,13,1482,1887,-7764,1745175667711053090
401251,3,-21,13,1493,1878,-7760,1745175667771674463
401443,2,-21,13,1491,1880,-7781,1745175667771674463
401635,1,-21,11,1491,1877,-7764,1745175667771674463
401827,0,-22,9,1495,1869,-7772,1745175667771674463
402019,0,-22,6,1486,1890,-7771,1745175667771674463
402211,0,-23,3,1482,1880,-7756,1745175667771674463
402403,0,-23,2,1483,1874,-7766,1745175667771674463
402595,-1,-23,2,1468,1901,-7767,1745175667771674463
402787,-1,-22,1,1451,1896,-7786,1745175667771674463
402979,-1,-20,1,1464,1886,-7790,1745175667771674463
403171,-2,-18,2,1470,1869,-7792,1745175667771674463
403363,-3,-17,2,1490,1870,-7777,1745175667771674463
403555,-5,-17,2,1490,1873,-7766,1745175667828660245
403747,-5,-18,3,1488,1889,-7777,1745175667828660245
403939,-4,-18,3,1477,1908,-7784,1745175667828660245
404131,-2,-17,1,1459,1917,-7799,1745175667828660245
404323,-1,-16,-3,1458,1914,-7788,1745175667828660245
404515,0,-14,-5,1458,1906,-7776,1745175667828660245
404707,2,-13,-7,1470,1895,-7785,1745175667828660245
404899,4,-13,-7,1460,1905,-7778,1745175667828660245
405091,6,-12,-7,1452,1917,-7782,1745175667828660245
405283,8,-13,-7,1474,1905,-7777,1745175667828660245
405475,10,-15,-10,1463,1902,-7779,1745175667828660245
405667,9,-16,-10,1450,1871,-7782,1745175667828660245
405859,9,-16,-10,1449,1832,-7790,1745175667884359996
406051,6,-15,-12,1418,1820,-7802,1745175667884359996
406243,1,-12,-14,1414,1810,-7800,1745175667884359996
406435,-3,-9,-16,1387,1800,-7808,1745175667884359996
406627,-10,-5,-16,1392,1810,-7804,1745175667884359996
406819,-15,-1,-14,1396,1809,-7807,1745175667884359996
407011,-20,3,-13,1409,1847,-7810,1745175667884359996
407203,-24,8,-11,1437,1880,-7800,1745175667884359996
407395,-25,11,-12,1446,1908,-7781,1745175667884359996
407587,-24,13,-14,1467,1935,-7774,1745175667884359996
407779,-21,15,-16,1483,1946,-7779,1745175667884359996
407971,-16,16,-19,1501,1953,-7781,1745175667884359996
408163,-13,15,-21,1491,1937,-7785,1745175667946903591
408355,-8,15,-25,1481,1953,-7788,1745175667946903591
408547,-3,15,-29,1450,1944,-7790,1745175667946903591
408739,2,17,-32,1457,1921,-7788,1745175667946903591
408931,6,17,-35,1446,1892,-7791,1745175667946903591
409123,7,19,-37,1460,1870,-7794,1745175667946903591
409315,5,20,-39,1457,1857,-7797,1745175667946903591
409507,2,22,-41,1448,1835,-7786,1745175667946903591
409699,-2,24,-40,1441,1816,-7791,1745175667946903591
409891,-6,25,-38,1434,1818,-7794,1745175667946903591
410083,-10,26,-39,1428,1834,-7777,1745175667946903591
410275,-14,28,-39,1460,1829,-7792,1745175667946903591
410467,-16,28,-39,1456,1853,-7792,1745175668009303542
410659,-18,30,-40,1472,1878,-7788,1745175668009303542
410851,-19,31,-41,1486,1901,-7766,1745175668009303542
411043,-19,31,-43,1506,1932,-7743,1745175668009303542
411235,-16,30,-42,1541,1937,-7740,1745175668009303542
411427,-14,27,-41,1546,1975,-7724,1745175668009303542
411619,-10,24,-41,1553,1978,-7729,1745175668009303542
411811,-6,20,-42,1547,1997,-7734,1745175668009303542
412003,-1,16,-43,1535,2000,-7753,1745175668009303542
412195,5,14,-46,1509,1992,-7766,1745175668009303542
412387,9,12,-47,1496,1959,-7774,1745175668009303542
412579,14,10,-48,1490,1945,-7773,1745175668009303542
412771,18,11,-48,1455,1921,-7796,1745175668070353453
412963,20,11,-46,1431,1908,-7791,1745175668070353453
413155,21,11,-44,1427,1910,-7791,1745175668070353453
413347,20,11,-41,1418,1871,-7781,1745175668070353453
413539,18,11,-38,1441,1871,-7772,1745175668070353453
413731,15,11,-34,1462,1872,-7761,1745175668070353453
413923,13,10,-31,1477,1877,-7775,1745175668070353453
414115,9,11,-30,1471,1889,-7766,1745175668070353453
414307,8,10,-29,1483,1899,-7762,1745175668070353453
414499,9,9,-30,1483,1913,-7761,1745175668070353453
414691,10,8,-32,1493,1919,-7788,1745175668070353453
414883,11,8,-31,1493,1921,-7789,1745175668070353453
415075,12,9,-31,1511,1925,-7789,1745175668117351201
415267,14,9,-29,1483,1924,-7774,1745175668117351201
415459,16,8,-29,1490,1924,-7761,1745175668117351201
415651,19,7,-29,1496,1928,-7761,1745175668117351201
415843,21,7,-29,1502,1944,-7750,1745175668117351201
416035,23,5,-29,1511,1919,-7742,1745175668117351201
416227,25,3,-29,1506,1937,-7730,1745175668117351201
416419,28,1,-30,1501,1944,-7748,1745175668117351201
416611,32,0,-30,1501,1949,-7758,1745175668117351201
416803,36,-1,-30,1497,1956,-7785,1745175668117351201
416995,39,-4,-34,1491,1937,-7777,1745175668117351201
417187,43,-6,-34,1495,1919,-7773,1745175668117351201
417379,45,-7,-34,1487,1897,-7790,1745175668180768226
417571,47,-8,-35,1463,1863,-7776,1745175668180768226
417763,47,-8,-35,1426,1848,-7785,1745175668180768226
417955,45,-7,-35,1434,1827,-7789,1745175668180768226
418147,41,-6,-33,1440,1841,-7776,1745175668180768226
418339,37,-6,-32,1444,1827,-7782,1745175668180768226
418531,33,-5,-30,1450,1822,-7798,1745175668180768226
418723,29,-4,-28,1460,1855,-7804,1745175668180768226
418915,28,-3,-27,1462,1878,-7786,1745175668180768226
419107,31,-3,-26,1467,1898,-7797,1745175668180768226
419299,35,-3,-27,1479,1907,-7794,1745175668180768226
419491,39,-5,-28,1498,1918,-7791,1745175668180768226
419683,43,-4,-29,1470,1915,-7777,1745175668238939205
419875,48,-6,-29,1480,1907,-7769,1745175668238939205
420067,51,-8,-28,1492,1889,-7782,1745175668238939205
420259,54,-12,-28,1470,1884,-7775,1745175668238939205
420451,56,-13,-26,1467,1885,-7785,1745175668238939205
420643,53,-13,-26,1442,1684,-7751,1745175668238939205
420835,17,-8,-30,1338,1325,-7777,1745175668238939205
421027,-31,9,-31,1272,1118,-7836,1745175668238939205
421219,-77,29,-29,1177,1182,-7783,1745175668238939205
421411,-110,52,-24,1174,1520,-7773,1745175668238939205
421603,-104,63,-20,1347,1984,-7923,1745175668238939205
421795,-124,52,-29,1462,1668,-7807,1745175668238939205
421987,-159,60,-44,1504,1606,-7825,1745175668297529295
422179,-168,59,-49,1462,1773,-7776,1745175668297529295
422371,-156,67,-38,1477,1885,-7816,1745175668297529295
422563,-159,66,-25,1437,1955,-7796,1745175668297529295
422755,-169,65,-24,1411,1899,-7813,1745175668297529295
422947,-181,63,-38,1359,1932,-7815,1745175668297529295
423139,-223,72,-68,1361,2034,-7756,1745175668297529295
423331,-240,79,-86,1435,2084,-7677,1745175668297529295
423523,-194,68,-78,1530,2180,-7646,1745175668297529295
423715,-148,61,-58,1652,2332,-7690,1745175668297529295
423907,-114,47,-40,1678,2443,-7720,1745175668297529295
424099,-82,30,-34,1682,2471,-7719,1745175668297529295
424291,-48,13,-37,1678,2399,-7733,1745175668355849908
424483,-15,-3,-41,1660,2323,-7735,1745175668355849908
424675,14,-13,-34,1610,2190,-7736,1745175668355849908
424867,32,-16,-18,1535,2023,-7756,1745175668355849908
425059,39,-17,-5,1444,1924,-7760,1745175668355849908
425251,42,-12,-1,1372,1897,-7792,1745175668355849908
425443,45,-3,-3,1363,1917,-7833,1745175668355849908
425635,46,3,-8,1431,1917,-7843,1745175668355849908
425827,46,8,-12,1471,1908,-7835,1745175668355849908
426019,45,12,-15,1499,1897,-7792,1745175668355849908
426211,45,15,-18,1494,1904,-7767,1745175668355849908
426403,44,15,-19,1470,1934,-7780,1745175668355849908
426595,42,15,-16,1478,1955,-7772,1745175668416820028
426787,41,15,-11,1478,1958,-7763,1745175668416820028
426979,41,14,-6,1481,1978,-7768,1745175668416820028
427171,43,13,-5,1488,1970,-7770,1745175668416820028
427363,43,15,-8,1453,1935,-7771,1745175668416820028
427555,43,17,-13,1430,1881,-7771,1745175668416820028
427747,41,22,-16,1427,1895,-7757,1745175668416820028
427939,42,24,-12,1461,1929,-7751,1745175668416820028
428131,43,22,-6,1524,1942,-7740,1745175668416820028
428323,43,17,-4,1559,1951,-7745,1745175668416820028
428515,41,13,-4,1571,1918,-7731,1745175668416820028
428707,38,11,-4,1522,1885,-7730,1745175668416820028
428899,35,12,-5,1475,1847,-7733,1745175668479768724
429091,31,14,-4,1440,1852,-7750,1745175668479768724
429283,27,17,-3,1418,1836,-7755,1745175668479768724
429475,21,20,-1,1434,1838,-7769,1745175668479768724
429667,12,27,-1,1400,1793,-7785,1745175668479768724
429859,4,36,-2,1377,1796,-7805,1745175668479768724
430051,-2,43,-2,1384,1845,-7807,1745175668479768724
430243,-5,46,1,1452,1917,-7794,1745175668479768724
430435,-3,45,5,1506,1991,-7775,1745175668479768724
430627,5,41,8,1531,2048,-7775,1745175668479768724
430819,13,35,8,1538,2034,-7759,1745175668479768724
431011,15,29,6,1521,1954,-7723,1745175668479768724
431203,17,24,6,1515,1917,-7717,1745175668529527905
431395,21,23,11,1477,1913,-7731,1745175668529527905
431587,23,24,13,1469,1916,-7762,1745175668529527905
431779,24,22,13,1448,1941,-7702,1745175668529527905
431971,29,21,13,1460,2001,-7675,1745175668529527905
432163,41,18,13,1507,2069,-7719,1745175668529527905
432355,55,12,14,1570,2059,-7752,1745175668529527905
432547,60,8,11,1596,2005,-7739,1745175668529527905
432739,66,5,5,1575,1994,-7754,1745175668529527905
432931,78,4,1,1542,2031,-7761,1745175668529527905
433123,87,2,-1,1516,2017,-7795,1745175668529527905
433315,82,-1,-8,1523,1968,-7773,1745175668529527905
433507,80,-1,-13,1538,1759,-7771,1745175668586853891
433699,76,6,-12,1492,1626,-7754,1745175668586853891
433891,63,14,-9,1462,1629,-7783,1745175668586853891
434083,49,18,-3,1483,1690,-7780,1745175668586853891
434275,36,17,0,1543,1722,-7805,1745175668586853891
434467,18,11,-2,1640,1713,-7813,1745175668586853891
434659,4,3,-7,1678,1692,-7787,1745175668586853891
434851,-9,-2,-10,1640,1716,-7751,1745175668586853891
435043,-17,-6,-10,1580,1772,-7741,1745175668586853891
435235,-18,-13,-8,1548,1832,-7753,1745175668586853891
435427,-15,-22,-2,1616,1849,-7761,1745175668586853891
435619,-12,-33,3,1645,1870,-7779,1745175668586853891
435811,-12,-41,3,1633,1856,-7787,1745175668648445985
436003,-10,-46,0,1591,1896,-7811,1745175668648445985
436195,-9,-50,-5,1533,1855,-7826,1745175668648445985
436387,-9,-49,-7,1498,1829,-7834,1745175668648445985
436579,-14,-47,-8,1446,1788,-7834,1745175668648445985
436771,-22,-43,-8,1414,1773,-7818,1745175668648445985
436963,-32,-37,-9,1412,1766,-7827,1745175668648445985
437155,-42,-29,-11,1385,1788,-7841,1745175668648445985
437347,-51,-21,-12,1383,1820,-7843,1745175668648445985
437539,-55,-14,-13,1366,1864,-7825,1745175668648445985
437731,-53,-9,-11,1376,1919,-7819,1745175668648445985
437923,-46,-6,-7,1410,1956,-7831,1745175668648445985
438115,-34,-4,-5,1451,2021,-7837,1745175668708033722
438307,-16,-5,-2,1493,2073,-7810,1745175668708033722
438499,7,-8,1,1493,2096,-7832,1745175668708033722
438691,27,-9,1,1465,2074,-7824,1745175668708033722
438883,43,-9,3,1442,2038,-7807,1745175668708033722
439075,57,-9,3,1458,2015,-7799,1745175668708033722
439267,72,-10,3,1468,2012,-7806,1745175668708033722
439459,86,-8,3,1459,2020,-7804,1745175668708033722
439651,100,-9,3,1481,2015,-7791,1745175668708033722
439843,115,-13,2,1520,2002,-7794,1745175668708033722
440035,127,-18,-1,1525,1957,-7800,1745175668708033722
440227,134,-19,-6,1488,1899,-7811,1745175668708033722
440419,137,-17,-8,1464,1837,-7803,1745175668767762499
440611,135,-13,-6,1433,1766,-7807,1745175668767762499
440803,133,-8,-4,1400,1723,-7810,1745175668767762499
440995,129,0,-7,1415,1697,-7816,1745175668767762499
441187,119,6,-8,1427,1646,-7799,1745175668767762499
441379,105,13,-9,1414,1603,-7795,1745175668767762499
441571,91,20,-11,1420,1607,-7804,1745175668767762499
441763,77,25,-13,1446,1616,-7802,1745175668767762499
441955,63,28,-13,1453,1626,-7816,1745175668767762499
442147,50,32,-14,1457,1618,-7806,1745175668767762499
442339,38,34,-15,1467,1664,-7792,1745175668767762499
442531,33,31,-15,1537,1762,-7785,1745175668767762499
442723,35,26,-11,1581,1844,-7783,1745175668824021412
442915,39,16,-9,1615,1898,-7791,1745175668824021412
443107,46,6,-9,1613,1895,-7787,1745175668824021412
443299,52,-1,-11,1570,1885,-7782,1745175668824021412
443491,59,-8,-12,1566,1833,-7780,1745175668824021412
443683,63,-15,-9,1541,1838,-7802,1745175668824021412
443875,68,-19,-7,1509,1842,-7813,1745175668824021412
444067,74,-18,-8,1446,1840,-7816,1745175668824021412
444259,79,-16,-9,1422,1829,-7809,1745175668824021412
444451,81,-15,-11,1417,1789,-7803,1745175668824021412
444643,83,-14,-9,1434,1773,-7797,1745175668824021412
444835,84,-14,-4,1433,1754,-7807,1745175668824021412
445027,84,-15,2,1476,1756,-7820,1745175668891205799
445219,82,-14,5,1449,1696,-7842,1745175668891205799
445411,73,-13,5,1429,1643,-7805,1745175668891205799
445603,63,-11,5,1455,1594,-7804,1745175668891205799
445795,54,-11,7,1449,1588,-7829,1745175668891205799
445987,47,-8,7,1449,1622,-7834,1745175668891205799
446179,39,-5,6,1430,1616,-7822,1745175668891205799
446371,30,-6,2,1478,1596,-7833,1745175668891205799
446563,21,-14,0,1567,1604,-7791,1745175668891205799
446755,13,-25,0,1647,1633,-7770,1745175668891205799
446947,8,-34,2,1649,1650,-7800,1745175668891205799
447139,2,-40,1,1584,1659,-7813,1745175668891205799
447331,4,-39,-2,1460,1767,-7825,1745175668940231809
447523,12,-43,-6,1460,1782,-7809,1745175668940231809
447715,9,-47,-8,1517,1448,-7888,1745175668940231809
447907,-82,-42,-25,1312,385,-7784,1745175668940231809
448099,-163,6,-25,1004,793,-7701,1745175668940231809
448291,-163,30,8,921,1437,-7784,1745175668940231809
448483,-149,56,36,1134,1907,-7924,1745175668940231809
448675,-157,52,28,1457,2105,-7907,1745175668940231809
448867,-142,39,1,1721,2145,-7835,1745175668940231809
449059,-113,22,-19,1823,2144,-7769,1745175668940231809
449251,-81,7,-19,1776,2129,-7767,1745175668940231809
449443,-59,-11,-8,1621,2105,-7769,1745175668940231809
449635,-41,-22,3,1451,2038,-7797,1745175669007596610
449827,-22,-24,7,1349,1960,-7798,1745175669007596610
450019,-7,-18,5,1303,1874,-7803,1745175669007596610
450211,-1,-8,3,1343,1784,-7816,1745175669007596610
450403,-1,-1,2,1381,1721,-7811,1745175669007596610
450595,-2,3,0,1436,1689,-7812,1745175669007596610
450787,-6,6,-4,1457,1684,-7817,1745175669007596610
450979,-10,8,-7,1476,1689,-7814,1745175669007596610
451171,-14,10,-8,1497,1716,-7803,1745175669007596610
451363,-16,11,-5,1503,1710,-7807,1745175669007596610
451555,-18,12,-1,1509,1741,-7803,1745175669007596610
451747,-19,11,2,1513,1731,-7810,1745175669007596610
451939,-19,10,3,1525,1728,-7802,1745175669074188762
452131,-21,7,-1,1520,1715,-7816,1745175669074188762
452323,-23,8,-8,1510,1708,-7810,1745175669074188762
452515,-24,9,-15,1493,1705,-7803,1745175669074188762
452707,-29,9,-19,1481,1697,-7797,1745175669074188762
452899,-33,10,-21,1465,1710,-7804,1745175669074188762
453091,-36,10,-22,1450,1717,-7799,1745175669074188762
453283,-40,11,-22,1457,1718,-7801,1745175669074188762
453475,-44,12,-22,1455,1730,-7811,1745175669074188762
453667,-50,12,-25,1458,1754,-7806,1745175669074188762
453859,-54,10,-29,1420,1755,-7800,1745175669074188762
454051,-52,8,-29,1403,1763,-7826,1745175669074188762
454243,-51,11,-30,1373,1784,-7847,1745175669114001420
454435,-50,16,-30,1355,1811,-7846,1745175669114001420
454627,-47,20,-32,1355,1829,-7849,1745175669114001420
454819,-41,23,-33,1363,1827,-7810,1745175669114001420
455011,-35,25,-34,1367,1825,-7807,1745175669114001420
455203,-30,27,-34,1388,1815,-7801,1745175669114001420
455395,-28,30,-34,1391,1805,-7810,1745175669114001420
455587,-27,31,-35,1390,1784,-7829,1745175669114001420
455779,-25,32,-36,1389,1788,-7833,1745175669114001420
455971,-26,34,-40,1382,1751,-7844,1745175669114001420
456163,-29,35,-42,1372,1721,-7826,1745175669114001420
456355,-34,36,-43,1361,1708,-7835,1745175669114001420
456547,-42,39,-43,1330,1684,-7843,1745175669174519565
456739,-52,43,-42,1305,1676,-7840,1745175669174519565
456931,-61,48,-40,1300,1689,-7839,1745175669174519565
457123,-69,52,-38,1308,1697,-7841,1745175669174519565
457315,-76,58,-36,1314,1725,-7830,1745175669174519565
457507,-79,64,-35,1350,1769,-7836,1745175669174519565
457699,-78,69,-34,1378,1815,-7838,1745175669174519565
457891,-75,71,-35,1419,1881,-7817,1745175669174519565
458083,-70,72,-36,1458,1922,-7793,1745175669174519565
458275,-61,71,-38,1501,1939,-7771,1745175669174519565
458467,-52,66,-39,1534,1938,-7747,1745175669174519565
458659,-46,60,-39,1556,1953,-7729,1745175669174519565
458851,-39,55,-39,1541,1949,-7736,1745175669230507491
459043,-34,50,-38,1526,1932,-7739,1745175669230507491
459235,-31,46,-38,1506,1930,-7757,1745175669230507491
459427,-27,45,-37,1465,1927,-7782,1745175669230507491
459619,-22,46,-35,1444,1958,-7809,1745175669230507491
459811,-17,47,-33,1417,1948,-7806,1745175669230507491
460003,-13,47,-28,1425,1958,-7795,1745175669230507491
460195,-9,46,-23,1443,1932,-7773,1745175669230507491
460387,-6,45,-17,1473,1930,-7782,1745175669230507491
460579,-4,42,-10,1471,1928,-7740,1745175669230507491
460771,-2,38,-2,1478,1927,-7747,1745175669230507491
460963,0,35,5,1517,1940,-7735,1745175669230507491
461155,2,33,10,1534,1904,-7751,1745175669357223417
461347,4,31,13,1574,1934,-7733,1745175669357223417
461539,4,27,19,1593,1943,-7738,1745175669357223417
461731,7,23,23,1601,1955,-7733,1745175669357223417
461923,12,18,25,1608,1977,-7725,1745175669357223417
462115,20,15,26,1599,1999,-7720,1745175669357223417
462307,30,13,28,1602,2036,-7712,1745175669357223417
462499,42,10,28,1619,2011,-7730,1745175669357223417
462691,53,6,30,1654,2018,-7713,1745175669357223417
462883,65,1,30,1659,1979,-7713,1745175669357223417
463075,74,-5,32,1668,1952,-7728,1745175669357223417
463267,81,-12,34,1666,1904,-7740,1745175669357223417
463459,87,-17,34,1618,1898,-7753,1745175669377954321
463651,91,-20,34,1583,1881,-7749,1745175669377954321
463843,93,-22,35,1545,1828,-7759,1745175669377954321
464035,92,-25,36,1538,1783,-7756,1745175669377954321
464227,90,-27,39,1519,1749,-7752,1745175669377954321
464419,85,-29,44,1519,1737,-7758,1745175669377954321
464611,79,-29,49,1503,1741,-7773,1745175669377954321
464803,74,-30,53,1481,1764,-7761,1745175669377954321
464995,71,-31,56,1463,1800,-7778,1745175669377954321
465187,68,-32,59,1440,1845,-7802,1745175669377954321
465379,70,-34,63,1426,1865,-7826,1745175669377954321
465571,72,-33,68,1409,1878,-7827,1745175669377954321
465763,77,-33,73,1403,1876,-7822,1745175669403053779
465955,83,-31,81,1402,1882,-7805,1745175669403053779
466147,90,-29,89,1396,1904,-7815,1745175669403053779
466339,95,-27,97,1411,1903,-7806,1745175669403053779
466531,101,-27,103,1424,1886,-7814,1745175669403053779
466723,107,-27,109,1420,1888,-7827,1745175669403053779
466915,114,-26,113,1422,1882,-7824,1745175669403053779
467107,124,-23,113,1428,1882,-7833,1745175669403053779
467299,133,-21,114,1436,1873,-7847,1745175669403053779
467491,142,-17,114,1458,1847,-7837,1745175669403053779
467683,153,-17,112,1486,1803,-7861,1745175669403053779
467875,149,-22,102,1476,1740,-7858,1745175669403053779
468067,140,-26,91,1528,1651,-7820,1745175669466633198
468259,148,-22,90,1586,1575,-7806,1745175669466633198
468451,158,-14,96,1637,1557,-7758,1745175669466633198
468643,158,-15,101,1692,1514,-7782,1745175669466633198
468835,153,-20,100,1729,1473,-7814,1745175669466633198
469027,147,-24,93,1709,1424,-7815,1745175669466633198
469219,141,-25,84,1680,1389,-7814,1745175669466633198
469411,132,-22,77,1657,1363,-7829,1745175669466633198
469603,121,-18,71,1624,1365,-7849,1745175669466633198
469795,107,-14,65,1605,1383,-7853,1745175669466633198
469987,93,-11,60,1603,1388,-7831,1745175669466633198
470179,81,-10,55,1610,1421,-7805,1745175669466633198
470371,69,-11,52,1610,1466,-7823,1745175669520539893
470563,61,-11,49,1589,1525,-7812,1745175669520539893
470755,56,-10,46,1547,1586,-7794,1745175669520539893
470947,57,-10,45,1520,1659,-7856,1745175669520539893
471139,61,-10,44,1497,1693,-7867,1745175669520539893
471331,67,-10,42,1472,1695,-7861,1745175669520539893
471523,76,-11,41,1474,1657,-7849,1745175669520539893
471715,83,-10,40,1459,1617,-7886,1745175669520539893
471907,87,-10,41,1432,1578,-7912,1745175669520539893
472099,91,-7,41,1385,1521,-7934,1745175669520539893
472291,91,-3,39,1392,1453,-7916,1745175669520539893
472483,90,2,36,1411,1367,-7915,1745175669520539893
472675,82,7,34,1465,1293,-7902,1745175669590273058
472867,71,14,34,1515,1265,-7871,1745175669590273058
473059,57,22,32,1557,1254,-7873,1745175669590273058
473251,42,30,29,1588,1295,-7862,1745175669590273058
473443,29,35,26,1602,1352,-7829,1745175669590273058
473635,19,35,23,1601,1412,-7810,1745175669590273058
473827,15,32,22,1633,1478,-7805,1745175669590273058
474019,17,26,23,1621,1552,-7815,1745175669590273058
474211,21,23,22,1606,1592,-7799,1745175669590273058
474403,27,18,21,1593,1614,-7786,1745175669590273058
474595,33,12,19,1584,1631,-7785,1745175669590273058
474787,40,5,18,1552,1651,-7794,1745175669590273058
474979,47,-1,17,1538,1661,-7811,1745175669639882449
475171,55,-8,16,1495,1657,-7825,1745175669639882449
475363,62,-12,12,1476,1624,-7851,1745175669639882449
475555,68,-17,7,1479,1596,-7842,1745175669639882449
475747,71,-22,3,1465,1540,-7826,1745175669639882449
475939,72,-26,1,1483,1490,-7839,1745175669639882449
476131,73,-28,0,1487,1463,-7855,1745175669639882449
476323,71,-29,1,1519,1433,-7848,1745175669639882449
476515,67,-29,0,1554,1402,-7822,1745175669639882449
476707,61,-32,-3,1591,1400,-7802,1745175669639882449
476899,54,-36,-5,1605,1385,-7806,1745175669639882449
477091,46,-39,-7,1586,1407,-7831,1745175669639882449
477283,41,-42,-11,1568,1449,-7834,1745175669709345200
477475,40,-45,-15,1559,1450,-7837,1745175669709345200
477667,41,-50,-18,1531,1443,-7842,1745175669709345200
477859,40,-55,-24,1520,1409,-7843,1745175669709345200
478051,38,-59,-28,1513,1393,-7857,1745175669709345200
478243,38,-61,-31,1466,1394,-7853,1745175669709345200
478435,38,-62,-34,1436,1400,-7865,1745175669709345200
478627,37,-63,-38,1414,1420,-7862,1745175669709345200
478819,35,-62,-42,1420,1419,-7850,1745175669709345200
479011,33,-63,-46,1465,1405,-7871,1745175669709345200
479203,31,-66,-49,1456,1403,-7870,1745175669709345200
479395,30,-68,-50,1438,1425,-7860,1745175669709345200
479587,29,-70,-53,1452,1345,-7867,1745175669761747221
479779,40,-64,-73,1627,1007,-7782,1745175669761747221
479971,75,-48,-111,1407,1114,-7810,1745175669761747221
480163,80,-41,-111,1211,1370,-7876,1745175669761747221
480355,43,-30,-92,728,960,-7218,1745175669761747221
480547,-104,-11,-73,-408,-1556,-6341,1745175669761747221
480739,-469,130,-59,298,-2369,-10053,1745175669761747221
480931,-531,176,-10,698,1387,-7871,1745175669761747221
481123,-461,282,-17,731,2622,-7865,1745175669761747221
481315,-500,322,-108,949,2445,-8164,1745175669761747221
481507,-510,258,-163,1510,2376,-7937,1745175669761747221
481699,-428,169,-152,1857,2469,-7638,1745175669761747221
483043,70,17,-9,1824,2462,-7681,1745175673174980729
612835,-28,14,2,1628,1088,-7593,1745175673174980729
613027,30,-70,1,1831,1045,-7866,1745175673174980729
613219,21,-59,1,1741,1066,-7841,1745175673174980729
613411,2,-31,11,1717,1049,-7884,1745175673174980729
613603,10,-53,15,1652,1114,-7841,1745175673174980729
613795,-10,-46,15,1620,1141,-7869,1745175673174980729
613987,-15,-42,11,1664,1024,-7883,1745175673174980729
614179,-34,-49,5,1620,916,-7911,1745175673174980729
614371,-67,-28,3,1558,933,-7890,1745175673174980729
614563,-79,-18,3,1447,987,-7844,1745175673174980729
614755,-93,-13,8,1394,1077,-7867,1745175673174980729
614947,-133,0,3,1395,1191,-7937,1745175673196032672
615139,-202,25,-10,1539,1148,-7921,1745175673196032672
615331,-206,25,-11,1534,1102,-7924,1745175673196032672
615523,-184,28,-10,1650,1055,-8000,1745175673196032672
615715,-200,35,-15,1835,985,-8170,1745175673196032672
615907,-221,49,-17,1820,1060,-8114,1745175673196032672
616099,-215,62,-13,1803,1244,-8126,1745175673196032672
616291,-184,65,-7,1875,1447,-8159,1745175673196032672
616483,-139,57,2,1854,1509,-8147,1745175673196032672
616675,-103,43,7,1747,1402,-8103,1745175673196032672
616867,-77,40,14,1601,1395,-8025,1745175673196032672
617059,-48,46,30,1468,1473,-7949,1745175673196032672
617251,-14,50,52,1436,1642,-7956,1745175673259700319
617443,31,54,74,1466,1933,-7941,1745175673259700319
617635,95,51,89,1534,2163,-7938,1745175673259700319
617827,169,43,95,1618,2288,-7944,1745175673259700319
618019,260,36,102,1699,2322,-7893,1745175673259700319
618211,366,20,112,1768,2332,-7934,1745175673259700319
618403,416,1,113,1779,1832,-8012,1745175673259700319
618595,498,-10,123,1820,2666,-7805,1745175673259700319
618787,638,-52,120,1979,2555,-8045,1745175673259700319
618979,739,-102,107,2283,1998,-7993,1745175673259700319
619171,780,-142,68,2334,1407,-7705,1745175673259700319
619363,756,-173,20,2514,59,-8063,1745175673259700319
619555,224,-231,-98,2947,-6255,-7620,1745175673316379854
619747,-436,-92,-180,824,-4647,-6155,1745175673316379854
619939,-668,41,-113,-144,-2419,-7422,1745175673316379854
620131,-661,79,-42,-315,-90,-7755,1745175673316379854
620323,-618,177,-19,-72,1848,-7857,1745175673316379854
620515,-602,253,-27,772,3046,-7861,1745175673316379854
620707,-533,255,-69,2067,3488,-7827,1745175673316379854
620899,-400,176,-140,2985,3466,-7714,1745175673316379854
621091,-236,56,-172,3406,3447,-7594,1745175673316379854
621283,-71,-56,-189,3586,3600,-7433,1745175673316379854
621475,84,-155,-228,3392,3673,-7392,1745175673316379854
621667,226,-263,-269,3071,3489,-7513,1745175673316379854
621859,347,-388,-291,2708,2961,-7553,1745175673376642376
622051,436,-485,-287,2295,2325,-7614,1745175673376642376
622243,485,-530,-261,1855,1733,-7727,1745175673376642376
622435,503,-523,-229,1400,1278,-7821,1745175673376642376
622627,499,-475,-194,987,656,-7937,1745175673376642376
622819,472,-416,-126,681,-101,-8045,1745175673376642376
623011,407,-380,-32,738,-734,-8015,1745175673376642376
623203,307,-337,44,1009,-1147,-7991,1745175673376642376
623395,159,-300,93,1199,-1200,-8038,1745175673376642376
623587,3,-269,112,1294,-1132,-8052,1745175673376642376
623779,-150,-253,138,1361,-1040,-8002,1745175673376642376
623971,-298,-246,183,1459,-885,-8006,1745175673376642376
624163,-430,-239,225,1481,-597,-8021,1745175673437976816
624355,-528,-230,230,1349,-69,-8021,1745175673437976816
624547,-586,-203,184,1093,563,-7990,1745175673437976816
624739,-601,-161,107,885,1113,-7959,1745175673437976816
624931,-581,-119,27,820,1539,-8012,1745175673437976816
625123,-542,-92,-33,923,1830,-8027,1745175673437976816
625315,-494,-90,-67,1113,2013,-8002,1745175673437976816
625507,-441,-106,-81,1260,2153,-7903,1745175673437976816
625699,-388,-120,-79,1309,2272,-7795,1745175673437976816
625891,-330,-129,-66,1256,2347,-7776,1745175673437976816
626083,-267,-134,-52,1164,2412,-7799,1745175673437976816
626275,-203,-133,-42,1099,2386,-7850,1745175673437976816
626467,-143,-130,-37,1025,2273,-7885,1745175673495091659
626659,-88,-123,-29,1022,2099,-7916,1745175673495091659
626851,-46,-115,-19,1053,1875,-7920,1745175673495091659
627043,-17,-107,-10,1092,1631,-7926,1745175673495091659
627235,-4,-99,-5,1126,1424,-7960,1745175673495091659
627427,-6,-88,-5,1090,1268,-7971,1745175673495091659
627619,-14,-73,-11,1023,1201,-7971,1745175673495091659
627811,-25,-52,-21,978,1120,-8018,1745175673495091659
628003,-37,-32,-31,974,1082,-8053,1745175673495091659
628195,-53,-12,-40,1008,1030,-8056,1745175673495091659
628387,-72,6,-45,1076,1008,-8060,1745175673495091659
628579,-92,20,-50,1150,980,-8037,1745175673495091659
628771,-113,33,-52,1198,984,-8032,1745175673551328072
628963,-130,42,-52,1205,1013,-8020,1745175673551328072
629155,-144,50,-50,1233,1057,-7996,1745175673551328072
629347,-158,55,-51,1217,1106,-7995,1745175673551328072
629539,-171,61,-53,1223,1155,-7977,1745175673551328072
629731,-181,66,-55,1236,1209,-7945,1745175673551328072
629923,-188,71,-55,1263,1267,-7924,1745175673551328072
630115,-194,72,-57,1288,1337,-7918,1745175673551328072
630307,-198,73,-58,1262,1414,-7904,1745175673551328072
630499,-199,75,-58,1289,1494,-7916,1745175673551328072
630691,-194,76,-59,1282,1584,-7908,1745175673551328072
630883,-184,76,-57,1282,1650,-7873,1745175673551328072
631075,-172,75,-55,1334,1698,-7859,1745175673609496082
631267,-159,72,-54,1359,1730,-7855,1745175673609496082
631459,-146,70,-54,1373,1765,-7849,1745175673609496082
631651,-132,67,-55,1400,1769,-7842,1745175673609496082
631843,-119,65,-54,1393,1769,-7825,1745175673609496082
632035,-106,62,-52,1414,1756,-7830,1745175673609496082
632227,-94,60,-47,1417,1730,-7834,1745175673609496082
632419,-83,58,-40,1427,1723,-7824,1745175673609496082
632611,-75,55,-34,1421,1700,-7823,1745175673609496082
632803,-68,52,-27,1432,1697,-7814,1745175673609496082
632995,-60,49,-18,1447,1709,-7803,1745175673609496082
633187,-51,46,-11,1439,1701,-7802,1745175673609496082
633379,-45,43,-4,1432,1708,-7796,1745175673668854394
633571,-38,39,4,1429,1711,-7816,1745175673668854394
633763,-31,35,11,1420,1717,-7807,1745175673668854394
633955,-26,30,18,1422,1707,-7825,1745175673668854394
634147,-20,26,24,1408,1687,-7826,1745175673668854394
634339,-14,22,28,1392,1667,-7833,1745175673668854394
634531,-10,20,32,1401,1641,-7850,1745175673668854394
634723,-7,17,37,1395,1627,-7862,1745175673668854394
634915,-7,16,40,1384,1590,-7857,1745175673668854394
635107,-7,15,44,1378,1562,-7820,1745175673668854394
635299,-9,14,48,1389,1551,-7824,1745175673668854394
635491,-12,11,54,1387,1542,-7820,1745175673668854394
635683,-16,8,60,1385,1547,-7829,1745175673785452861
635875,-21,6,64,1396,1553,-7850,1745175673785452861
636067,-24,5,67,1403,1565,-7849,1745175673785452861
636259,-26,4,70,1400,1601,-7851,1745175673785452861
636451,-26,1,72,1422,1586,-7834,1745175673785452861
636643,-25,-2,75,1428,1591,-7826,1745175673785452861
636835,-23,-6,77,1444,1614,-7822,1745175673785452861
637027,-19,-11,79,1434,1628,-7816,1745175673785452861
637219,-15,-14,80,1415,1636,-7802,1745175673785452861
637411,-10,-17,83,1393,1658,-7834,1745175673785452861
637603,-5,-20,85,1395,1656,-7849,1745175673785452861
637795,3,-23,86,1396,1647,-7826,1745175673785452861
637987,9,-26,86,1392,1634,-7842,1745175673792718315
638179,16,-28,86,1394,1621,-7835,1745175673792718315
638371,22,-31,86,1377,1627,-7839,1745175673792718315
638563,27,-32,87,1374,1603,-7852,1745175673792718315
638755,31,-34,87,1371,1590,-7870,1745175673792718315
638947,36,-34,86,1350,1563,-7870,1745175673792718315
639139,38,-33,83,1349,1535,-7878,1745175673792718315
639331,39,-31,81,1337,1489,-7892,1745175673792718315
639523,38,-29,77,1334,1458,-7913,1745175673792718315
639715,36,-25,76,1317,1441,-7920,1745175673792718315
639907,32,-22,74,1306,1414,-7911,1745175673792718315
640099,25,-18,73,1308,1397,-7905,1745175673792718315
640291,19,-15,72,1309,1380,-7910,1745175673845516739
640483,11,-12,71,1303,1370,-7916,1745175673845516739
640675,-3,-10,65,1282,1350,-7939,1745175673845516739
640867,-48,-4,49,1268,1312,-7885,1745175673845516739
641059,-66,-2,42,1263,1308,-7881,1745175673845516739
641251,-46,3,46,1277,1381,-7884,1745175673845516739
641443,-35,14,50,1303,1468,-7926,1745175673845516739
641635,-37,19,49,1326,1511,-7957,1745175673845516739
641827,-40,19,42,1324,1506,-7930,1745175673845516739
642019,-38,22,35,1334,1505,-7903,1745175673845516739
642211,-32,26,33,1312,1487,-7906,1745175673845516739
642403,-27,32,33,1315,1495,-7916,1745175673845516739
642595,-27,37,35,1303,1463,-7918,1745175673908224291
642787,-27,41,32,1307,1463,-7914,1745175673908224291
642979,-27,46,27,1307,1426,-7910,1745175673908224291
643171,-29,51,23,1320,1420,-7894,1745175673908224291
643363,-34,57,19,1346,1415,-7880,1745175673908224291
643555,-40,61,16,1341,1430,-7891,1745175673908224291
643747,-45,64,13,1356,1453,-7905,1745175673908224291
643939,-50,67,10,1351,1462,-7893,1745175673908224291
644131,-54,71,5,1358,1472,-7883,1745175673908224291
644323,-55,73,2,1367,1475,-7887,1745175673908224291
644515,-58,75,-2,1361,1484,-7886,1745175673908224291
644707,-61,80,-6,1376,1491,-7875,1745175673908224291
644899,-63,82,-11,1391,1507,-7870,1745175673958892891
645091,-65,85,-14,1402,1513,-7871,1745175673958892891
645283,-67,87,-17,1427,1537,-7865,1745175673958892891
645475,-68,90,-19,1418,1541,-7861,1745175673958892891
645667,-69,91,-21,1440,1550,-7851,1745175673958892891
645859,-69,94,-23,1452,1563,-7849,1745175673958892891
646051,-70,94,-25,1485,1549,-7848,1745175673958892891
646243,-72,93,-27,1493,1539,-7856,1745175673958892891
646435,-74,92,-28,1505,1544,-7837,1745175673958892891
646627,-78,93,-26,1523,1579,-7816,1745175673958892891
646819,-80,90,-26,1523,1585,-7804,1745175673958892891
647011,-81,86,-27,1531,1596,-7802,1745175673958892891
647203,-79,82,-26,1537,1614,-7811,1745175674019194840
647395,-77,79,-25,1542,1643,-7793,1745175674019194840
647587,-72,74,-23,1547,1667,-7772,1745175674019194840
647779,-66,69,-21,1549,1673,-7780,1745175674019194840
647971,-60,63,-19,1546,1688,-7776,1745175674019194840
648163,-52,58,-15,1539,1689,-7776,1745175674019194840
648355,-45,51,-11,1523,1711,-7770,1745175674019194840
648547,-39,45,-8,1535,1711,-7791,1745175674019194840
648739,-33,39,-4,1507,1713,-7804,1745175674019194840
648931,-27,34,-1,1496,1731,-7799,1745175674019194840
649123,-20,29,3,1506,1723,-7793,1745175674019194840
649315,-13,24,7,1497,1725,-7796,1745175674019194840
649507,-5,21,10,1482,1729,-7780,1745175674077544984
649699,0,17,14,1472,1735,-7794,1745175674077544984
649891,5,13,17,1480,1728,-7805,1745175674077544984
650083,11,10,21,1464,1710,-7813,1745175674077544984
650275,15,4,24,1473,1695,-7817,1745175674077544984
650467,17,1,27,1472,1689,-7805,1745175674077544984
650659,20,-1,30,1477,1676,-7808,1745175674077544984
650851,22,-4,32,1476,1656,-7805,1745175674077544984
651043,21,-8,34,1460,1658,-7815,1745175674077544984
651235,22,-10,35,1468,1632,-7826,1745175674077544984
651427,23,-13,36,1476,1625,-7821,1745175674077544984
651619,23,-16,39,1488,1587,-7820,1745175674077544984
651811,23,-18,39,1488,1579,-7837,1745175674134431652
652003,21,-20,39,1477,1552,-7842,1745175674134431652
652195,20,-21,39,1486,1553,-7841,1745175674134431652
652387,20,-22,38,1482,1561,-7825,1745175674134431652
652579,19,-23,37,1469,1523,-7842,1745175674134431652
652771,17,-24,36,1497,1542,-7846,1745175674134431652
652963,16,-24,35,1483,1529,-7842,1745175674134431652
653155,15,-25,34,1463,1519,-7835,1745175674134431652
653347,15,-25,32,1466,1526,-7836,1745175674134431652
653539,13,-24,30,1452,1537,-7838,1745175674134431652
653731,12,-23,28,1459,1527,-7842,1745175674134431652
653923,11,-22,26,1454,1531,-7844,1745175674134431652
654115,8,-22,23,1462,1536,-7861,1745175674193885171
654307,5,-22,21,1449,1526,-7857,1745175674193885171
654499,2,-20,19,1428,1531,-7860,1745175674193885171
654691,-1,-19,17,1428,1533,-7871,1745175674193885171
654883,-4,-18,15,1417,1520,-7862,1745175674193885171
655075,-8,-17,15,1378,1545,-7857,1745175674193885171
655267,-11,-14,14,1384,1547,-7866,1745175674193885171
655459,-11,-11,15,1364,1552,-7873,1745175674193885171
655651,-11,-8,14,1365,1586,-7873,1745175674193885171
655843,-10,-3,13,1392,1586,-7888,1745175674193885171
656035,-8,-1,11,1384,1584,-7873,1745175674193885171
656227,-8,1,10,1404,1587,-7885,1745175674193885171
656419,-7,2,9,1424,1589,-7876,1745175674253599157
656611,-6,4,10,1421,1577,-7874,1745175674253599157
656803,-6,6,8,1410,1557,-7869,1745175674253599157
656995,-6,8,6,1414,1541,-7866,1745175674253599157
657187,-8,11,5,1422,1523,-7866,1745175674253599157
657379,-11,14,3,1443,1501,-7864,1745175674253599157
657571,-14,16,3,1429,1489,-7865,1745175674253599157
657763,-19,18,2,1451,1480,-7863,1745175674253599157
657955,-24,21,0,1441,1495,-7864,1745175674253599157
658147,-29,25,-1,1438,1495,-7876,1745175674253599157
658339,-34,27,-3,1441,1509,-7867,1745175674253599157
658531,-36,30,-5,1448,1540,-7857,1745175674253599157
658723,-39,32,-6,1445,1554,-7851,1745175674321703535
658915,-40,34,-8,1451,1565,-7845,1745175674321703535
659107,-41,36,-9,1462,1584,-7838,1745175674321703535
659299,-39,38,-12,1464,1595,-7847,1745175674321703535
659491,-39,38,-15,1459,1607,-7842,1745175674321703535
659683,-38,39,-18,1452,1603,-7852,1745175674321703535
659875,-38,41,-20,1433,1599,-7847,1745175674321703535
660067,-37,42,-22,1446,1590,-7860,1745175674321703535
660259,-39,45,-24,1446,1567,-7857,1745175674321703535
660451,-41,47,-25,1452,1576,-7858,1745175674321703535
660643,-43,48,-27,1443,1580,-7839,1745175674321703535
660835,-45,52,-27,1456,1563,-7840,1745175674321703535
661027,-47,55,-26,1465,1569,-7858,1745175674368073528
661219,-48,57,-27,1475,1590,-7866,1745175674368073528
661411,-48,60,-29,1477,1596,-7864,1745175674368073528
661603,-48,62,-30,1492,1616,-7828,1745175674368073528
661795,-48,63,-30,1514,1633,-7828,1745175674368073528
661987,-46,64,-29,1518,1642,-7837,1745175674368073528
662179,-44,64,-29,1523,1647,-7843,1745175674368073528
662371,-40,64,-31,1525,1661,-7834,1745175674368073528
662563,-36,65,-33,1535,1668,-7823,1745175674368073528
662755,-30,65,-35,1513,1657,-7805,1745175674368073528
662947,-25,65,-34,1528,1664,-7809,1745175674368073528
663139,-21,65,-34,1535,1658,-7815,1745175674368073528
663331,-17,66,-34,1531,1657,-7813,1745175674428754328
663523,-14,65,-33,1530,1672,-7826,1745175674428754328
663715,-11,67,-35,1531,1650,-7829,1745175674428754328
663907,-9,66,-36,1543,1652,-7831,1745175674428754328
664099,-7,67,-37,1539,1612,-7841,1745175674428754328
664291,-8,68,-39,1538,1586,-7837,1745175674428754328
664483,-11,68,-39,1524,1577,-7826,1745175674428754328
664675,-14,70,-40,1517,1559,-7816,1745175674428754328
664867,-18,71,-40,1496,1555,-7822,1745175674428754328
665059,-23,73,-38,1489,1565,-7839,1745175674428754328
665251,-30,75,-38,1498,1564,-7826,1745175674428754328
665443,-35,76,-37,1525,1584,-7825,1745175674428754328
665635,-39,78,-35,1544,1601,-7825,1745175674483770804
665827,-42,78,-34,1536,1636,-7834,1745175674483770804
666019,-42,78,-32,1557,1658,-7823,1745175674483770804
666211,-41,78,-32,1557,1672,-7824,1745175674483770804
666403,-40,78,-30,1550,1689,-7819,1745175674483770804
666595,-37,78,-30,1539,1694,-7818,1745175674483770804
666787,-32,79,-28,1541,1696,-7813,1745175674483770804
666979,-28,80,-27,1545,1695,-7804,1745175674483770804
667171,-24,79,-26,1556,1700,-7789,1745175674483770804
667363,-22,79,-25,1568,1696,-7798,1745175674483770804
667555,-21,79,-22,1584,1695,-7817,1745175674483770804
667747,-20,78,-20,1574,1682,-7813,1745175674483770804
667939,-20,78,-20,1578,1674,-7794,1745175674545573365
668131,-19,77,-19,1583,1678,-7794,1745175674545573365
668323,-18,78,-18,1589,1675,-7811,1745175674545573365
668515,-19,78,-17,1597,1676,-7810,1745175674545573365
668707,-21,79,-17,1591,1662,-7810,1745175674545573365
668899,-21,79,-17,1595,1645,-7818,1745175674545573365
669091,-24,80,-17,1599,1629,-7814,1745175674545573365
669283,-27,81,-16,1600,1606,-7825,1745175674545573365
669475,-32,83,-17,1583,1593,-7830,1745175674545573365
669667,-38,85,-17,1579,1593,-7839,1745175674545573365
669859,-42,89,-18,1581,1606,-7848,1745175674545573365
670051,-44,92,-19,1594,1603,-7840,1745175674545573365
670243,-46,94,-19,1622,1605,-7826,1745175674602403002
670435,-48,95,-19,1625,1600,-7822,1745175674602403002
670627,-50,95,-19,1643,1604,-7812,1745175674602403002
670819,-53,97,-20,1630,1605,-7829,1745175674602403002
671011,-58,98,-21,1618,1612,-7842,1745175674602403002
671203,-62,100,-22,1599,1617,-7840,1745175674602403002
