timestamp,gyr_x,gyr_y,gyr_z,acc_x,acc_y,acc_z,pkt_time_ns
54688,-198,-236,1,745,1408,-8526,1745154327399868863
54880,-163,-242,19,570,-370,-7694,1745154327399868863
55072,-129,-329,20,742,377,-8228,1745154327399868863
55264,-43,-341,30,405,607,-8089,1745154327399868863
55456,-13,-330,52,426,592,-8176,1745154327399868863
55648,1,-316,62,324,482,-8154,1745154327399868863
55840,26,-293,61,246,513,-8091,1745154327399868863
56032,24,-288,63,126,363,-8048,1745154327399868863
56224,16,-261,66,52,205,-8033,1745154327399868863
56416,23,-234,64,85,108,-8036,1745154327399868863
56608,18,-224,62,100,83,-8078,1745154327399868863
56800,18,-193,58,154,72,-8127,1745154327399868863
56992,22,-177,53,179,159,-8152,1745154327453191813
57184,24,-163,49,240,210,-8186,1745154327453191813
57376,30,-147,43,270,151,-8204,1745154327453191813
57568,26,-137,34,227,61,-8223,1745154327453191813
57760,15,-120,28,147,-25,-8263,1745154327453191813
57952,6,-98,25,81,-54,-8317,1745154327453191813
58144,-4,-77,21,54,-48,-8349,1745154327453191813
58336,-15,-53,18,65,-5,-8390,1745154327453191813
58528,-27,-32,15,85,49,-8427,1745154327453191813
58720,-40,-6,7,27,130,-8457,1745154327453191813
58912,-47,33,0,-46,280,-8532,1745154327453191813
59104,-35,73,-1,-33,493,-8658,1745154327453191813
59296,-17,101,2,123,527,-8760,1745154327526384686
59488,-6,111,3,321,487,-8798,1745154327526384686
59680,9,116,2,459,635,-8818,1745154327526384686
59872,42,114,5,559,756,-8531,1745154327526384686
60064,-37,127,-4,486,-533,-9971,1745154327526384686
60256,76,71,19,1479,1769,-8011,1745154327526384686
60448,182,-41,27,1251,1089,-8491,1745154327526384686
60640,165,-54,-11,1565,937,-9104,1745154327526384686
60832,248,-161,-68,1599,1107,-8217,1745154327526384686
61024,323,-212,-113,1568,1075,-8274,1745154327526384686
61216,489,-236,-158,1046,700,-8125,1745154327526384686
61408,445,-217,-230,-121,-333,-7785,1745154327526384686
61600,360,-103,-306,-608,-1082,-7981,1745154327570545897
61792,311,-89,-338,-700,-1573,-8223,1745154327570545897
61984,235,-48,-296,-697,-2064,-8043,1745154327570545897
62176,148,-12,-198,-609,-2533,-8375,1745154327570545897
62368,23,26,-122,-327,-2695,-8704,1745154327570545897
62560,-128,96,-82,-11,-2661,-8597,1745154327570545897
62752,-283,179,-78,350,-2487,-8463,1745154327570545897
62944,-442,241,-109,703,-2226,-8322,1745154327570545897
63136,-584,260,-179,1020,-1985,-8085,1745154327570545897
63328,-703,219,-286,1288,-1564,-8396,1745154327570545897
63520,-798,169,-350,1574,-1191,-8831,1745154327570545897
63712,-853,123,-406,1795,-795,-9106,1745154327570545897
63904,-889,61,-456,1951,-462,-9396,1745154327632133251
64096,-910,6,-482,1994,-229,-9584,1745154327632133251
64288,-907,-49,-484,1999,-133,-9659,1745154327632133251
64480,-862,-94,-489,2016,-16,-9833,1745154327632133251
64672,-792,-118,-512,1996,139,-9221,1745154327632133251
64864,-737,-141,-549,1945,219,-8981,1745154327632133251
65056,-713,-177,-583,1847,175,-9041,1745154327632133251
65248,-681,-211,-589,1736,159,-9577,1745154327632133251
65440,-660,-235,-546,1603,72,-9614,1745154327632133251
65632,-686,-269,-458,1567,-317,-9451,1745154327632133251
65824,-712,-323,-380,1583,-794,-9571,1745154327632133251
66016,-664,-365,-362,1553,-1065,-10123,1745154327632133251
66208,-596,-387,-390,1535,-1018,-10872,1745154327686877855
66400,-605,-419,-400,1591,-901,-11277,1745154327686877855
66592,-700,-484,-389,1755,-983,-11159,1745154327686877855
66784,-846,-567,-379,1871,-1481,-10792,1745154327686877855
66976,-1010,-649,-358,1855,-2385,-10703,1745154327686877855
67168,-1157,-735,-308,1918,-3100,-10494,1745154327686877855
67360,-1319,-773,-271,2166,-2887,-11170,1745154327686877855
67552,-1566,-787,-282,2536,-2104,-11665,1745154327686877855
67744,-1783,-851,-360,2738,-981,-12035,1745154327686877855
67936,-1903,-965,-475,2621,44,-11324,1745154327686877855
68128,-1924,-1099,-556,2342,469,-10139,1745154327686877855
68320,-1904,-1203,-554,2058,457,-10252,1745154327686877855
68512,-1896,-1250,-482,1862,469,-10410,1745154327747200794
68704,-1897,-1277,-416,1759,1001,-10672,1745154327747200794
68896,-1870,-1123,-116,2299,2657,-11044,1745154327747200794
69088,-1921,-992,405,3002,3548,-10202,1745154327747200794
69280,-1804,-1214,599,3417,3657,-9702,1745154327747200794
69472,-1414,-1552,449,3318,3402,-9618,1745154327747200794
69664,-1006,-1759,245,2712,2689,-9439,1745154327747200794
69856,-705,-1822,210,1930,1415,-9270,1745154327747200794
70048,-498,-1808,369,1278,-68,-9200,1745154327747200794
70240,-342,-1805,623,825,-1236,-9162,1745154327747200794
70432,-217,-1813,869,455,-1858,-9129,1745154327747200794
70624,-133,-1802,1055,185,-2074,-9145,1745154327747200794
70816,-85,-1759,1178,-41,-2114,-9094,1745154327800607754
71008,-43,-1681,1252,-205,-2142,-8951,1745154327800607754
71200,-3,-1585,1304,-298,-2236,-8790,1745154327800607754
71392,44,-1491,1351,-345,-2379,-8591,1745154327800607754
71584,99,-1405,1404,-347,-2553,-8457,1745154327800607754
71776,157,-1325,1464,-329,-2680,-8338,1745154327800607754
71968,209,-1249,1528,-281,-2775,-8220,1745154327800607754
72160,257,-1169,1589,-228,-2803,-8095,1745154327800607754
72352,303,-1097,1642,-150,-2819,-8013,1745154327800607754
72544,349,-1026,1680,-128,-2769,-7889,1745154327800607754
72736,399,-953,1713,-137,-2664,-7782,1745154327800607754
72928,442,-882,1748,-181,-2540,-7608,1745154327800607754
73120,491,-818,1790,-271,-2411,-7450,1745154327867252718
73312,561,-748,1844,-322,-2234,-7291,1745154327867252718
73504,658,-672,1910,-369,-2009,-7077,1745154327867252718
73696,781,-596,1985,-384,-1689,-6917,1745154327867252718
73888,917,-521,2070,-346,-1356,-6848,1745154327867252718
74080,1065,-451,2167,-297,-962,-6828,1745154327867252718
74272,1230,-408,2268,-233,-608,-6742,1745154327867252718
74464,1425,-347,2358,-182,-341,-6664,1745154327867252718
74656,1630,-284,2430,-133,-151,-6569,1745154327867252718
74848,1836,-222,2488,-102,-73,-6449,1745154327867252718
75040,2031,-146,2547,-42,-105,-6291,1745154327867252718
75232,2200,-77,2611,-15,-239,-6165,1745154327867252718
75424,2334,-5,2680,59,-411,-6113,1745154327928474086
75616,2432,66,2749,110,-575,-6091,1745154327928474086
75808,2497,135,2821,165,-744,-6110,1745154327928474086
76000,2525,213,2888,202,-839,-6197,1745154327928474086
76192,2511,287,2949,269,-876,-6309,1745154327928474086
76384,2461,368,3002,344,-863,-6488,1745154327928474086
76576,2377,450,3043,457,-736,-6663,1745154327928474086
76768,2272,533,3075,589,-587,-6830,1745154327928474086
76960,2171,628,3096,750,-392,-6924,1745154327928474086
77152,2072,715,3119,915,-196,-7103,1745154327928474086
77344,1942,767,3150,1106,-104,-7254,1745154327928474086
77536,1819,806,3185,1310,-29,-7355,1745154327928474086
77728,1725,845,3232,1444,-67,-7465,1745154327980481580
77920,1660,881,3288,1587,-112,-7589,1745154327980481580
78112,1620,900,3346,1728,-174,-7703,1745154327980481580
78304,1599,899,3388,1839,-202,-7747,1745154327980481580
78496,1596,898,3407,1909,-195,-7734,1745154327980481580
78688,1602,905,3397,1973,-110,-7780,1745154327980481580
78880,1608,918,3362,1982,21,-7898,1745154327980481580
79072,1612,939,3313,1998,213,-8039,1745154327980481580
79264,1617,968,3265,2028,486,-8121,1745154327980481580
79456,1622,995,3234,2092,758,-8145,1745154327980481580
79648,1625,1001,3218,2260,986,-8175,1745154327980481580
79840,1634,1011,3212,2389,1163,-8286,1745154327980481580
80032,1639,1019,3206,2502,1242,-8344,1745154328037032000
80224,1646,1006,3201,2605,1245,-8336,1745154328037032000
80416,1662,980,3216,2749,1262,-8264,1745154328037032000
80608,1681,944,3252,2839,1142,-8190,1745154328037032000
80800,1685,925,3281,2877,971,-8084,1745154328037032000
80992,1666,876,3297,2932,775,-7967,1745154328037032000
81184,1622,875,3297,2879,483,-7964,1745154328037032000
81376,1555,857,3284,2759,230,-7948,1745154328037032000
81568,1469,831,3259,2663,55,-7846,1745154328037032000
81760,1378,822,3234,2510,-84,-7842,1745154328037032000
81952,1284,832,3215,2412,-167,-7850,1745154328037032000
82144,1193,844,3190,2375,-218,-7844,1745154328037032000
82336,1107,866,3152,2374,-189,-7803,1745154328097699311
82528,1026,886,3112,2422,-152,-7762,1745154328097699311
82720,953,908,3075,2481,-89,-7720,1745154328097699311
82912,881,933,3041,2560,-20,-7710,1745154328097699311
83104,805,952,3007,2696,74,-7676,1745154328097699311
83296,728,968,2974,2825,150,-7652,1745154328097699311
83488,655,979,2950,2949,217,-7693,1745154328097699311
83680,589,984,2929,3071,408,-7735,1745154328097699311
83872,538,986,2910,3153,573,-7765,1745154328097699311
84064,505,979,2884,3276,788,-7806,1745154328097699311
84256,492,970,2848,3343,963,-7916,1745154328097699311
84448,492,953,2800,3396,1087,-8020,1745154328097699311
84640,501,926,2748,3436,1182,-8064,1745154328157489442
84832,514,904,2705,3392,1185,-8120,1745154328157489442
85024,525,879,2669,3343,1090,-8201,1745154328157489442
85216,527,851,2627,3254,952,-8280,1745154328157489442
85408,517,829,2573,3144,832,-8367,1745154328157489442
85600,495,814,2508,3002,710,-8461,1745154328157489442
85792,463,814,2440,2869,563,-8583,1745154328157489442
85984,426,822,2380,2749,585,-8651,1745154328157489442
86176,388,832,2330,2707,610,-8757,1745154328157489442
86368,355,839,2291,2696,701,-8851,1745154328157489442
86560,329,832,2258,2744,789,-9006,1745154328157489442
86752,311,819,2215,2799,819,-9191,1745154328157489442
86944,290,801,2152,2835,770,-9346,1745154328279144060
87136,257,780,2069,2850,623,-9514,1745154328279144060
87328,205,752,1984,2856,394,-9604,1745154328279144060
87520,137,721,1912,2870,133,-9587,1745154328279144060
87712,46,686,1858,2892,-163,-9555,1745154328279144060
87904,-68,647,1811,2878,-396,-9433,1745154328279144060
88096,-196,603,1770,2842,-569,-9255,1745154328279144060
88288,-330,562,1724,2826,-606,-9160,1745154328279144060
88480,-456,514,1671,2749,-399,-8955,1745154328279144060
88672,-572,447,1625,2671,1,-8677,1745154328279144060
88864,-656,425,1580,2621,480,-8482,1745154328279144060
89056,-708,378,1533,2586,968,-8378,1745154328279144060
89248,-731,302,1477,2568,1428,-8184,1745154328288315486
89440,-723,255,1419,2528,1768,-8122,1745154328288315486
89632,-691,201,1360,2450,1995,-8086,1745154328288315486
89824,-640,152,1302,2352,2104,-8059,1745154328288315486
90016,-580,102,1252,2247,2140,-8064,1745154328288315486
90208,-521,49,1208,2116,2121,-8055,1745154328288315486
90400,-465,-2,1177,2005,2044,-8046,1745154328288315486
90592,-414,-49,1152,1866,1911,-8025,1745154328288315486
90784,-371,-86,1122,1734,1778,-8058,1745154328288315486
90976,-338,-116,1081,1559,1631,-8094,1745154328288315486
91168,-316,-141,1030,1394,1467,-8104,1745154328288315486
91360,-303,-163,977,1206,1270,-8127,1745154328288315486
91744,-319,-175,872,882,851,-8007,1745154328339506685
91936,-345,-170,827,742,653,-7923,1745154328339506685
92128,-380,-160,793,624,503,-7820,1745154328339506685
92320,-420,-144,767,507,412,-7728,1745154328339506685
92512,-464,-124,745,416,363,-7691,1745154328339506685
92704,-514,-101,714,382,372,-7688,1745154328339506685
92896,-567,-75,674,376,408,-7703,1745154328339506685
93088,-611,-53,634,408,487,-7665,1745154328339506685
93280,-638,-32,599,442,585,-7666,1745154328339506685
93472,-654,-17,568,537,721,-7684,1745154328339506685
93664,-659,-11,534,621,861,-7692,1745154328339506685
93856,-653,-11,498,717,981,-7691,1745154328339506685
94048,-632,-17,464,776,1115,-7690,1745154328392710210
94240,-598,-27,435,810,1197,-7696,1745154328392710210
94432,-556,-42,410,812,1299,-7724,1745154328392710210
94624,-508,-61,384,781,1318,-7761,1745154328392710210
94816,-460,-79,359,738,1299,-7788,1745154328392710210
95008,-412,-100,335,640,1220,-7807,1745154328392710210
95200,-369,-115,311,542,1098,-7851,1745154328392710210
95392,-330,-130,285,428,970,-7876,1745154328392710210
95584,-296,-139,258,284,836,-7833,1745154328392710210
95776,-267,-143,233,155,768,-7781,1745154328392710210
95968,-241,-140,215,27,703,-7733,1745154328392710210
96160,-221,-136,203,-64,680,-7737,1745154328392710210
96352,-204,-133,187,-160,657,-7730,1745154328457368525
96544,-189,-128,163,-227,630,-7689,1745154328457368525
96736,-175,-121,133,-290,553,-7652,1745154328457368525
96928,-162,-107,101,-333,479,-7655,1745154328457368525
97120,-152,-90,74,-348,390,-7663,1745154328457368525
97312,-152,-74,56,-324,294,-7695,1745154328457368525
97504,-160,-58,47,-291,210,-7793,1745154328457368525
97696,-174,-43,40,-235,156,-7825,1745154328457368525
97888,-189,-31,33,-158,132,-7820,1745154328457368525
98080,-196,-20,26,-103,132,-7810,1745154328457368525
98272,-201,-9,15,-27,160,-7821,1745154328457368525
98464,-205,-4,2,53,231,-7814,1745154328457368525
98656,-208,-5,-5,128,299,-7807,1745154328509574246
98848,-206,-15,-9,189,353,-7820,1745154328509574246
99040,-199,-27,-16,209,391,-7801,1745154328509574246
99232,-185,-36,-30,187,421,-7792,1745154328509574246
99424,-163,-44,-47,126,447,-7785,1745154328509574246
99616,-137,-47,-61,54,435,-7789,1745154328509574246
99808,-104,-49,-68,-12,440,-7770,1745154328509574246
100000,-68,-49,-73,-81,421,-7768,1745154328509574246
100192,-36,-46,-85,-155,361,-7792,1745154328509574246
100384,-9,-42,-106,-226,290,-7827,1745154328509574246
100576,13,-32,-127,-270,196,-7830,1745154328509574246
100768,33,-15,-143,-278,104,-7822,1745154328509574246
100960,51,3,-154,-246,7,-7853,1745154328581959991
101152,63,21,-161,-184,-102,-7867,1745154328581959991
101344,68,35,-168,-88,-166,-7890,1745154328581959991
101536,69,43,-176,-22,-215,-7913,1745154328581959991
101728,66,48,-184,39,-259,-7946,1745154328581959991
101920,57,51,-191,92,-262,-7987,1745154328581959991
102112,49,51,-195,134,-270,-8045,1745154328581959991
102304,50,47,-197,147,-297,-8071,1745154328581959991
102496,54,42,-202,152,-287,-8120,1745154328581959991
102688,62,36,-208,150,-277,-8124,1745154328581959991
102880,70,32,-216,133,-288,-8125,1745154328581959991
103072,81,30,-224,111,-314,-8156,1745154328581959991
103264,93,31,-231,92,-344,-8187,1745154328657648154
103648,123,27,-232,102,-490,-8132,1745154328657648154
103840,135,21,-232,135,-580,-8146,1745154328657648154
104032,140,15,-233,145,-671,-8157,1745154328657648154
104224,140,9,-232,132,-784,-8153,1745154328657648154
104416,136,3,-229,99,-870,-8155,1745154328657648154
104608,127,-4,-226,69,-916,-8149,1745154328657648154
104800,113,-12,-222,4,-956,-8151,1745154328657648154
104992,94,-16,-216,-65,-978,-8169,1745154328657648154
105184,72,-17,-211,-113,-980,-8168,1745154328657648154
105376,53,-14,-205,-132,-965,-8167,1745154328657648154
105568,39,-7,-198,-140,-964,-8193,1745154328657648154
105760,30,3,-193,-118,-968,-8216,1745154328686079874
105952,25,14,-192,-81,-982,-8219,1745154328686079874
106144,22,23,-193,-15,-1014,-8244,1745154328686079874
106336,18,28,-193,27,-1035,-8248,1745154328686079874
106528,14,30,-189,104,-1075,-8230,1745154328686079874
106720,8,28,-184,174,-1080,-8213,1745154328686079874
106912,1,24,-179,212,-1106,-8196,1745154328686079874
107104,-6,21,-176,262,-1109,-8211,1745154328686079874
107296,-11,16,-171,281,-1097,-8212,1745154328686079874
107488,-10,9,-165,288,-1093,-8215,1745154328686079874
107680,-7,3,-159,299,-1071,-8213,1745154328686079874
107872,-2,-1,-155,301,-1064,-8228,1745154328686079874
108064,5,-1,-151,301,-1068,-8233,1745154328754723621
108256,14,-2,-147,318,-1089,-8251,1745154328754723621
108448,24,-4,-142,335,-1156,-8248,1745154328754723621
108640,31,-10,-137,357,-1185,-8241,1745154328754723621
108832,31,-15,-130,356,-1252,-8238,1745154328754723621
109024,24,-21,-124,345,-1313,-8220,1745154328754723621
109216,12,-29,-117,353,-1346,-8193,1745154328754723621
109408,-1,-36,-110,314,-1364,-8142,1745154328754723621
109600,-12,-44,-104,253,-1429,-8124,1745154328754723621
109792,-22,-49,-96,186,-1372,-8105,1745154328754723621
109984,-29,-50,-88,115,-1346,-8116,1745154328754723621
110176,-32,-49,-81,44,-1310,-8111,1745154328754723621
110368,-28,-42,-78,-4,-1258,-8117,1745154328812910277
110560,-22,-33,-78,-45,-1233,-8103,1745154328812910277
110752,-15,-19,-81,-43,-1194,-8113,1745154328812910277
110944,-9,-3,-85,-14,-1189,-8101,1745154328812910277
111136,-6,13,-88,34,-1203,-8114,1745154328812910277
111328,-2,28,-88,112,-1221,-8161,1745154328812910277
111520,6,38,-87,204,-1245,-8167,1745154328812910277
111712,14,44,-84,298,-1255,-8203,1745154328812910277
111904,21,43,-83,365,-1227,-8226,1745154328812910277
112096,23,38,-84,433,-1212,-8251,1745154328812910277
112288,24,31,-88,434,-1226,-8271,1745154328812910277
112480,27,24,-94,416,-1239,-8288,1745154328812910277
112672,32,19,-97,380,-1264,-8297,1745154328867733475
112864,39,12,-96,336,-1315,-8302,1745154328867733475
113056,46,10,-95,282,-1369,-8276,1745154328867733475
113248,50,5,-89,254,-1378,-8266,1745154328867733475
113440,50,1,-82,234,-1386,-8237,1745154328867733475
113632,41,0,-77,222,-1360,-8186,1745154328867733475
113824,30,-2,-75,209,-1368,-8176,1745154328867733475
114016,23,-2,-71,196,-1365,-8148,1745154328867733475
114208,21,-3,-68,196,-1309,-8102,1745154328867733475
114400,27,-4,-62,197,-1309,-8100,1745154328867733475
114592,38,-6,-55,209,-1269,-8076,1745154328867733475
114784,53,-8,-49,222,-1263,-8078,1745154328867733475
114976,66,-11,-46,227,-1236,-8027,1745154328934457344
115168,79,-13,-45,220,-1268,-8046,1745154328934457344
115360,87,-15,-46,221,-1277,-8054,1745154328934457344
115552,92,-16,-46,206,-1337,-8047,1745154328934457344
115744,95,-16,-46,220,-1391,-8020,1745154328934457344
115936,97,-15,-44,225,-1437,-7983,1745154328934457344
116128,94,-14,-40,235,-1450,-7982,1745154328934457344
116320,82,-17,-36,248,-1412,-7947,1745154328934457344
116512,63,-19,-33,238,-1364,-7923,1745154328934457344
116704,42,-20,-32,228,-1270,-7892,1745154328934457344
116896,24,-17,-30,214,-1164,-7885,1745154328934457344
117088,14,-11,-30,201,-1077,-7881,1745154328934457344
117280,10,-5,-31,189,-1011,-7903,1745154328989494602
117472,10,0,-34,182,-937,-7921,1745154328989494602
117664,12,6,-40,211,-888,-7963,1745154328989494602
117856,11,16,-48,221,-849,-8042,1745154328989494602
118048,0,25,-60,281,-821,-8103,1745154328989494602
118240,-29,33,-78,372,-816,-8168,1745154328989494602
118432,-78,37,-99,453,-787,-8187,1745154328989494602
118624,-141,36,-120,541,-753,-8190,1745154328989494602
118816,-214,30,-139,603,-696,-8170,1745154328989494602
119008,-290,21,-157,631,-641,-8122,1745154328989494602
119200,-364,11,-174,649,-597,-8087,1745154328989494602
119392,-431,-4,-193,622,-514,-8050,1745154328989494602
119584,-497,-12,-215,547,-443,-8046,1745154329055746549
119776,-559,-18,-240,459,-308,-8099,1745154329055746549
119968,-617,-20,-264,359,-129,-8150,1745154329055746549
120160,-665,-18,-291,265,126,-8195,1745154329055746549
120352,-700,-16,-327,219,461,-8270,1745154329055746549
120544,-729,-9,-369,217,811,-8317,1745154329055746549
120736,-741,2,-415,221,1196,-8389,1745154329055746549
120928,-730,13,-462,276,1562,-8423,1745154329055746549
121120,-701,23,-510,384,1882,-8411,1745154329055746549
121312,-654,31,-561,518,2142,-8407,1745154329055746549
121504,-602,33,-618,690,2327,-8369,1745154329055746549
121696,-551,30,-681,864,2446,-8299,1745154329055746549
121888,-507,22,-747,1031,2486,-8256,1745154329101732379
122080,-472,9,-811,1173,2516,-8217,1745154329101732379
122272,-445,-6,-874,1280,2480,-8232,1745154329101732379
122464,-432,-21,-934,1378,2496,-8180,1745154329101732379
122656,-431,-32,-998,1474,2565,-8138,1745154329101732379
122848,-442,-42,-1068,1554,2679,-8081,1745154329101732379
123040,-459,-52,-1147,1641,2790,-8052,1745154329101732379
123232,-474,-61,-1232,1696,2947,-8027,1745154329101732379
123424,-474,-66,-1318,1738,3165,-8050,1745154329101732379
123616,-460,-70,-1409,1806,3365,-8091,1745154329101732379
123808,-435,-77,-1507,1873,3571,-8080,1745154329101732379
124000,-406,-84,-1609,1929,3785,-8011,1745154329101732379
124192,-367,-91,-1714,2006,3982,-7913,1745154329164884823
124384,-317,-96,-1819,2079,4178,-7823,1745154329164884823
124576,-258,-102,-1924,2162,4240,-7765,1745154329164884823
124768,-191,-110,-2027,2238,4294,-7659,1745154329164884823
124960,-117,-117,-2129,2305,4298,-7570,1745154329164884823
125152,-44,-124,-2228,2373,4231,-7514,1745154329164884823
125344,25,-131,-2326,2446,4165,-7510,1745154329164884823
125536,83,-141,-2421,2507,4034,-7547,1745154329164884823
125728,132,-154,-2513,2550,3910,-7572,1745154329164884823
125920,172,-171,-2601,2582,3740,-7597,1745154329164884823
126112,204,-186,-2687,2614,3579,-7594,1745154329164884823
126304,225,-199,-2771,2621,3423,-7629,1745154329164884823
126496,229,-214,-2850,2651,3327,-7619,1745154329224406466
126688,217,-229,-2920,2656,3180,-7548,1745154329224406466
126880,197,-250,-2978,2706,3045,-7443,1745154329224406466
127072,174,-269,-3028,2709,2920,-7316,1745154329224406466
127264,148,-290,-3073,2689,2802,-7212,1745154329224406466
127456,125,-309,-3114,2665,2695,-7196,1745154329224406466
127648,105,-330,-3154,2630,2618,-7194,1745154329224406466
127840,88,-351,-3196,2560,2529,-7217,1745154329224406466
128032,73,-366,-3238,2505,2531,-7245,1745154329224406466
128224,53,-376,-3279,2399,2541,-7344,1745154329224406466
128416,24,-380,-3323,2300,2540,-7408,1745154329224406466
128608,-10,-378,-3369,2200,2548,-7448,1745154329224406466
128800,-46,-373,-3411,2108,2528,-7464,1745154329278878573
128992,-74,-355,-3446,2049,2512,-7528,1745154329278878573
129184,-80,-325,-3481,1999,2464,-7536,1745154329278878573
129376,-66,-296,-3498,1925,2350,-7613,1745154329278878573
129568,-50,-294,-3484,1860,2220,-7634,1745154329278878573
129760,-31,-305,-3460,1811,2065,-7614,1745154329278878573
129952,-1,-308,-3439,1773,1943,-7544,1745154329278878573
130144,34,-297,-3431,1731,1780,-7428,1745154329278878573
130336,70,-282,-3435,1716,1602,-7262,1745154329278878573
130528,112,-266,-3441,1710,1400,-7105,1745154329278878573
130720,162,-254,-3443,1707,1216,-6999,1745154329278878573
130912,207,-247,-3445,1709,1073,-6912,1745154329278878573
131104,240,-241,-3448,1733,935,-6906,1745154329339314427
131296,261,-232,-3453,1716,819,-6977,1745154329339314427
131488,282,-226,-3456,1706,693,-7029,1745154329339314427
131680,315,-217,-3455,1705,558,-7045,1745154329339314427
131872,363,-210,-3450,1694,475,-7113,1745154329339314427
132064,416,-202,-3444,1706,406,-7229,1745154329339314427
132256,458,-195,-3440,1746,337,-7299,1745154329339314427
132448,487,-194,-3439,1798,216,-7382,1745154329339314427
132640,499,-195,-3435,1858,46,-7391,1745154329339314427
132832,498,-199,-3424,1878,-152,-7402,1745154329339314427
133024,488,-206,-3402,1909,-386,-7390,1745154329339314427
133216,469,-214,-3372,1915,-636,-7341,1745154329339314427
133408,441,-223,-3333,1893,-936,-7337,1745154329406982455
133600,404,-233,-3290,1846,-1168,-7276,1745154329406982455
133792,359,-246,-3245,1784,-1381,-7194,1745154329406982455
133984,303,-253,-3202,1699,-1591,-7168,1745154329406982455
134176,233,-252,-3158,1592,-1823,-7193,1745154329406982455
134368,158,-246,-3114,1470,-2064,-7178,1745154329406982455
134560,90,-238,-3069,1327,-2289,-7112,1745154329406982455
134752,26,-227,-3022,1212,-2451,-7041,1745154329406982455
134944,-36,-211,-2978,1120,-2526,-7059,1745154329406982455
135136,-109,-181,-2937,1035,-2526,-7164,1745154329406982455
135328,-191,-140,-2901,1016,-2409,-7294,1745154329406982455
135520,-273,-97,-2866,1017,-2274,-7487,1745154329406982455
135712,-346,-58,-2824,1097,-2148,-7623,1745154329457026633
135904,-392,-29,-2773,1199,-2048,-7680,1745154329457026633
136096,-405,-2,-2717,1314,-1913,-7739,1745154329457026633
136288,-391,20,-2665,1423,-1755,-7846,1745154329457026633
136480,-368,40,-2622,1514,-1635,-7954,1745154329457026633
136672,-341,51,-2586,1577,-1543,-7936,1745154329457026633
136864,-300,51,-2543,1613,-1529,-7875,1745154329457026633
137056,-247,42,-2496,1621,-1569,-7798,1745154329457026633
137248,-192,33,-2449,1581,-1611,-7702,1745154329457026633
137440,-150,27,-2399,1520,-1629,-7530,1745154329457026633
137632,-126,20,-2344,1455,-1695,-7428,1745154329457026633
137824,-118,23,-2287,1408,-1781,-7467,1745154329457026633
138016,-117,23,-2232,1357,-1949,-7592,1745154329515320840
138208,-111,23,-2178,1303,-2074,-7668,1745154329515320840
138400,-92,24,-2121,1293,-2179,-7716,1745154329515320840
138592,-61,26,-2063,1286,-2257,-7848,1745154329515320840
138784,-28,33,-2001,1328,-2298,-8057,1745154329515320840
138976,0,39,-1936,1407,-2273,-8257,1745154329515320840
139168,25,44,-1868,1549,-2204,-8421,1745154329515320840
139360,41,31,-1807,1733,-2206,-8552,1745154329515320840
139552,51,21,-1763,1822,-2189,-8657,1745154329515320840
139744,48,11,-1720,1887,-2181,-8672,1745154329515320840
139936,31,-11,-1670,1943,-2252,-8647,1745154329515320840
140128,6,-34,-1612,1934,-2303,-8573,1745154329515320840
140320,-32,-51,-1545,1869,-2336,-8444,1745154329572245008
140512,-87,-67,-1481,1763,-2354,-8359,1745154329572245008
140704,-155,-80,-1424,1634,-2373,-8386,1745154329572245008
140896,-223,-90,-1368,1460,-2420,-8490,1745154329572245008
141088,-271,-94,-1307,1269,-2504,-8562,1745154329572245008
141280,-297,-92,-1243,1114,-2570,-8586,1745154329572245008
141472,-305,-84,-1175,1015,-2574,-8607,1745154329572245008
141664,-308,-71,-1103,917,-2526,-8619,1745154329572245008
141856,-314,-55,-1033,859,-2447,-8552,1745154329572245008
142048,-321,-38,-976,856,-2347,-8448,1745154329572245008
142240,-321,-16,-940,850,-2159,-8430,1745154329572245008
142432,-311,8,-915,856,-1988,-8510,1745154329572245008
142624,-291,32,-893,872,-1809,-8556,1745154329631935973
142816,-258,53,-862,922,-1681,-8554,1745154329631935973
143008,-222,70,-826,1009,-1604,-8445,1745154329631935973
143200,-191,87,-784,1083,-1603,-8319,1745154329631935973
143392,-170,102,-738,1148,-1668,-8252,1745154329631935973
143584,-160,114,-689,1139,-1829,-8252,1745154329631935973
143776,-158,123,-634,1131,-2047,-8345,1745154329631935973
143968,-164,130,-583,1117,-2232,-8400,1745154329631935973
144160,-182,138,-539,1104,-2431,-8386,1745154329631935973
144352,-210,150,-508,1103,-2596,-8341,1745154329631935973
144544,-247,167,-488,1106,-2678,-8254,1745154329631935973
144736,-284,186,-476,1088,-2701,-8218,1745154329631935973
144928,-318,210,-465,1106,-2606,-8240,1745154329688168792
145120,-344,232,-453,1129,-2471,-8192,1745154329688168792
145312,-361,249,-444,1166,-2277,-8150,1745154329688168792
145504,-363,264,-433,1216,-2052,-8116,1745154329688168792
145696,-349,279,-417,1271,-1852,-8204,1745154329688168792
145888,-334,295,-394,1326,-1690,-8269,1745154329688168792
146080,-306,306,-355,1398,-1605,-8303,1745154329688168792
146272,-275,320,-303,1465,-1571,-8365,1745154329688168792
146464,-241,330,-246,1501,-1573,-8511,1745154329688168792
146656,-214,336,-183,1537,-1551,-8587,1745154329688168792
146848,-193,345,-125,1582,-1555,-8648,1745154329688168792
147040,-183,355,-79,1603,-1554,-8697,1745154329688168792
147232,-178,369,-45,1632,-1573,-8805,1745154329748625792
147424,-176,387,-15,1658,-1573,-8853,1745154329748625792
147616,-175,405,11,1704,-1603,-8831,1745154329748625792
147808,-172,427,34,1742,-1662,-8817,1745154329748625792
148000,-171,451,51,1830,-1722,-8744,1745154329748625792
148192,-175,471,62,1925,-1715,-8633,1745154329748625792
148384,-177,487,77,2030,-1689,-8542,1745154329748625792
148576,-180,496,92,2133,-1593,-8426,1745154329748625792
148768,-185,501,103,2183,-1503,-8313,1745154329748625792
148960,-189,501,112,2221,-1376,-8171,1745154329748625792
149152,-192,497,116,2262,-1260,-7963,1745154329748625792
149344,-187,489,113,2268,-1110,-7789,1745154329748625792
149536,-164,479,111,2300,-935,-7779,1745154329805207723
149728,-112,467,106,2313,-727,-7892,1745154329805207723
149920,-17,440,103,2367,-503,-8033,1745154329805207723
150112,126,399,109,2471,-315,-8116,1745154329805207723
150304,301,347,122,2578,-277,-8177,1745154329805207723
150496,477,289,139,2687,-466,-8308,1745154329805207723
150688,622,222,159,2765,-932,-8558,1745154329805207723
150880,713,149,181,2774,-1566,-8797,1745154329805207723
151072,744,72,206,2754,-2276,-9030,1745154329805207723
151264,729,-1,235,2667,-2808,-9296,1745154329805207723
151456,670,-66,267,2505,-3107,-9391,1745154329805207723
151648,577,-113,302,2273,-3097,-9305,1745154329805207723
151840,453,-136,337,2056,-2878,-9105,1745154329882609047
152032,306,-130,352,1884,-2477,-8838,1745154329882609047
152224,153,-101,334,1759,-2043,-8666,1745154329882609047
152416,19,-59,281,1662,-1527,-8544,1745154329882609047
152608,-77,-25,218,1560,-978,-8467,1745154329882609047
152800,-134,-2,168,1462,-514,-8391,1745154329882609047
152992,-152,14,138,1419,-174,-8316,1745154329882609047
153184,-136,18,125,1408,22,-8286,1745154329882609047
153376,-95,19,119,1399,175,-8253,1745154329882609047
153568,-42,17,112,1397,291,-8214,1745154329882609047
153760,16,14,107,1367,427,-8160,1745154329882609047
153952,69,11,107,1345,554,-8079,1745154329882609047
154144,113,10,103,1325,681,-8029,1745154329922083270
154336,148,12,92,1327,815,-8022,1745154329922083270
154528,175,16,73,1305,903,-8075,1745154329922083270
154720,199,20,46,1297,927,-8134,1745154329922083270
154912,222,25,17,1287,881,-8261,1745154329922083270
155104,251,26,-2,1256,773,-8413,1745154329922083270
155296,284,18,-8,1236,589,-8642,1745154329922083270
155488,317,8,-6,1207,396,-8882,1745154329922083270
155680,342,-3,-4,1200,242,-9046,1745154329922083270
155872,357,-16,-5,1172,65,-9172,1745154329922083270
156064,364,-28,-8,1148,-70,-9276,1745154329922083270
156256,366,-39,-8,1076,-246,-9390,1745154329922083270
156448,362,-45,-5,991,-423,-9472,1745154329982456156
156640,351,-50,2,919,-582,-9534,1745154329982456156
156832,324,-52,13,804,-766,-9615,1745154329982456156
157024,279,-50,26,680,-876,-9606,1745154329982456156
157216,227,-46,38,584,-949,-9511,1745154329982456156
157408,173,-40,46,501,-955,-9380,1745154329982456156
157600,120,-27,44,476,-841,-9185,1745154329982456156
157792,64,-10,35,466,-701,-8960,1745154329982456156
157984,8,8,23,494,-599,-8772,1745154329982456156
158176,-40,27,15,565,-449,-8508,1745154329982456156
158368,-75,43,13,652,-388,-8314,1745154329982456156
158560,-94,56,16,775,-309,-8116,1745154329982456156
158752,-96,64,20,885,-250,-7964,1745154330039888965
158944,-87,65,22,991,-197,-7875,1745154330039888965
159136,-70,58,19,1099,-183,-7844,1745154330039888965
159328,-48,41,9,1176,-194,-7837,1745154330039888965
159520,-21,18,-4,1172,-216,-7830,1745154330039888965
159712,2,1,-16,1124,-253,-7725,1745154330039888965
159904,12,-3,-20,1049,-331,-7603,1745154330039888965
160096,12,1,-15,974,-413,-7524,1745154330039888965
160288,10,3,-4,928,-514,-7557,1745154330039888965
160480,12,1,3,916,-567,-7588,1745154330039888965
160672,15,-2,0,927,-533,-7626,1745154330039888965
160864,17,-1,-10,938,-483,-7710,1745154330039888965
161056,14,1,-21,954,-397,-7771,1745154330099190038
161248,7,3,-25,959,-348,-7886,1745154330099190038
161440,2,1,-23,968,-310,-7992,1745154330099190038
161632,1,-3,-21,983,-338,-8111,1745154330099190038
161824,-2,-10,-16,959,-355,-8238,1745154330099190038
162016,-3,-17,-11,955,-355,-8325,1745154330099190038
162208,-6,-23,-6,928,-382,-8390,1745154330099190038
162400,-90,-57,-12,1010,-701,-7463,1745154330099190038
162592,-652,-171,-159,734,-3442,-7597,1745154330099190038
162784,-695,-89,-149,85,-4627,-8787,1745154330099190038
162976,-965,30,-95,24,-4158,-8320,1745154330099190038
163168,-1118,37,-20,-82,-1096,-7604,1745154330099190038
163360,-1004,133,102,-165,1502,-7347,1745154330156408994
163552,-771,192,153,236,2491,-7546,1745154330156408994
163744,-553,186,83,1104,2386,-7869,1745154330156408994
163936,-436,114,-59,1834,1772,-7967,1745154330156408994
164128,-357,-1,-174,2054,1092,-7923,1745154330156408994
164320,-267,-109,-198,1965,568,-7860,1745154330156408994
164512,-158,-189,-137,1869,435,-7834,1745154330156408994
164704,-43,-245,-34,1733,702,-7834,1745154330156408994
164896,44,-289,62,1434,940,-7921,1745154330156408994
165088,87,-309,107,960,879,-7974,1745154330156408994
165280,106,-301,105,426,598,-8010,1745154330156408994
165472,123,-277,84,110,257,-8159,1745154330156408994
165856,153,-212,42,47,-42,-8509,1745154331170916289
203488,-17,-94,26,635,382,-8614,1745154331170916289
203680,-56,-157,37,506,-706,-7736,1745154331170916289
203872,-90,-62,13,514,-579,-8413,1745154331170916289
204064,-87,-59,18,180,-177,-7932,1745154331170916289
204256,-89,-29,37,168,-9,-8071,1745154331170916289
204448,-61,-2,29,343,3,-8052,1745154331170916289
204640,-72,9,5,484,58,-8060,1745154331170916289
204832,-63,10,-7,562,-8,-8123,1745154331170916289
205024,-55,11,-10,637,-75,-8102,1745154331170916289
205216,-59,11,-1,670,-94,-8125,1745154331170916289
205408,-48,6,11,698,-75,-8152,1745154331170916289
205600,-47,1,21,711,-77,-8184,1745154331225756153
205792,-46,-9,24,694,-83,-8212,1745154331225756153
205984,-42,-11,20,629,-109,-8266,1745154331225756153
206176,-47,-6,16,562,-90,-8335,1745154331225756153
206368,-51,1,15,529,-65,-8435,1745154331225756153
206560,-57,12,14,529,-12,-8551,1745154331225756153
206752,-67,24,17,516,45,-8677,1745154331225756153
206944,-73,41,20,502,83,-8803,1745154331225756153
207136,-81,66,21,406,128,-8901,1745154331225756153
207328,-83,96,24,293,138,-9034,1745154331225756153
207520,-93,136,25,214,72,-9291,1745154331225756153
207712,-119,180,20,176,63,-9564,1745154331225756153
207904,-160,233,12,221,87,-10016,1745154331287445277
208096,-204,282,-8,463,211,-10494,1745154331287445277
208288,-248,316,-48,895,250,-10935,1745154331287445277
208480,-288,317,-110,1383,232,-11460,1745154331287445277
208672,-328,275,-183,1693,-668,-11084,1745154331287445277
208864,-524,272,-276,1930,-1139,-12735,1745154331287445277
209056,-242,233,-306,1968,585,-10915,1745154331287445277
209248,8,164,-284,2275,696,-10353,1745154331287445277
209440,260,164,-271,2296,-210,-10220,1745154331287445277
209632,604,143,-262,2656,-647,-9308,1745154331287445277
209824,661,84,-224,2223,871,-8638,1745154331287445277
210016,450,-86,-162,2140,1304,-7818,1745154331287445277
210208,585,-75,-46,2205,1248,-7247,1745154331351753023
210400,604,-10,34,2328,462,-7102,1745154331351753023
210592,-3,-157,99,6653,-6410,-7880,1745154331351753023
210784,-652,-486,-115,6660,-6688,-7284,1745154331351753023
210976,-1139,-549,-248,5072,-5700,-7494,1745154331351753023
211168,-1525,-641,-195,3711,-4326,-7194,1745154331351753023
211360,-1688,-642,-146,2592,-2513,-7152,1745154331351753023
211552,-1754,-595,-158,1460,-567,-7765,1745154331351753023
211744,-1738,-556,-221,948,648,-8125,1745154331351753023
211936,-1554,-427,-298,382,1562,-7851,1745154331351753023
212128,-1352,-302,-356,194,1765,-8361,1745154331351753023
212320,-1054,-227,-400,340,1671,-8627,1745154331351753023
212512,-710,-139,-425,689,1534,-8545,1745154331416097122
212704,-413,-73,-427,1235,1164,-8447,1745154331416097122
212896,-209,-30,-420,1899,634,-8352,1745154331416097122
213088,-94,-39,-387,2569,-52,-8558,1745154331416097122
213280,-72,-70,-319,3092,-737,-8881,1745154331416097122
213472,-91,-155,-220,3512,-1276,-9372,1745154331416097122
213664,-68,-308,-123,3782,-1635,-9632,1745154331416097122
213856,-12,-470,-49,3883,-1995,-9390,1745154331416097122
214048,62,-628,-9,3804,-2430,-8875,1745154331416097122
214240,131,-802,-10,3533,-2808,-8399,1745154331416097122
214432,122,-950,-44,3068,-3083,-8016,1745154331416097122
214624,-22,-1028,-89,2426,-3179,-7913,1745154331416097122
214816,-271,-1017,-114,1847,-3117,-8142,1745154331463864030
215008,-567,-903,-45,1648,-2725,-8196,1745154331463864030
215200,-910,-771,187,1711,-2317,-8332,1745154331463864030
215392,-1116,-780,402,1827,-2046,-8586,1745154331463864030
215584,-1105,-857,495,1797,-1554,-8547,1745154331463864030
215776,-1016,-907,538,1634,-1069,-8529,1745154331463864030
215968,-938,-886,611,1597,-955,-8552,1745154331463864030
216160,-861,-839,726,1681,-1240,-8626,1745154331463864030
216352,-746,-838,867,1833,-1712,-8825,1745154331463864030
216544,-594,-889,1021,1962,-2062,-9020,1745154331463864030
216736,-452,-960,1167,2013,-2241,-9169,1745154331463864030
216928,-356,-1022,1288,1935,-2302,-9062,1745154331463864030
217120,-296,-1066,1384,1748,-2337,-8878,1745154331523385778
217312,-245,-1086,1468,1489,-2349,-8709,1745154331523385778
217504,-188,-1088,1548,1187,-2354,-8507,1745154331523385778
217696,-128,-1075,1631,906,-2358,-8255,1745154331523385778
217888,-65,-1045,1721,720,-2388,-8029,1745154331523385778
218080,-3,-1005,1811,575,-2393,-7854,1745154331523385778
218272,61,-957,1894,512,-2437,-7700,1745154331523385778
218464,123,-907,1968,512,-2453,-7580,1745154331523385778
218656,187,-864,2041,550,-2435,-7498,1745154331523385778
218848,255,-806,2116,567,-2434,-7433,1745154331523385778
219040,323,-756,2180,647,-2501,-7327,1745154331523385778
219232,395,-722,2233,705,-2525,-7206,1745154331523385778
219424,464,-686,2284,727,-2574,-7118,1745154331577879759
219616,528,-660,2339,707,-2638,-6957,1745154331577879759
219808,587,-629,2403,646,-2712,-6802,1745154331577879759
220000,643,-598,2470,577,-2753,-6700,1745154331577879759
220192,691,-556,2539,453,-2771,-6644,1745154331577879759
220384,732,-500,2617,313,-2676,-6719,1745154331577879759
220576,760,-410,2726,91,-2513,-6803,1745154331577879759
220768,783,-332,2805,69,-3037,-6235,1745154331577879759
220960,886,-307,2763,-31,-2630,-6685,1745154331577879759
221152,936,-220,2787,-12,-2490,-6795,1745154331577879759
221344,960,-125,2823,93,-2364,-6824,1745154331577879759
221536,969,-23,2868,276,-2234,-6913,1745154331577879759
221728,973,66,2920,549,-1991,-7005,1745154331658917456
221920,976,137,2980,802,-1765,-7117,1745154331658917456
222112,981,203,3036,1051,-1491,-7197,1745154331658917456
222304,982,258,3079,1232,-1278,-7295,1745154331658917456
222496,981,308,3119,1403,-1048,-7383,1745154331658917456
222688,976,342,3158,1523,-971,-7450,1745154331658917456
222880,962,388,3193,1563,-870,-7464,1745154331658917456
223072,939,420,3232,1614,-859,-7553,1745154331658917456
223264,909,452,3268,1623,-937,-7639,1745154331658917456
223456,866,481,3281,1612,-1042,-7675,1745154331658917456
223648,817,522,3286,1505,-1085,-7707,1745154331658917456
223840,769,566,3300,1392,-1062,-7757,1745154331658917456
224032,735,603,3332,1380,-986,-7803,1745154331696128627
224224,722,636,3359,1386,-923,-7791,1745154331696128627
224416,723,678,3368,1403,-836,-7788,1745154331696128627
224608,733,724,3370,1428,-754,-7881,1745154331696128627
224800,759,771,3371,1449,-605,-8001,1745154331696128627
224992,804,822,3378,1463,-351,-8078,1745154331696128627
225184,863,881,3398,1597,41,-8142,1745154331696128627
225376,933,932,3410,1849,378,-8116,1745154331696128627
225568,1009,986,3389,2070,679,-8080,1745154331696128627
225760,1097,1032,3364,2266,891,-8093,1745154331696128627
225952,1201,1062,3351,2465,1108,-8188,1745154331696128627
226144,1321,1082,3357,2564,1187,-8329,1745154331696128627
226336,1438,1099,3372,2668,1185,-8417,1745154331756196932
226528,1538,1102,3378,2759,996,-8539,1745154331756196932
226720,1611,1110,3374,2783,722,-8645,1745154331756196932
226912,1656,1116,3373,2772,343,-8711,1745154331756196932
227104,1673,1124,3368,2776,-70,-8720,1745154331756196932
227296,1659,1129,3352,2744,-473,-8710,1745154331756196932
227488,1614,1145,3330,2703,-817,-8704,1745154331756196932
227680,1550,1164,3309,2650,-1047,-8780,1745154331756196932
227872,1471,1188,3292,2654,-1176,-8816,1745154331756196932
228064,1387,1213,3275,2701,-1169,-8841,1745154331756196932
228256,1306,1238,3264,2816,-1060,-8857,1745154331756196932
228448,1227,1271,3251,2997,-909,-8799,1745154331756196932
228640,1157,1298,3235,3194,-734,-8727,1745154331826094419
228832,1100,1313,3221,3458,-616,-8661,1745154331826094419
229024,1053,1320,3198,3708,-525,-8621,1745154331826094419
229216,1015,1316,3184,3902,-418,-8627,1745154331826094419
229408,984,1302,3186,4074,-364,-8671,1745154331826094419
229600,959,1283,3192,4205,-308,-8745,1745154331826094419
229792,936,1263,3197,4301,-235,-8788,1745154331826094419
229984,908,1246,3195,4347,-149,-8844,1745154331826094419
230176,871,1232,3185,4405,-155,-9026,1745154331826094419
230368,816,1223,3163,4462,-227,-9181,1745154331826094419
230560,741,1221,3139,4529,-383,-9306,1745154331826094419
230752,649,1221,3115,4599,-550,-9391,1745154331826094419
230944,546,1213,3097,4656,-654,-9507,1745154331870307348
231136,435,1204,3081,4715,-752,-9543,1745154331870307348
231328,322,1189,3061,4790,-772,-9535,1745154331870307348
231520,214,1166,3035,4872,-749,-9489,1745154331870307348
231712,109,1144,3000,4902,-686,-9446,1745154331870307348
231904,7,1120,2950,4931,-638,-9372,1745154331870307348
232096,-83,1092,2900,4959,-550,-9284,1745154331870307348
232288,-155,1060,2856,4981,-374,-9223,1745154331870307348
232480,-206,1023,2817,4988,-163,-9120,1745154331870307348
232672,-227,985,2781,5019,107,-8945,1745154331870307348
232864,-221,934,2741,5043,338,-8727,1745154331870307348
233056,-195,876,2699,5048,464,-8520,1745154331870307348
233248,-162,806,2654,5031,470,-8268,1745154331930604193
233440,-129,732,2612,4975,410,-8050,1745154331930604193
233632,-105,667,2573,4878,346,-7963,1745154331930604193
233824,-95,617,2533,4734,333,-7939,1745154331930604193
234016,-95,566,2489,4544,328,-8001,1745154331930604193
234208,-100,514,2442,4341,322,-8088,1745154331930604193
234400,-110,470,2396,4115,316,-8144,1745154331930604193
234592,-121,438,2354,3890,233,-8171,1745154331930604193
234784,-137,419,2310,3686,160,-8164,1745154331930604193
234976,-165,411,2260,3529,163,-8124,1745154331930604193
235168,-208,410,2209,3405,167,-8106,1745154331930604193
235360,-262,408,2159,3323,177,-8137,1745154331930604193
235552,-314,403,2107,3263,197,-8109,1745154331989052409
235744,-355,395,2054,3205,278,-8079,1745154331989052409
235936,-377,383,2001,3203,371,-7940,1745154331989052409
236128,-376,366,1944,3158,488,-7809,1745154331989052409
236320,-358,344,1878,3098,591,-7690,1745154331989052409
236512,-331,313,1809,3006,692,-7622,1745154331989052409
236704,-296,280,1746,2886,716,-7602,1745154331989052409
236896,-256,244,1686,2755,706,-7545,1745154331989052409
237088,-219,214,1630,2598,596,-7510,1745154331989052409
237280,-189,188,1578,2432,363,-7475,1745154331989052409
237472,-164,166,1530,2289,122,-7456,1745154331989052409
237664,-149,157,1489,2168,-33,-7439,1745154331989052409
237856,-153,158,1452,2057,-91,-7467,1745154332050754450
238048,-177,167,1414,2030,-38,-7522,1745154332050754450
238240,-213,177,1379,2000,32,-7567,1745154332050754450
238432,-248,174,1344,2014,56,-7592,1745154332050754450
238624,-278,173,1306,2023,35,-7599,1745154332050754450
238816,-304,167,1268,2043,-4,-7630,1745154332050754450
239008,-330,157,1232,2082,42,-7593,1745154332050754450
239200,-357,141,1196,2071,78,-7538,1745154332050754450
239392,-377,123,1158,2031,93,-7467,1745154332050754450
239584,-386,99,1115,1989,97,-7331,1745154332050754450
239776,-378,77,1073,1881,108,-7249,1745154332050754450
239968,-363,59,1026,1744,112,-7268,1745154332050754450
240160,-349,47,981,1619,113,-7270,1745154332174884930
240352,-332,36,936,1474,59,-7224,1745154332174884930
240544,-307,35,890,1357,-16,-7192,1745154332174884930
240736,-278,38,845,1240,-67,-7209,1745154332174884930
240928,-247,46,809,1191,-54,-7241,1745154332174884930
241120,-222,52,775,1187,-20,-7280,1745154332174884930
241312,-202,59,739,1217,18,-7315,1745154332174884930
241504,-184,70,704,1251,14,-7353,1745154332174884930
241696,-160,77,672,1281,-48,-7359,1745154332174884930
241888,-133,80,648,1340,-152,-7359,1745154332174884930
242080,-108,78,627,1344,-291,-7387,1745154332174884930
242272,-91,65,607,1345,-378,-7428,1745154332174884930
242464,-87,51,587,1284,-426,-7445,1745154332185724258
242656,-98,39,567,1197,-486,-7406,1745154332185724258
242848,-113,29,546,1092,-545,-7384,1745154332185724258
243040,-121,26,528,965,-620,-7369,1745154332185724258
243232,-120,28,513,845,-665,-7399,1745154332185724258
243424,-118,37,498,754,-706,-7445,1745154332185724258
243616,-123,53,478,671,-710,-7466,1745154332185724258
243808,-132,74,461,648,-714,-7479,1745154332185724258
244000,-143,93,447,665,-714,-7504,1745154332185724258
244192,-153,108,432,766,-712,-7525,1745154332185724258
244384,-156,115,417,857,-707,-7544,1745154332185724258
244576,-159,118,399,964,-716,-7575,1745154332185724258
244768,-163,114,374,1072,-748,-7536,1745154332230623952
244960,-167,103,348,1142,-836,-7450,1745154332230623952
245152,-168,87,328,1186,-918,-7345,1745154332230623952
245344,-169,66,313,1187,-1011,-7337,1745154332230623952
245536,-173,45,300,1105,-1066,-7333,1745154332230623952
245728,-180,29,280,988,-1078,-7369,1745154332230623952
245920,-189,19,257,851,-1059,-7421,1745154332230623952
246112,-195,19,240,732,-994,-7493,1745154332230623952
246304,-194,23,227,624,-950,-7551,1745154332230623952
246496,-184,34,217,555,-916,-7604,1745154332230623952
246688,-165,48,209,533,-837,-7692,1745154332230623952
246880,-147,64,200,562,-779,-7847,1745154332230623952
247072,-132,78,193,611,-741,-7965,1745154332284164870
247264,-117,86,184,703,-793,-8007,1745154332284164870
247456,-103,91,174,783,-890,-7966,1745154332284164870
247648,-91,92,166,823,-1019,-7929,1745154332284164870
247840,-83,88,161,849,-1159,-7938,1745154332284164870
248032,-83,82,158,836,-1273,-7947,1745154332284164870
248224,-92,78,154,817,-1322,-7958,1745154332284164870
248416,-107,76,146,789,-1385,-7926,1745154332284164870
248608,-124,76,136,763,-1451,-7892,1745154332284164870
248800,-134,74,127,749,-1460,-7870,1745154332284164870
248992,-142,74,121,730,-1435,-7894,1745154332284164870
249184,-155,72,113,733,-1394,-7931,1745154332284164870
249376,-170,70,102,743,-1355,-7932,1745154332342405848
249568,-173,64,87,742,-1304,-7848,1745154332342405848
249760,-161,57,76,748,-1329,-7786,1745154332342405848
249952,-132,47,71,719,-1316,-7735,1745154332342405848
250144,-100,40,65,701,-1326,-7783,1745154332342405848
250336,-76,36,57,658,-1335,-7834,1745154332342405848
250528,-58,37,44,661,-1371,-7858,1745154332342405848
250720,-41,37,33,659,-1443,-7845,1745154332342405848
250912,-26,40,25,672,-1546,-7866,1745154332342405848
251104,-15,41,22,699,-1591,-7833,1745154332342405848
251296,-10,43,25,728,-1709,-7806,1745154332342405848
251488,-5,43,35,728,-1874,-7799,1745154332342405848
251680,-2,44,43,723,-1971,-7847,1745154332407521451
251872,-14,45,55,688,-2016,-7939,1745154332407521451
252064,-43,49,64,644,-2008,-8008,1745154332407521451
252256,-76,56,70,622,-1953,-7948,1745154332407521451
252448,-98,62,80,619,-1889,-7884,1745154332407521451
252640,-106,67,93,631,-1827,-7861,1745154332407521451
252832,-107,68,104,642,-1747,-7828,1745154332407521451
253024,-106,71,107,623,-1692,-7788,1745154332407521451
253216,-104,78,107,609,-1718,-7773,1745154332407521451
253408,-99,86,106,582,-1775,-7766,1745154332407521451
253600,-88,93,110,603,-1831,-7742,1745154332407521451
253792,-73,98,117,618,-1871,-7762,1745154332407521451
253984,-60,101,128,637,-1903,-7801,1745154332459322280
254176,-54,105,131,684,-1933,-7802,1745154332459322280
254368,-56,108,125,725,-1952,-7835,1745154332459322280
254560,-65,113,117,759,-1943,-7879,1745154332459322280
254752,-77,116,112,800,-1883,-7932,1745154332459322280
254944,-91,119,111,849,-1832,-8024,1745154332459322280
255136,-108,118,114,904,-1807,-8110,1745154332459322280
255328,-124,113,114,959,-1747,-8167,1745154332459322280
255520,-137,104,109,981,-1693,-8192,1745154332459322280
255712,-144,92,103,1013,-1659,-8216,1745154332459322280
255904,-140,79,98,1000,-1606,-8228,1745154332459322280
256096,-129,64,91,978,-1589,-8250,1745154332459322280
256288,-116,51,79,959,-1528,-8221,1745154332519336263
256480,-106,39,61,922,-1571,-8156,1745154332519336263
256672,-93,29,45,871,-1610,-8100,1745154332519336263
256864,-79,20,33,824,-1693,-8017,1745154332519336263
257056,-61,16,27,777,-1755,-8000,1745154332519336263
257248,-45,14,25,731,-1777,-8032,1745154332519336263
257440,-31,14,23,713,-1763,-8085,1745154332519336263
257632,-24,12,19,719,-1706,-8116,1745154332519336263
257824,-20,12,12,728,-1700,-8120,1745154332519336263
258016,-14,12,8,739,-1692,-8133,1745154332519336263
258208,-5,13,8,768,-1716,-8167,1745154332519336263
258400,-2,13,12,797,-1729,-8203,1745154332519336263
258592,-4,11,15,819,-1689,-8183,1745154332580737733
258784,-10,10,18,818,-1716,-8158,1745154332580737733
258976,-14,8,19,840,-1723,-8123,1745154332580737733
259168,-12,7,21,835,-1707,-8106,1745154332580737733
259360,-10,6,22,830,-1703,-8086,1745154332580737733
259552,-13,8,22,842,-1736,-8066,1745154332580737733
259744,-18,10,18,875,-1749,-8040,1745154332580737733
259936,-21,12,14,904,-1760,-8000,1745154332580737733
260128,-24,11,9,939,-1769,-7992,1745154332580737733
260320,-30,7,6,940,-1774,-7987,1745154332580737733
260512,-36,1,3,945,-1768,-7941,1745154332580737733
260704,-39,-4,0,913,-1745,-7933,1745154332580737733
260896,-43,-8,-4,862,-1682,-7968,1745154332638077001
261088,-43,-12,-9,805,-1602,-7994,1745154332638077001
261280,-37,-15,-16,753,-1538,-8015,1745154332638077001
261472,-24,-14,-22,711,-1542,-8043,1745154332638077001
261664,-5,-10,-25,713,-1589,-8056,1745154332638077001
261856,14,-7,-23,721,-1655,-8080,1745154332638077001
262048,24,-6,-20,771,-1719,-8103,1745154332638077001
262240,21,-6,-17,807,-1776,-8083,1745154332638077001
262432,11,-10,-12,834,-1883,-8047,1745154332638077001
262624,0,-14,-6,834,-1933,-8014,1745154332638077001
262816,-12,-17,3,836,-1914,-8010,1745154332638077001
263008,-29,-18,12,827,-1852,-8036,1745154332638077001
263200,-49,-20,18,821,-1797,-8035,1745154332693305611
263392,-64,-21,17,828,-1726,-7996,1745154332693305611
263584,-68,-19,15,801,-1697,-7986,1745154332693305611
263776,-67,-16,13,805,-1644,-7988,1745154332693305611
263968,-64,-16,11,835,-1606,-7971,1745154332693305611
264160,-62,-18,10,832,-1600,-7965,1745154332693305611
264352,-55,-19,5,855,-1585,-7956,1745154332693305611
264544,-46,-22,-1,846,-1548,-7945,1745154332693305611
264736,-36,-24,-8,830,-1536,-7933,1745154332693305611
264928,-24,-24,-14,819,-1544,-7940,1745154332693305611
265120,-14,-24,-19,804,-1544,-7918,1745154332693305611
265312,-6,-23,-24,820,-1571,-7906,1745154332693305611
265504,3,-23,-28,833,-1585,-7869,1745154332754035213
265696,12,-25,-29,846,-1616,-7839,1745154332754035213
265888,21,-27,-29,873,-1657,-7859,1745154332754035213
266080,25,-30,-28,885,-1657,-7851,1745154332754035213
266272,23,-33,-29,890,-1692,-7847,1745154332754035213
266464,21,-36,-27,865,-1729,-7832,1745154332754035213
266656,17,-38,-27,865,-1736,-7853,1745154332754035213
266848,10,-40,-27,817,-1723,-7860,1745154332754035213
267040,1,-40,-29,802,-1724,-7855,1745154332754035213
267232,-9,-39,-31,778,-1675,-7891,1745154332754035213
267424,-18,-36,-34,769,-1656,-7913,1745154332754035213
267616,-25,-32,-36,765,-1659,-7914,1745154332754035213
267808,-31,-28,-38,785,-1684,-7877,1745154332809986785
268000,-34,-25,-39,783,-1710,-7860,1745154332809986785
268192,-34,-24,-39,795,-1710,-7856,1745154332809986785
268384,-35,-23,-38,788,-1706,-7825,1745154332809986785
268576,-35,-24,-39,784,-1689,-7788,1745154332809986785
268768,-32,-22,-40,765,-1726,-7722,1745154332809986785
268960,-26,-19,-40,754,-1754,-7689,1745154332809986785
269152,-20,-17,-38,752,-1781,-7668,1745154332809986785
269344,-16,-15,-35,733,-1809,-7700,1745154332809986785
269536,-15,-11,-33,740,-1752,-7746,1745154332809986785
269728,-15,-7,-30,751,-1715,-7764,1745154332809986785
269920,-11,-6,-28,784,-1686,-7753,1745154332809986785
270112,0,-3,-26,798,-1667,-7732,1745154332870329984
270304,11,-4,-22,811,-1668,-7730,1745154332870329984
270496,19,-4,-20,823,-1698,-7750,1745154332870329984
270688,22,-5,-19,805,-1695,-7806,1745154332870329984
270880,23,-5,-19,819,-1704,-7834,1745154332870329984
271072,24,-7,-19,830,-1724,-7816,1745154332870329984
271264,27,-7,-17,856,-1743,-7820,1745154332870329984
271456,27,-9,-17,851,-1749,-7808,1745154332870329984
271648,26,-12,-18,831,-1784,-7808,1745154332870329984
271840,21,-14,-20,822,-1780,-7805,1745154332870329984
272032,13,-15,-23,801,-1801,-7798,1745154332870329984
272224,1,-14,-26,768,-1838,-7789,1745154332870329984
272416,-11,-12,-27,736,-1835,-7780,1745154332927463212
272608,-23,-9,-28,758,-1839,-7799,1745154332927463212
272800,-38,-6,-27,754,-1815,-7799,1745154332927463212
272992,-51,-3,-27,777,-1761,-7781,1745154332927463212
273184,-60,0,-30,795,-1704,-7784,1745154332927463212
273376,-60,2,-33,818,-1640,-7787,1745154332927463212
273568,-50,3,-38,823,-1570,-7782,1745154332927463212
273760,-35,2,-40,833,-1514,-7757,1745154332927463212
273952,-14,2,-44,834,-1479,-7745,1745154332927463212
274144,6,-2,-48,839,-1516,-7719,1745154332927463212
274336,25,-4,-51,832,-1545,-7702,1745154332927463212
274528,39,-6,-54,815,-1574,-7722,1745154332927463212
274720,45,-5,-56,823,-1664,-7770,1745154332990090348
274912,51,-5,-56,816,-1753,-7767,1745154332990090348
275104,55,-7,-55,812,-1839,-7742,1745154332990090348
275296,57,-9,-53,799,-1929,-7702,1745154332990090348
275488,51,-7,-47,761,-1966,-7703,1745154332990090348
275680,40,-7,-41,696,-1998,-7744,1745154332990090348
275872,23,-4,-35,669,-1949,-7781,1745154332990090348
276064,4,1,-31,659,-1931,-7797,1745154332990090348
276256,-12,8,-28,676,-1865,-7821,1745154332990090348
276448,-22,16,-24,703,-1785,-7837,1745154332990090348
276640,-25,23,-19,737,-1736,-7849,1745154332990090348
276832,-22,26,-15,772,-1705,-7882,1745154332990090348
277024,-16,28,-13,828,-1679,-7915,1745154333052457226
277216,-9,27,-12,841,-1666,-7925,1745154333052457226
277408,-3,24,-12,843,-1696,-7922,1745154333052457226
277600,2,21,-13,841,-1719,-7915,1745154333052457226
277792,4,17,-13,796,-1769,-7894,1745154333052457226
277984,8,17,-14,780,-1846,-7851,1745154333052457226
278176,15,19,-15,750,-1940,-7850,1745154333052457226
278368,23,22,-13,749,-1949,-7874,1745154333052457226
278560,28,24,-12,732,-1958,-7919,1745154333052457226
278752,25,25,-11,756,-1933,-7946,1745154333052457226
278944,17,25,-11,759,-1892,-7963,1745154333052457226
279136,8,25,-10,777,-1882,-7942,1745154333052457226
279328,-2,25,-7,789,-1893,-7928,1745154333102562185
279520,-9,25,-3,805,-1909,-7945,1745154333102562185
279712,-16,23,0,817,-1916,-7941,1745154333102562185
279904,-24,22,3,816,-1886,-7951,1745154333102562185
280096,-33,22,5,821,-1855,-7964,1745154333102562185
280288,-40,20,6,828,-1820,-7994,1745154333102562185
280480,-45,18,3,831,-1776,-7977,1745154333102562185
280672,-46,15,-3,823,-1750,-7945,1745154333102562185
280864,-42,12,-8,809,-1707,-7905,1745154333102562185
281056,-36,9,-13,797,-1720,-7890,1745154333102562185
281248,-29,7,-17,792,-1754,-7865,1745154333102562185
281440,-21,7,-20,768,-1753,-7858,1745154333102562185
281632,-13,9,-21,756,-1761,-7906,1745154333166500820
281824,-9,11,-22,784,-1741,-7930,1745154333166500820
282016,-5,13,-23,788,-1699,-7915,1745154333166500820
282208,3,12,-25,816,-1686,-7915,1745154333166500820
282400,10,12,-26,839,-1677,-7922,1745154333166500820
282592,15,10,-29,843,-1680,-7922,1745154333166500820
282784,21,6,-32,838,-1724,-7942,1745154333166500820
282976,25,4,-32,844,-1762,-7932,1745154333166500820
283168,26,3,-31,827,-1792,-7922,1745154333166500820
283360,25,2,-30,827,-1837,-7951,1745154333166500820
283552,19,0,-30,808,-1846,-7951,1745154333166500820
283744,12,-1,-30,803,-1814,-7929,1745154333166500820
283936,7,-1,-30,800,-1806,-7929,1745154333219866895
284128,6,-1,-32,772,-1771,-7936,1745154333219866895
284320,5,-1,-34,767,-1773,-7941,1745154333219866895
284512,7,-2,-35,753,-1782,-7910,1745154333219866895
284704,8,-3,-35,763,-1829,-7903,1745154333219866895
284896,10,-3,-32,758,-1833,-7889,1745154333219866895
285088,10,-2,-28,769,-1860,-7901,1745154333219866895
285280,6,-1,-24,755,-1871,-7889,1745154333219866895
285472,3,1,-21,766,-1887,-7883,1745154333219866895
285664,3,5,-18,790,-1842,-7851,1745154333219866895
285856,4,6,-16,821,-1797,-7858,1745154333219866895
286048,2,8,-15,825,-1790,-7876,1745154333219866895
286240,2,9,-16,855,-1749,-7897,1745154333280310093
286432,2,10,-19,872,-1752,-7919,1745154333280310093
286624,5,11,-20,895,-1736,-7914,1745154333280310093
286816,7,9,-20,903,-1739,-7925,1745154333280310093
287008,3,6,-22,902,-1755,-7921,1745154333280310093
287200,-1,2,-25,874,-1751,-7885,1745154333280310093
287392,-2,-1,-26,840,-1758,-7878,1745154333280310093
287584,0,-4,-28,800,-1740,-7881,1745154333280310093
287776,2,-3,-30,778,-1699,-7888,1745154333280310093
287968,5,-1,-33,762,-1669,-7886,1745154333280310093
288160,8,1,-37,785,-1623,-7890,1745154333280310093
288352,10,4,-41,805,-1593,-7908,1745154333280310093
288544,10,4,-45,838,-1581,-7897,1745154333357550220
288736,9,3,-47,844,-1612,-7902,1745154333357550220
288928,9,2,-48,871,-1623,-7918,1745154333357550220
289120,9,-2,-51,868,-1618,-7928,1745154333357550220
289312,6,-6,-55,875,-1580,-7900,1745154333357550220
289504,0,-10,-60,860,-1540,-7862,1745154333357550220
289696,-6,-12,-67,859,-1507,-7822,1745154333357550220
289888,-6,-13,-73,854,-1505,-7794,1745154333357550220
290080,1,-12,-80,851,-1498,-7783,1745154333357550220
290272,10,-14,-87,854,-1486,-7791,1745154333357550220
290464,13,-15,-95,865,-1445,-7794,1745154333357550220
290656,9,-15,-104,883,-1407,-7802,1745154333357550220
290848,3,-16,-114,917,-1361,-7813,1745154333397709281
291040,0,-16,-123,940,-1301,-7815,1745154333397709281
291232,-3,-17,-133,970,-1241,-7839,1745154333397709281
291424,-1,-18,-141,975,-1142,-7875,1745154333397709281
291616,-1,-24,-155,1016,-1010,-7913,1745154333397709281
291808,-3,-22,-181,1051,-891,-7949,1745154333397709281
292000,-9,-21,-221,1112,-760,-7985,1745154333397709281
292192,-16,-22,-270,1161,-656,-7985,1745154333397709281
292384,-23,-25,-317,1201,-591,-7973,1745154333397709281
292576,-34,-37,-361,1232,-540,-7893,1745154333397709281
292768,-45,-47,-403,1268,-457,-7806,1745154333397709281
292960,-55,-55,-452,1292,-356,-7803,1745154333397709281
293152,-70,-66,-506,1283,-264,-7794,1745154333459688402
293344,-88,-79,-557,1274,-132,-7808,1745154333459688402
293536,-112,-91,-601,1269,12,-7779,1745154333459688402
293728,-141,-99,-643,1291,224,-7748,1745154333459688402
293920,-175,-106,-690,1335,462,-7736,1745154333459688402
294112,-203,-114,-743,1375,676,-7679,1745154333459688402
294304,-223,-123,-795,1429,821,-7653,1745154333459688402
294496,-237,-132,-842,1492,965,-7640,1745154333459688402
294688,-252,-147,-888,1578,1105,-7605,1745154333459688402
294880,-271,-159,-939,1657,1231,-7569,1745154333459688402
295072,-288,-171,-991,1748,1328,-7543,1745154333459688402
295264,-302,-180,-1045,1835,1444,-7579,1745154333459688402
295456,-310,-186,-1105,1949,1562,-7643,1745154333511508606
295648,-309,-193,-1172,2079,1685,-7657,1745154333511508606
295840,-294,-206,-1240,2210,1821,-7694,1745154333511508606
296032,-278,-219,-1310,2317,1974,-7732,1745154333511508606
296224,-259,-231,-1382,2432,2169,-7780,1745154333511508606
296416,-233,-242,-1458,2545,2344,-7851,1745154333511508606
296608,-197,-257,-1543,2694,2505,-7967,1745154333511508606
296800,-158,-277,-1638,2786,2638,-8046,1745154333511508606
296992,-118,-304,-1735,2896,2740,-8040,1745154333511508606
297184,-76,-333,-1833,2987,2766,-8009,1745154333511508606
297376,-39,-362,-1932,3061,2807,-7971,1745154333511508606
297568,-11,-392,-2028,3109,2782,-7967,1745154333511508606
297760,6,-425,-2124,3151,2692,-7949,1745154333571964668
297952,18,-459,-2219,3192,2525,-7873,1745154333571964668
298144,20,-489,-2310,3256,2309,-7747,1745154333571964668
298336,18,-518,-2396,3326,2131,-7632,1745154333571964668
298528,16,-543,-2483,3425,2058,-7483,1745154333571964668
298720,15,-565,-2578,3552,2120,-7424,1745154333571964668
298912,13,-583,-2683,3663,2242,-7534,1745154333571964668
299104,15,-598,-2795,3780,2452,-7713,1745154333571964668
299296,29,-621,-2907,3904,2581,-7876,1745154333571964668
299488,60,-643,-3007,4030,2668,-8008,1745154333571964668
299680,108,-679,-3093,4188,2677,-8130,1745154333571964668
299872,168,-721,-3170,4314,2678,-8227,1745154333571964668
300064,226,-759,-3244,4437,2638,-8396,1745154333630231948
300256,282,-805,-3315,4549,2590,-8506,1745154333630231948
300448,329,-852,-3383,4611,2488,-8568,1745154333630231948
300640,371,-908,-3440,4668,2314,-8543,1745154333630231948
300832,407,-960,-3485,4648,2147,-8468,1745154333630231948
301024,436,-1009,-3522,4601,1960,-8360,1745154333630231948
301216,450,-1054,-3562,4506,1760,-8265,1745154333630231948
301408,450,-1088,-3603,4371,1598,-8236,1745154333630231948
301600,441,-1117,-3636,4232,1428,-8188,1745154333630231948
301792,426,-1138,-3660,4081,1272,-8100,1745154333630231948
301984,401,-1153,-3674,3950,1135,-8010,1745154333630231948
302176,365,-1158,-3683,3810,927,-7984,1745154333630231948
302368,318,-1153,-3688,3694,702,-7951,1745154333688391469
302560,267,-1150,-3696,3579,511,-7997,1745154333688391469
302752,216,-1145,-3708,3460,384,-8117,1745154333688391469
302944,167,-1139,-3714,3305,281,-8208,1745154333688391469
303136,128,-1123,-3716,3171,222,-8271,1745154333688391469
303328,101,-1113,-3716,2996,216,-8320,1745154333688391469
303520,81,-1106,-3724,2811,252,-8283,1745154333688391469
303712,69,-1066,-3736,2663,221,-8302,1745154333688391469
303904,74,-1035,-3743,2548,159,-8239,1745154333688391469
304096,95,-1013,-3739,2481,104,-8083,1745154333688391469
304288,122,-993,-3727,2424,-31,-7877,1745154333688391469
304480,146,-975,-3716,2347,-189,-7692,1745154333688391469
304672,161,-963,-3709,2261,-415,-7507,1745154333744090700
304864,171,-941,-3705,2126,-658,-7451,1745154333744090700
305056,176,-918,-3697,2004,-921,-7587,1745154333744090700
305248,180,-886,-3678,1913,-1099,-7661,1745154333744090700
305440,188,-869,-3655,1802,-1189,-7712,1745154333744090700
305632,189,-826,-3638,1730,-1308,-7753,1745154333744090700
305824,181,-777,-3622,1741,-1394,-7873,1745154333744090700
306016,170,-741,-3607,1746,-1474,-8020,1745154333744090700
306208,162,-705,-3589,1812,-1536,-8093,1745154333744090700
306400,162,-669,-3568,1899,-1600,-8075,1745154333744090700
306592,161,-634,-3545,2004,-1690,-8034,1745154333744090700
306784,155,-607,-3523,2099,-1841,-7956,1745154333744090700
306976,146,-591,-3501,2137,-2023,-7825,1745154333805578419
307168,131,-585,-3473,2125,-2246,-7710,1745154333805578419
307360,112,-581,-3440,2057,-2416,-7599,1745154333805578419
307552,87,-577,-3409,1919,-2625,-7534,1745154333805578419
307744,66,-569,-3377,1753,-2821,-7476,1745154333805578419
307936,63,-561,-3340,1569,-2950,-7410,1745154333805578419
308128,81,-554,-3299,1405,-2992,-7479,1745154333805578419
308320,111,-544,-3260,1287,-2986,-7672,1745154333805578419
308512,137,-536,-3227,1242,-2931,-7717,1745154333805578419
308704,161,-527,-3202,1266,-2906,-7600,1745154333805578419
308896,185,-523,-3169,1281,-2958,-7463,1745154333805578419
309088,219,-523,-3128,1317,-3031,-7474,1745154333805578419
309280,258,-528,-3083,1297,-3060,-7647,1745154333872272341
309472,293,-533,-3042,1297,-3022,-7788,1745154333872272341
309664,306,-529,-3008,1360,-2944,-7775,1745154333872272341
309856,291,-516,-2975,1432,-2937,-7684,1745154333872272341
310048,254,-505,-2934,1545,-3006,-7625,1745154333872272341
310240,208,-504,-2883,1582,-3117,-7582,1745154333872272341
310432,159,-509,-2826,1564,-3253,-7594,1745154333872272341
310624,107,-512,-2769,1483,-3407,-7633,1745154333872272341
310816,50,-507,-2717,1350,-3489,-7700,1745154333872272341
311008,-7,-497,-2666,1232,-3499,-7749,1745154333872272341
311200,-57,-484,-2612,1139,-3414,-7684,1745154333872272341
311392,-97,-470,-2557,1089,-3314,-7648,1745154333872272341
311584,-133,-455,-2513,1092,-3215,-7695,1745154333920460807
311776,-163,-441,-2482,1057,-3175,-7825,1745154333920460807
311968,-184,-418,-2455,1011,-3086,-7893,1745154333920460807
312160,-194,-391,-2424,988,-2981,-7898,1745154333920460807
312352,-194,-366,-2382,1009,-2816,-7987,1745154333920460807
312544,-184,-344,-2335,999,-2697,-8150,1745154333920460807
312736,-171,-326,-2304,1169,-2721,-8264,1745154333920460807
312928,-158,-317,-2276,1179,-2441,-8262,1745154333920460807
313120,-139,-305,-2194,1206,-2385,-8250,1745154333920460807
313312,-118,-291,-2108,1253,-2404,-8248,1745154333920460807
313504,-106,-282,-2046,1316,-2520,-8315,1745154333920460807
313696,-96,-279,-1994,1315,-2611,-8309,1745154333920460807
313888,-90,-282,-1943,1292,-2760,-8318,1745154333980410624
314080,-94,-277,-1900,1190,-2833,-8268,1745154333980410624
314272,-115,-270,-1856,1134,-2892,-8209,1745154333980410624
314464,-145,-263,-1801,1080,-2886,-8092,1745154333980410624
314656,-173,-255,-1736,1061,-2886,-7922,1745154333980410624
314848,-198,-249,-1678,999,-2908,-7827,1745154333980410624
315040,-215,-241,-1632,908,-3012,-7834,1745154333980410624
315232,-231,-232,-1599,812,-3061,-7911,1745154333980410624
315424,-245,-221,-1551,699,-3082,-7937,1745154333980410624
315616,-255,-206,-1486,659,-3140,-7912,1745154333980410624
315808,-263,-184,-1423,664,-3180,-7895,1745154333980410624
316000,-266,-163,-1369,715,-3221,-7921,1745154333980410624
316192,-262,-144,-1324,775,-3213,-8053,1745154334040165704
316384,-254,-128,-1289,812,-3150,-8151,1745154334040165704
316576,-244,-120,-1260,892,-3107,-8165,1745154334040165704
316768,-227,-117,-1227,959,-3006,-8120,1745154334040165704
316960,-208,-114,-1189,1027,-2906,-8098,1745154334040165704
317152,-194,-102,-1149,1059,-2777,-8199,1745154334040165704
317344,-185,-92,-1114,1091,-2675,-8329,1745154334040165704
317536,-181,-85,-1082,1104,-2619,-8419,1745154334040165704
317728,-178,-82,-1049,1137,-2505,-8451,1745154334040165704
317920,-177,-79,-1009,1176,-2436,-8448,1745154334040165704
318112,-187,-71,-962,1185,-2414,-8404,1745154334040165704
318304,-201,-61,-911,1179,-2436,-8369,1745154334040165704
318496,-217,-48,-859,1188,-2513,-8336,1745154334096223629
318688,-231,-38,-809,1178,-2623,-8256,1745154334096223629
318880,-245,-30,-760,1155,-2727,-8135,1745154334096223629
319072,-259,-20,-712,1123,-2824,-8007,1745154334096223629
319264,-279,-10,-666,1085,-2908,-7915,1745154334096223629
319456,-303,4,-618,1032,-2992,-7779,1745154334096223629
319648,-318,16,-572,975,-3085,-7674,1745154334096223629
319840,-325,31,-532,925,-3119,-7687,1745154334096223629
320032,-327,51,-497,876,-3050,-7741,1745154334096223629
320224,-329,72,-468,869,-2923,-7761,1745154334096223629
320416,-330,96,-444,902,-2780,-7772,1745154334096223629
320608,-321,121,-422,955,-2658,-7864,1745154334096223629
320800,-302,142,-400,1013,-2551,-7994,1745154334156476881
320992,-276,160,-378,1120,-2436,-8060,1745154334156476881
321184,-248,180,-355,1247,-2323,-8094,1745154334156476881
321376,-225,197,-330,1382,-2214,-8086,1745154334156476881
321568,-211,213,-306,1527,-2185,-8089,1745154334156476881
321760,-204,226,-289,1649,-2183,-8114,1745154334156476881
321952,-200,231,-267,1730,-2188,-8041,1745154334156476881
322144,-194,229,-235,1777,-2217,-7940,1745154334156476881
322336,-189,220,-196,1782,-2247,-7843,1745154334156476881
322528,-191,219,-154,1734,-2297,-7753,1745154334156476881
322720,-198,222,-114,1694,-2353,-7711,1745154334156476881
322912,-206,231,-84,1609,-2415,-7687,1745154334156476881
323104,-216,243,-58,1521,-2465,-7640,1745154334212490327
323296,-226,257,-34,1464,-2504,-7625,1745154334212490327
323488,-238,277,-6,1433,-2507,-7677,1745154334212490327
323680,-251,300,26,1451,-2529,-7729,1745154334212490327
323872,-263,326,58,1487,-2473,-7813,1745154334212490327
324064,-275,353,90,1553,-2380,-7864,1745154334212490327
324256,-294,381,118,1651,-2247,-7906,1745154334212490327
324448,-310,405,139,1767,-2095,-7983,1745154334212490327
324640,-324,425,157,1888,-1939,-8007,1745154334212490327
324832,-332,440,170,2045,-1744,-7936,1745154334212490327
325024,-337,451,176,2179,-1589,-7899,1745154334212490327
325216,-336,459,178,2309,-1448,-7806,1745154334212490327
325408,-333,458,178,2370,-1346,-7761,1745154334278568317
325600,-328,453,176,2425,-1269,-7710,1745154334278568317
325792,-321,436,176,2460,-1246,-7599,1745154334278568317
325984,-309,419,176,2465,-1253,-7455,1745154334278568317
326176,-296,396,177,2432,-1262,-7340,1745154334278568317
326368,-279,374,184,2364,-1251,-7247,1745154334278568317
326560,-265,355,190,2278,-1232,-7225,1745154334278568317
326752,-257,342,191,2148,-1241,-7217,1745154334278568317
326944,-251,339,192,2018,-1216,-7180,1745154334278568317
327136,-244,344,199,1872,-1196,-7168,1745154334278568317
327328,-230,358,210,1775,-1163,-7190,1745154334278568317
327520,-216,377,221,1716,-1150,-7218,1745154334278568317
327712,-201,403,229,1708,-1091,-7235,1745154334330415396
327904,-185,435,234,1676,-1028,-7224,1745154334330415396
328096,-174,472,239,1697,-940,-7228,1745154334330415396
328288,-167,511,244,1747,-818,-7246,1745154334330415396
328480,-156,542,249,1832,-686,-7337,1745154334330415396
328672,-122,553,250,1940,-577,-7476,1745154334330415396
328864,-57,543,244,2122,-447,-7621,1745154334330415396
329056,26,514,236,2289,-325,-7785,1745154334330415396
329248,112,467,225,2464,-283,-7943,1745154334330415396
329440,185,394,203,2617,-353,-8095,1745154334330415396
329632,237,297,175,2743,-568,-8157,1745154334330415396
329824,266,189,144,2834,-846,-8226,1745154334330415396
330016,273,89,111,2807,-1130,-8309,1745154334390903072
330208,265,3,75,2744,-1252,-8290,1745154334390903072
330400,246,-54,50,2592,-1219,-8231,1745154334390903072
330592,210,-84,44,2397,-1132,-8207,1745154334390903072
330784,156,-99,54,2207,-1071,-8231,1745154334390903072
330976,104,-103,65,2031,-1039,-8236,1745154334390903072
331168,58,-94,71,1870,-1032,-8324,1745154334390903072
331360,16,-70,65,1722,-1018,-8498,1745154334390903072
331552,-31,-45,57,1569,-1007,-8734,1745154334390903072
331744,-82,-30,53,1456,-934,-8934,1745154334390903072
331936,-125,-20,53,1367,-792,-9123,1745154334390903072
332128,-152,-9,52,1327,-535,-9256,1745154334390903072
332320,-160,-3,49,1320,-252,-9359,1745154334449200092
332512,-156,7,45,1337,105,-9442,1745154334449200092
332704,-139,17,44,1378,379,-9465,1745154334449200092
332896,-101,27,42,1430,573,-9412,1745154334449200092
333088,-49,35,39,1520,672,-9328,1745154334449200092
333280,11,37,32,1642,622,-9253,1745154334449200092
333472,69,27,25,1735,476,-9142,1745154334449200092
333664,118,6,18,1820,246,-9000,1745154334449200092
333856,150,-22,8,1828,-45,-8835,1745154334449200092
334048,162,-52,-3,1784,-342,-8682,1745154334449200092
334240,157,-81,-11,1674,-607,-8496,1745154334449200092
334432,137,-106,-12,1500,-795,-8379,1745154334449200092
334624,105,-121,-5,1303,-905,-8266,1745154334507403727
334816,67,-125,8,1113,-971,-8178,1745154334507403727
335008,30,-117,20,919,-936,-8106,1745154334507403727
335200,0,-101,32,776,-895,-8034,1745154334507403727
335392,-21,-81,36,680,-810,-7928,1745154334507403727
335584,-30,-57,29,648,-736,-7874,1745154334507403727
335776,-30,-35,15,638,-679,-7855,1745154334507403727
335968,-23,-17,-1,662,-603,-7830,1745154334507403727
336160,-12,-2,-14,692,-556,-7826,1745154334507403727
336352,2,9,-22,741,-549,-7840,1745154334507403727
336544,15,17,-26,803,-522,-7864,1745154334507403727
336736,28,23,-25,856,-516,-7894,1745154334507403727
336928,43,21,-21,901,-528,-7935,1745154334566965370
337120,62,16,-13,939,-528,-7985,1745154334566965370
337312,80,9,-9,999,-572,-8032,1745154334566965370
337504,93,-1,-8,1021,-586,-8068,1745154334566965370
337696,99,-10,-9,1015,-619,-8090,1745154334566965370
337888,97,-16,-8,984,-679,-8123,1745154334566965370
338080,88,-23,-5,939,-702,-8147,1745154334566965370
338272,76,-25,0,892,-750,-8170,1745154334566965370
338464,61,-23,1,855,-763,-8191,1745154334566965370
338656,42,-16,-1,823,-769,-8202,1745154334566965370
338848,20,-7,-3,789,-742,-8204,1745154334566965370
339040,-2,1,-5,801,-717,-8202,1745154334566965370
339232,-24,8,-6,821,-647,-8190,1745154334625866707
339424,-42,15,-6,862,-593,-8166,1745154334625866707
339616,-56,20,-5,902,-540,-8155,1745154334625866707
339808,-65,23,-4,935,-490,-8133,1745154334625866707
340000,-69,23,-2,971,-445,-8136,1745154334625866707
340192,-66,20,-1,998,-394,-8090,1745154334625866707
340384,-57,15,-1,1009,-369,-8046,1745154334625866707
340576,-52,0,-3,1180,-545,-7761,1745154334625866707
340768,-254,-106,-35,1615,-1102,-7239,1745154334625866707
340960,-1029,-338,-214,1947,-5304,-6626,1745154334625866707
341152,-655,-335,-313,689,-3218,-9611,1745154334625866707
341344,-874,-96,-104,819,-3087,-7861,1745154334625866707
341536,-892,-102,-8,405,-172,-7489,1745154334693494162
341728,-736,-40,118,215,1667,-7238,1745154334693494162
341920,-514,27,150,229,2174,-7529,1745154334693494162
342112,-353,60,75,376,1815,-7779,1745154334693494162
342304,-258,92,-45,489,1209,-7909,1745154334693494162
342496,-174,98,-131,600,639,-7894,1745154334693494162
342688,-80,112,-145,684,248,-7923,1745154334693494162
342880,16,132,-107,861,149,-7996,1745154334693494162
343072,93,138,-46,1107,262,-8047,1745154334693494162
343264,138,128,8,1392,328,-8124,1745154334693494162
343456,153,90,36,1717,149,-8196,1745154334693494162
343648,144,35,30,1736,-225,-8238,1745154334693494162
345376,-43,-162,16,783,-508,-8244,1745154335640466970
379168,-34,-27,36,1159,717,-7562,1745154335640466970
379360,22,-118,9,652,-1190,-8520,1745154335640466970
379552,-29,-75,-31,730,-718,-8094,1745154335640466970
379744,20,-114,1,613,-396,-7923,1745154335640466970
379936,40,-83,44,599,-441,-8069,1745154335640466970
380128,46,-73,41,643,-412,-8031,1745154335640466970
380320,59,-70,25,700,-445,-8039,1745154335640466970
380512,49,-68,14,708,-564,-8031,1745154335640466970
380704,44,-62,8,684,-684,-8019,1745154335640466970
380896,34,-57,8,647,-755,-8053,1745154335640466970
381088,13,-49,17,623,-759,-8117,1745154335640466970
381280,-1,-38,23,610,-723,-8139,1745154335692850554
381472,-15,-32,20,595,-732,-8162,1745154335692850554
381664,-25,-18,14,601,-763,-8188,1745154335692850554
381856,-31,-9,6,585,-776,-8203,1745154335692850554
382048,-45,1,2,598,-800,-8228,1745154335692850554
382240,-58,14,1,613,-785,-8227,1745154335692850554
382432,-67,24,1,635,-701,-8260,1745154335692850554
382624,-68,33,3,662,-536,-8284,1745154335692850554
382816,-59,46,2,682,-385,-8327,1745154335692850554
383008,-41,57,-1,705,-250,-8393,1745154335692850554
383200,-17,72,-6,665,-174,-8446,1745154335692850554
383392,9,89,-13,632,-180,-8568,1745154335692850554
383584,40,108,-16,608,-142,-8705,1745154335753086879
383776,80,129,-16,626,-38,-8785,1745154335753086879
383968,127,155,-18,629,39,-8818,1745154335753086879
384160,177,175,-28,786,57,-8919,1745154335753086879
384352,227,178,-41,1040,-57,-9017,1745154335753086879
384544,258,141,-56,1313,-846,-8250,1745154335753086879
384736,126,92,-85,1593,-1670,-10081,1745154335753086879
384928,474,104,-59,2175,-57,-8931,1745154335753086879
385120,816,70,-2,2210,-443,-8147,1745154335753086879
385312,824,61,-16,1734,-96,-8854,1745154335753086879
385504,514,-114,-53,1851,-494,-8701,1745154335753086879
385696,526,-145,-62,1831,-997,-8826,1745154335753086879
385888,29,-147,-25,2544,-6625,-9337,1745154335819151536
386080,-417,-182,-201,2258,-6599,-9174,1745154335819151536
386272,-808,-186,-256,1644,-5240,-9223,1745154335819151536
386464,-1158,-126,-120,1412,-4492,-8338,1745154335819151536
386656,-1158,-79,-124,1216,-2344,-8546,1745154335819151536
386848,-1209,-49,-139,1209,-850,-8603,1745154335819151536
387040,-1211,-15,-207,1344,251,-8608,1745154335819151536
387232,-1114,9,-306,1481,924,-8838,1745154335819151536
387424,-931,31,-385,1667,1172,-8859,1745154335819151536
387616,-726,53,-411,1874,990,-8489,1745154335819151536
387808,-545,61,-393,2148,539,-8498,1745154335819151536
388000,-418,47,-363,2376,70,-8828,1745154335819151536
388192,-356,18,-350,2520,-248,-9073,1745154335868024266
388384,-343,-23,-356,2554,-414,-9178,1745154335868024266
388576,-337,-50,-371,2520,-407,-9043,1745154335868024266
388768,-333,-59,-386,2423,-411,-8891,1745154335868024266
388960,-328,-72,-398,2343,-446,-9062,1745154335868024266
389152,-306,-101,-411,2326,-522,-9267,1745154335868024266
389344,-252,-155,-426,2312,-625,-9034,1745154335868024266
389536,-183,-204,-436,2301,-766,-8654,1745154335868024266
389728,-129,-243,-442,2279,-963,-8645,1745154335868024266
389920,-105,-297,-441,2251,-1201,-8736,1745154335868024266
390112,-100,-363,-438,2191,-1400,-8823,1745154335868024266
390304,-107,-418,-430,2116,-1580,-9075,1745154335868024266
390496,-127,-454,-413,2122,-1756,-9561,1745154335928405694
390688,-144,-476,-387,2171,-1991,-9958,1745154335928405694
390880,-140,-520,-346,2220,-2361,-10093,1745154335928405694
391072,-132,-607,-286,2206,-2786,-9830,1745154335928405694
391264,-151,-677,-207,2152,-3057,-9585,1745154335928405694
391456,-212,-736,-145,2023,-3023,-9534,1745154335928405694
391648,-298,-803,-134,1736,-2802,-9313,1745154335928405694
391840,-408,-839,-172,1426,-2474,-9051,1745154335928405694
392032,-548,-830,-219,1136,-2061,-8881,1745154335928405694
392224,-715,-725,-146,1280,-1558,-8705,1745154335928405694
392416,-880,-591,101,1786,-1123,-8487,1745154335928405694
392608,-884,-641,334,2198,-723,-8515,1745154335928405694
392800,-704,-824,451,2360,-339,-8364,1745154335986737401
392992,-479,-993,481,2294,-116,-8243,1745154335986737401
393184,-301,-1070,480,2063,-359,-8160,1745154335986737401
393376,-163,-1068,495,1792,-985,-8150,1745154335986737401
393568,-25,-1059,557,1581,-1799,-8265,1745154335986737401
393760,100,-1071,658,1416,-2557,-8423,1745154335986737401
393952,178,-1097,769,1233,-3188,-8552,1745154335986737401
394144,197,-1112,872,1082,-3626,-8517,1745154335986737401
394336,168,-1100,956,919,-3940,-8288,1745154335986737401
394528,112,-1054,1016,772,-4158,-8049,1745154335986737401
394720,41,-991,1060,665,-4294,-7872,1745154335986737401
394912,-33,-927,1099,622,-4328,-7726,1745154335986737401
395104,-108,-870,1142,607,-4309,-7627,1745154336054884278
395296,-177,-822,1194,620,-4215,-7518,1745154336054884278
395488,-232,-775,1255,648,-4081,-7392,1745154336054884278
395680,-275,-730,1317,668,-3898,-7311,1745154336054884278
395872,-300,-686,1384,688,-3679,-7257,1745154336054884278
396064,-308,-646,1452,705,-3478,-7243,1745154336054884278
396256,-298,-609,1514,667,-3296,-7257,1745154336054884278
396448,-263,-573,1572,640,-3098,-7241,1745154336054884278
396640,-211,-541,1634,578,-2911,-7146,1745154336054884278
396832,-144,-506,1700,546,-2752,-6977,1745154336054884278
397024,-71,-468,1771,519,-2610,-6800,1745154336054884278
397216,4,-426,1839,480,-2545,-6641,1745154336054884278
397408,81,-384,1903,484,-2492,-6573,1745154336101852339
397600,158,-344,1966,421,-2528,-6515,1745154336101852339
397792,229,-293,2022,349,-2588,-6425,1745154336101852339
397984,291,-248,2072,290,-2670,-6450,1745154336101852339
398176,346,-195,2135,231,-2701,-6507,1745154336101852339
398368,396,-141,2209,211,-2713,-6545,1745154336101852339
398560,443,-85,2284,231,-2631,-6563,1745154336101852339
398752,484,-27,2357,322,-2502,-6661,1745154336101852339
398944,519,35,2423,432,-2360,-6880,1745154336101852339
399136,549,95,2475,537,-2183,-7120,1745154336101852339
399328,584,151,2519,687,-1920,-7296,1745154336101852339
399520,626,200,2563,830,-1645,-7429,1745154336101852339
399712,676,246,2612,1011,-1323,-7478,1745154336159999724
399904,730,286,2658,1156,-1065,-7505,1745154336159999724
400096,786,317,2694,1265,-797,-7544,1745154336159999724
400288,840,349,2723,1314,-637,-7618,1745154336159999724
400480,889,368,2744,1359,-571,-7550,1745154336159999724
400672,929,385,2760,1334,-613,-7424,1745154336159999724
400864,958,405,2778,1245,-680,-7331,1745154336159999724
401056,972,435,2806,1137,-839,-7347,1745154336159999724
401248,972,471,2832,992,-850,-7498,1745154336159999724
401440,959,519,2860,938,-785,-7705,1745154336159999724
401632,936,568,2886,974,-598,-7834,1745154336159999724
401824,911,611,2911,1111,-435,-7933,1745154336159999724
402016,887,643,2913,1298,-311,-8090,1745154336227109111
402208,873,674,2900,1441,-84,-8328,1745154336227109111
402400,871,701,2891,1558,195,-8579,1745154336227109111
402592,876,718,2882,1685,503,-8787,1745154336227109111
402784,880,733,2874,1782,828,-8907,1745154336227109111
402976,880,743,2862,1873,1068,-8890,1745154336227109111
403168,884,751,2845,1905,1216,-8799,1745154336227109111
403360,901,752,2838,1862,1298,-8711,1745154336227109111
403552,930,750,2840,1773,1340,-8632,1745154336227109111
403744,969,741,2854,1726,1318,-8444,1745154336227109111
403936,1004,722,2859,1680,1143,-8193,1745154336227109111
404128,1026,711,2838,1583,898,-7973,1745154336227109111
404320,1025,703,2802,1454,593,-7797,1745154336285347173
404512,1001,700,2763,1358,298,-7652,1745154336285347173
404704,955,701,2731,1232,8,-7451,1745154336285347173
404896,890,707,2704,1093,-201,-7277,1745154336285347173
405088,808,717,2681,1047,-335,-7228,1745154336285347173
405280,713,726,2647,996,-384,-7350,1745154336285347173
405472,614,748,2601,985,-315,-7454,1745154336285347173
405664,518,766,2556,991,-106,-7533,1745154336285347173
405856,434,788,2512,1085,108,-7611,1745154336285347173
406048,370,806,2477,1163,358,-7687,1745154336285347173
406240,335,819,2465,1256,518,-7706,1745154336285347173
406432,333,823,2456,1357,640,-7789,1745154336285347173
406624,358,816,2444,1439,762,-7879,1745154336335192603
406816,400,811,2436,1487,851,-7927,1745154336335192603
407008,448,806,2425,1523,868,-7912,1745154336335192603
407200,492,801,2411,1514,816,-7877,1745154336335192603
407392,529,804,2394,1496,715,-7904,1745154336335192603
407584,559,806,2380,1455,614,-7912,1745154336335192603
407776,580,815,2375,1428,534,-7897,1745154336335192603
407968,593,828,2372,1406,459,-7854,1745154336335192603
408160,600,845,2371,1410,380,-7796,1745154336335192603
408352,603,862,2370,1447,338,-7731,1745154336335192603
408544,606,876,2366,1491,278,-7624,1745154336335192603
408736,610,891,2356,1528,193,-7555,1745154336335192603
408928,613,909,2337,1575,72,-7486,1745154336395885590
409120,614,927,2313,1569,-9,-7426,1745154336395885590
409312,612,946,2293,1626,-137,-7436,1745154336395885590
409504,610,962,2279,1626,-217,-7461,1745154336395885590
409696,610,976,2269,1653,-289,-7477,1745154336395885590
409888,612,988,2257,1695,-369,-7495,1745154336395885590
410080,612,1002,2235,1748,-424,-7515,1745154336395885590
410272,609,1021,2208,1800,-459,-7599,1745154336395885590
410464,602,1037,2179,1860,-512,-7681,1745154336395885590
410656,595,1056,2155,1940,-567,-7756,1745154336395885590
410848,591,1071,2141,2048,-587,-7808,1745154336395885590
411040,595,1084,2138,2166,-599,-7881,1745154336395885590
411232,607,1092,2138,2297,-603,-7964,1745154336454425837
411424,619,1093,2135,2412,-637,-8005,1745154336454425837
411616,637,1092,2124,2494,-694,-8077,1745154336454425837
411808,654,1091,2112,2568,-773,-8144,1745154336454425837
412000,670,1084,2108,2621,-882,-8205,1745154336454425837
412192,681,1079,2108,2644,-1034,-8221,1745154336454425837
412384,682,1071,2106,2650,-1175,-8223,1745154336454425837
412576,667,1067,2104,2657,-1312,-8177,1745154336454425837
412768,631,1068,2098,2660,-1462,-8069,1745154336454425837
412960,581,1061,2094,2670,-1618,-7988,1745154336454425837
413152,510,1055,2090,2663,-1711,-7925,1745154336454425837
413344,416,1044,2077,2626,-1795,-7991,1745154336454425837
413536,307,1035,2067,2537,-1921,-7986,1745154336516492978
413728,205,1026,2061,2468,-1991,-7915,1745154336516492978
413920,101,1019,2063,2369,-1968,-7881,1745154336516492978
414112,-11,1018,2068,2332,-1893,-7909,1745154336516492978
414304,-127,1021,2070,2324,-1818,-7910,1745154336516492978
414496,-245,1032,2062,2367,-1744,-7949,1745154336516492978
414688,-357,1045,2047,2434,-1711,-8044,1745154336516492978
414880,-456,1061,2038,2550,-1664,-8222,1745154336516492978
415072,-531,1068,2037,2700,-1604,-8350,1745154336516492978
415264,-576,1065,2040,2911,-1437,-8371,1745154336516492978
415456,-598,1051,2036,3107,-1162,-8374,1745154336516492978
415648,-596,1026,2019,3296,-843,-8325,1745154336516492978
415840,-574,999,1985,3469,-497,-8183,1745154336570350090
416032,-522,960,1938,3592,-233,-8166,1745154336570350090
416224,-453,910,1886,3677,-21,-8092,1745154336570350090
416416,-361,853,1837,3713,66,-8058,1745154336570350090
416608,-255,786,1793,3685,57,-8017,1745154336570350090
416800,-148,719,1749,3595,-51,-7965,1745154336570350090
416992,-54,652,1702,3487,-208,-7909,1745154336570350090
417184,7,590,1651,3334,-432,-7855,1745154336570350090
417376,26,538,1597,3161,-658,-7841,1745154336570350090
417568,5,490,1548,2964,-923,-7811,1745154336570350090
417760,-40,451,1505,2769,-1260,-7795,1745154336570350090
417952,-96,421,1469,2573,-1583,-7749,1745154336570350090
418144,-161,399,1437,2399,-1827,-7648,1745154336636366258
418336,-244,387,1403,2296,-1975,-7574,1745154336636366258
418528,-343,382,1370,2212,-2086,-7515,1745154336636366258
418720,-451,381,1341,2157,-2061,-7512,1745154336636366258
418912,-558,375,1320,2092,-1964,-7555,1745154336636366258
419104,-658,367,1291,2038,-1828,-7592,1745154336636366258
419296,-746,367,1253,1972,-1658,-7705,1745154336636366258
419488,-815,370,1206,1938,-1426,-7762,1745154336636366258
419680,-857,371,1162,1961,-1143,-7760,1745154336636366258
419872,-869,371,1127,2027,-796,-7805,1745154336636366258
420064,-855,365,1095,2082,-482,-7874,1745154336636366258
420256,-823,354,1053,2147,-224,-7895,1745154336636366258
420448,-772,333,1000,2166,-88,-7910,1745154336692394392
420640,-706,306,949,2157,-21,-7896,1745154336692394392
420832,-625,282,905,2133,-19,-7871,1745154336692394392
421024,-536,257,874,2100,-88,-7818,1745154336692394392
421216,-445,236,849,2031,-237,-7744,1745154336692394392
421408,-365,213,823,1953,-431,-7712,1745154336692394392
421600,-303,191,791,1845,-659,-7621,1745154336692394392
421792,-260,172,756,1757,-873,-7535,1745154336692394392
421984,-232,161,730,1654,-1090,-7515,1745154336692394392
422176,-220,157,712,1563,-1281,-7562,1745154336692394392
422368,-228,159,693,1487,-1402,-7618,1745154336692394392
422560,-250,163,672,1453,-1449,-7668,1745154336692394392
422752,-286,169,652,1399,-1460,-7708,1745154336745451616
422944,-330,180,633,1388,-1413,-7718,1745154336745451616
423136,-372,192,622,1376,-1319,-7770,1745154336745451616
423328,-404,206,613,1397,-1160,-7824,1745154336745451616
423520,-429,221,602,1445,-1016,-7892,1745154336745451616
423712,-444,235,585,1507,-876,-7893,1745154336745451616
423904,-443,244,562,1605,-716,-7877,1745154336745451616
424096,-429,248,534,1693,-576,-7859,1745154336745451616
424288,-406,246,506,1747,-438,-7807,1745154336745451616
424480,-370,237,483,1784,-392,-7799,1745154336745451616
424672,-322,221,460,1804,-385,-7767,1745154336745451616
424864,-271,202,434,1804,-450,-7691,1745154336745451616
425056,-227,182,408,1757,-616,-7595,1745154336805035186
425248,-185,160,385,1699,-818,-7536,1745154336805035186
425440,-149,142,370,1591,-1046,-7524,1745154336805035186
425632,-127,126,358,1479,-1196,-7559,1745154336805035186
425824,-121,116,348,1358,-1278,-7665,1745154336805035186
426016,-130,113,337,1264,-1305,-7756,1745154336805035186
426208,-142,113,324,1205,-1267,-7767,1745154336805035186
426400,-147,119,311,1151,-1214,-7786,1745154336805035186
426592,-144,130,301,1144,-1164,-7884,1745154336805035186
426784,-138,142,291,1196,-1044,-7994,1745154336805035186
426976,-130,151,283,1264,-958,-8092,1745154336805035186
427168,-119,156,275,1354,-877,-8195,1745154336805035186
427360,-105,155,265,1444,-835,-8240,1745154336865595154
427552,-93,150,255,1522,-820,-8226,1745154336865595154
427744,-84,140,244,1573,-892,-8183,1745154336865595154
427936,-71,129,233,1588,-963,-8187,1745154336865595154
428128,-59,115,225,1577,-1016,-8193,1745154336865595154
428320,-55,101,216,1543,-1063,-8132,1745154336865595154
428512,-60,90,204,1468,-1163,-8070,1745154336865595154
428704,-61,84,188,1440,-1275,-8016,1745154336865595154
428896,-56,81,175,1370,-1332,-7974,1745154336865595154
429088,-42,77,171,1339,-1367,-7949,1745154336865595154
429280,-24,75,172,1331,-1378,-7953,1745154336865595154
429472,-11,74,172,1332,-1357,-7999,1745154336865595154
429664,-8,74,166,1328,-1326,-8068,1745154336919882626
429856,-9,73,158,1349,-1314,-8117,1745154336919882626
430048,-10,72,150,1374,-1319,-8174,1745154336919882626
430240,-7,72,146,1414,-1340,-8210,1745154336919882626
430432,-7,70,145,1454,-1376,-8210,1745154336919882626
430624,-14,68,141,1496,-1408,-8230,1745154336919882626
430816,-29,63,132,1524,-1377,-8233,1745154336919882626
431008,-49,56,124,1529,-1397,-8229,1745154336919882626
431200,-67,50,118,1505,-1347,-8206,1745154336919882626
431392,-76,45,114,1468,-1287,-8136,1745154336919882626
431584,-76,40,106,1425,-1192,-8114,1745154336919882626
431776,-74,37,93,1376,-1134,-8130,1745154336919882626
431968,-68,31,78,1336,-1154,-8133,1745154336983712981
432160,-53,28,63,1296,-1204,-8094,1745154336983712981
432352,-30,25,51,1289,-1262,-8091,1745154336983712981
432544,-12,24,45,1292,-1329,-8100,1745154336983712981
432736,-3,22,39,1323,-1444,-8098,1745154336983712981
432928,0,20,33,1347,-1551,-8065,1745154336983712981
433120,3,17,25,1377,-1632,-8059,1745154336983712981
433312,3,14,21,1393,-1682,-8083,1745154336983712981
433504,-8,9,20,1429,-1727,-8113,1745154336983712981
433696,-29,3,20,1452,-1724,-8138,1745154336983712981
433888,-54,-1,18,1469,-1699,-8150,1745154336983712981
434080,-78,-6,15,1469,-1650,-8162,1745154336983712981
434272,-99,-10,10,1468,-1546,-8160,1745154337041883439
434464,-113,-14,6,1462,-1465,-8162,1745154337041883439
434656,-116,-18,5,1453,-1390,-8136,1745154337041883439
434848,-108,-22,2,1447,-1309,-8102,1745154337041883439
435040,-92,-26,-4,1436,-1259,-8077,1745154337041883439
435232,-73,-28,-14,1419,-1234,-8057,1745154337041883439
435424,-50,-30,-25,1405,-1284,-8022,1745154337041883439
435616,-25,-33,-34,1409,-1364,-8004,1745154337041883439
435808,-4,-36,-41,1406,-1470,-7987,1745154337041883439
436000,9,-39,-48,1425,-1572,-7939,1745154337041883439
436192,19,-43,-53,1436,-1675,-7892,1745154337041883439
436384,24,-46,-58,1418,-1740,-7886,1745154337041883439
436576,22,-49,-61,1423,-1749,-7882,1745154337096529815
436768,14,-50,-62,1419,-1756,-7877,1745154337096529815
436960,4,-52,-62,1424,-1755,-7922,1745154337096529815
437152,-5,-54,-61,1422,-1744,-7923,1745154337096529815
437344,-14,-57,-61,1406,-1758,-7911,1745154337096529815
437536,-22,-59,-60,1415,-1787,-7878,1745154337096529815
437728,-27,-60,-58,1404,-1776,-7886,1745154337096529815
437920,-36,-60,-56,1381,-1754,-7877,1745154337096529815
438112,-47,-60,-54,1373,-1740,-7857,1745154337096529815
438304,-55,-61,-54,1364,-1748,-7812,1745154337096529815
438496,-55,-62,-54,1345,-1714,-7790,1745154337096529815
438688,-51,-62,-53,1324,-1730,-7788,1745154337096529815
438880,-48,-60,-53,1316,-1738,-7756,1745154337157506966
439072,-46,-57,-55,1305,-1729,-7759,1745154337157506966
439264,-47,-52,-59,1307,-1738,-7781,1745154337157506966
439456,-51,-50,-62,1315,-1742,-7771,1745154337157506966
439648,-54,-45,-64,1355,-1755,-7755,1745154337157506966
439840,-53,-42,-62,1385,-1799,-7741,1745154337157506966
440032,-47,-40,-60,1410,-1855,-7713,1745154337157506966
440224,-31,-40,-58,1427,-1906,-7704,1745154337157506966
440416,-14,-40,-56,1415,-1871,-7711,1745154337157506966
440608,-5,-41,-53,1373,-1844,-7727,1745154337157506966
440800,-4,-39,-50,1340,-1812,-7708,1745154337157506966
440992,-1,-37,-46,1306,-1871,-7723,1745154337157506966
441184,3,-33,-41,1288,-1891,-7762,1745154337258338649
441376,3,-29,-35,1283,-1887,-7742,1745154337258338649
441568,1,-27,-30,1304,-1920,-7707,1745154337258338649
441760,3,-25,-23,1318,-1956,-7721,1745154337258338649
441952,8,-23,-16,1331,-1916,-7785,1745154337258338649
442144,7,-24,-10,1347,-1873,-7832,1745154337258338649
442336,0,-24,-7,1359,-1841,-7838,1745154337258338649
442528,-4,-27,-7,1353,-1848,-7797,1745154337258338649
442720,0,-31,-8,1356,-1885,-7751,1745154337258338649
442912,3,-33,-9,1340,-1943,-7727,1745154337258338649
443104,-1,-34,-8,1333,-2015,-7700,1745154337258338649
443296,-6,-34,-7,1330,-2103,-7621,1745154337258338649
443488,-11,-34,-3,1308,-2177,-7564,1745154337279257677
443680,-15,-32,3,1272,-2166,-7540,1745154337279257677
443872,-22,-27,13,1233,-2121,-7557,1745154337279257677
444064,-35,-22,21,1228,-2054,-7547,1745154337279257677
444256,-43,-15,31,1207,-1985,-7521,1745154337279257677
444448,-35,-6,42,1210,-1934,-7547,1745154337279257677
444640,-19,5,54,1218,-1836,-7595,1745154337279257677
444832,-3,13,65,1243,-1747,-7662,1745154337279257677
445024,7,22,74,1276,-1669,-7693,1745154337279257677
445216,19,30,77,1311,-1681,-7737,1745154337279257677
445408,34,36,79,1333,-1686,-7749,1745154337279257677
445600,50,41,82,1364,-1754,-7773,1745154337279257677
445792,62,43,84,1383,-1786,-7789,1745154337353512988
445984,65,45,87,1379,-1818,-7809,1745154337353512988
446176,57,45,87,1405,-1811,-7796,1745154337353512988
446368,41,45,82,1428,-1788,-7784,1745154337353512988
446560,23,45,74,1438,-1788,-7722,1745154337353512988
446752,7,43,67,1457,-1825,-7676,1745154337353512988
446944,0,41,59,1447,-1841,-7680,1745154337353512988
447136,1,36,53,1447,-1831,-7705,1745154337353512988
447328,5,31,48,1440,-1761,-7745,1745154337353512988
447520,9,25,41,1465,-1702,-7785,1745154337353512988
447712,16,18,32,1466,-1649,-7786,1745154337353512988
447904,27,11,20,1471,-1632,-7780,1745154337353512988
448096,40,3,9,1463,-1645,-7770,1745154337392771952
448288,51,-4,1,1440,-1693,-7780,1745154337392771952
448480,55,-9,-7,1419,-1739,-7768,1745154337392771952
448672,55,-14,-13,1419,-1797,-7738,1745154337392771952
448864,52,-17,-18,1397,-1892,-7723,1745154337392771952
449056,50,-16,-18,1385,-1912,-7746,1745154337392771952
449248,40,-13,-18,1376,-1940,-7776,1745154337392771952
449440,20,-10,-18,1375,-1935,-7769,1745154337392771952
449632,3,-9,-17,1386,-1937,-7770,1745154337392771952
449824,-6,-6,-16,1361,-1932,-7771,1745154337392771952
450016,-8,-5,-15,1351,-1916,-7767,1745154337392771952
450208,-13,-3,-13,1331,-1884,-7779,1745154337392771952
450400,-19,0,-11,1322,-1832,-7820,1745154337455286329
450592,-22,2,-11,1302,-1808,-7854,1745154337455286329
450784,-21,4,-12,1277,-1753,-7899,1745154337455286329
450976,-17,8,-14,1277,-1718,-7926,1745154337455286329
451168,-13,12,-18,1277,-1675,-7913,1745154337455286329
451360,-10,14,-23,1316,-1645,-7902,1745154337455286329
451552,-4,15,-28,1342,-1642,-7915,1745154337455286329
451744,2,14,-35,1390,-1643,-7895,1745154337455286329
451936,11,10,-41,1424,-1654,-7862,1745154337455286329
452128,23,3,-48,1432,-1693,-7796,1745154337455286329
452320,35,-5,-55,1453,-1730,-7750,1745154337455286329
452512,45,-14,-62,1429,-1754,-7729,1745154337455286329
452704,53,-21,-68,1391,-1741,-7732,1745154337505892690
452896,54,-29,-74,1367,-1661,-7718,1745154337505892690
453088,51,-32,-81,1326,-1629,-7732,1745154337505892690
453280,48,-32,-88,1328,-1552,-7754,1745154337505892690
453472,46,-31,-98,1348,-1451,-7762,1745154337505892690
453664,46,-31,-107,1383,-1371,-7768,1745154337505892690
453856,48,-30,-119,1425,-1265,-7817,1745154337505892690
454048,47,-31,-135,1471,-1158,-7868,1745154337505892690
454240,44,-35,-153,1519,-1066,-7908,1745154337505892690
454432,38,-38,-173,1567,-943,-7949,1745154337505892690
454624,33,-41,-195,1600,-823,-7997,1745154337505892690
454816,30,-46,-224,1615,-724,-8080,1745154337505892690
455008,32,-52,-258,1628,-580,-8160,1745154337564670903
455200,36,-57,-300,1653,-393,-8247,1745154337564670903
455392,41,-62,-350,1701,-177,-8348,1745154337564670903
455584,45,-69,-407,1746,56,-8423,1745154337564670903
455776,51,-79,-470,1810,286,-8435,1745154337564670903
455968,62,-91,-538,1895,537,-8424,1745154337564670903
456160,78,-105,-612,1988,774,-8376,1745154337564670903
456352,102,-122,-691,2066,999,-8343,1745154337564670903
456544,139,-138,-772,2195,1227,-8316,1745154337564670903
456736,183,-157,-858,2299,1394,-8226,1745154337564670903
456928,241,-176,-947,2438,1467,-8214,1745154337564670903
457120,308,-198,-1037,2579,1473,-8211,1745154337564670903
457312,377,-222,-1126,2703,1386,-8247,1745154337623079588
457504,439,-253,-1216,2817,1183,-8266,1745154337623079588
457696,490,-288,-1311,2937,871,-8204,1745154337623079588
457888,531,-326,-1399,2994,623,-8105,1745154337623079588
458080,559,-357,-1480,3024,432,-8017,1745154337623079588
458272,575,-383,-1552,3077,328,-7937,1745154337623079588
458464,581,-407,-1615,3100,312,-7814,1745154337623079588
458656,585,-427,-1672,3157,350,-7711,1745154337623079588
458848,589,-449,-1730,3195,421,-7689,1745154337623079588
459040,597,-468,-1785,3258,486,-7729,1745154337623079588
459232,607,-486,-1837,3331,523,-7773,1745154337623079588
459424,617,-503,-1891,3424,534,-7819,1745154337623079588
459616,622,-522,-1943,3538,486,-7818,1745154337680942601
459808,620,-549,-1993,3660,352,-7778,1745154337680942601
460000,608,-582,-2039,3716,160,-7716,1745154337680942601
460192,587,-619,-2080,3743,-57,-7661,1745154337680942601
460384,554,-651,-2117,3731,-227,-7677,1745154337680942601
460576,510,-677,-2153,3699,-306,-7702,1745154337680942601
460768,458,-698,-2189,3647,-348,-7675,1745154337680942601
460960,407,-718,-2226,3597,-345,-7609,1745154337680942601
461152,364,-735,-2263,3559,-319,-7539,1745154337680942601
461344,328,-749,-2299,3500,-252,-7492,1745154337680942601
461536,301,-759,-2334,3457,-191,-7528,1745154337680942601
461728,285,-768,-2367,3430,-184,-7605,1745154337680942601
461920,281,-777,-2397,3418,-150,-7669,1745154337739907219
462112,286,-785,-2427,3415,-134,-7715,1745154337739907219
462304,300,-791,-2455,3427,-135,-7763,1745154337739907219
462496,318,-798,-2480,3454,-168,-7853,1745154337739907219
462688,335,-808,-2504,3477,-184,-7934,1745154337739907219
462880,351,-820,-2530,3517,-205,-7985,1745154337739907219
463072,367,-835,-2555,3526,-239,-8012,1745154337739907219
463264,381,-853,-2578,3548,-277,-8015,1745154337739907219
463456,395,-872,-2597,3536,-324,-8016,1745154337739907219
463648,405,-892,-2613,3519,-385,-8077,1745154337739907219
463840,409,-912,-2626,3495,-432,-8061,1745154337739907219
464032,406,-931,-2641,3482,-473,-7966,1745154337739907219
464224,397,-947,-2655,3457,-550,-7850,1745154337795759729
464416,380,-962,-2670,3448,-667,-7755,1745154337795759729
464608,358,-975,-2683,3399,-754,-7674,1745154337795759729
464800,337,-992,-2693,3355,-891,-7630,1745154337795759729
464992,315,-1013,-2706,3275,-1034,-7544,1745154337795759729
465184,292,-1038,-2720,3163,-1197,-7488,1745154337795759729
465376,263,-1061,-2732,3030,-1361,-7489,1745154337795759729
465568,228,-1080,-2746,2896,-1492,-7491,1745154337795759729
465760,186,-1098,-2763,2766,-1617,-7529,1745154337795759729
465952,137,-1113,-2779,2619,-1724,-7572,1745154337795759729
466144,83,-1125,-2794,2494,-1768,-7642,1745154337795759729
466336,28,-1130,-2808,2358,-1769,-7708,1745154337795759729
466528,-27,-1127,-2821,2263,-1725,-7756,1745154337861772199
466720,-77,-1119,-2837,2158,-1602,-7771,1745154337861772199
466912,-115,-1106,-2853,2090,-1453,-7884,1745154337861772199
467104,-141,-1093,-2865,2038,-1277,-7949,1745154337861772199
467296,-151,-1080,-2872,2028,-1149,-7923,1745154337861772199
467488,-146,-1071,-2875,2037,-1053,-7838,1745154337861772199
467680,-127,-1068,-2874,2053,-1111,-7818,1745154337861772199
467872,-98,-1066,-2869,2028,-1194,-7792,1745154337861772199
468064,-66,-1063,-2857,1974,-1301,-7783,1745154337861772199
468256,-32,-1060,-2842,1895,-1441,-7838,1745154337861772199
468448,3,-1053,-2826,1805,-1555,-7927,1745154337861772199
468640,28,-1045,-2815,1755,-1616,-7914,1745154337861772199
468832,44,-1035,-2808,1691,-1654,-7821,1745154337919197508
469024,55,-1023,-2802,1626,-1716,-7739,1745154337919197508
469216,69,-1012,-2794,1550,-1767,-7718,1745154337919197508
469408,90,-996,-2780,1466,-1780,-7768,1745154337919197508
469600,117,-987,-2765,1420,-1769,-7773,1745154337919197508
469792,147,-970,-2750,1368,-1770,-7726,1745154337919197508
469984,177,-955,-2741,1338,-1856,-7584,1745154337919197508
470176,207,-942,-2735,1306,-2017,-7471,1745154337919197508
470368,238,-933,-2727,1277,-2202,-7473,1745154337919197508
470560,265,-930,-2713,1227,-2369,-7518,1745154337919197508
470752,278,-927,-2696,1152,-2506,-7557,1745154337919197508
470944,277,-925,-2681,1119,-2649,-7573,1745154337919197508
471136,265,-922,-2668,1078,-2740,-7539,1745154337976589796
471328,246,-918,-2658,1006,-2791,-7493,1745154337976589796
471520,221,-917,-2648,931,-2800,-7471,1745154337976589796
471712,187,-911,-2635,861,-2752,-7436,1745154337976589796
471904,149,-900,-2618,801,-2704,-7429,1745154337976589796
472096,115,-885,-2595,738,-2651,-7450,1745154337976589796
472288,89,-864,-2566,688,-2595,-7485,1745154337976589796
472480,69,-840,-2534,702,-2535,-7557,1745154337976589796
472672,57,-817,-2501,734,-2492,-7642,1745154337976589796
472864,55,-795,-2470,803,-2468,-7739,1745154337976589796
473056,61,-778,-2442,875,-2475,-7740,1745154337976589796
473248,71,-766,-2413,972,-2485,-7687,1745154337976589796
473440,79,-757,-2385,1045,-2567,-7650,1745154338038301212
473632,80,-754,-2357,1102,-2658,-7628,1745154338038301212
473824,73,-757,-2330,1103,-2765,-7588,1745154338038301212
474016,55,-761,-2306,1072,-2873,-7571,1745154338038301212
474208,25,-764,-2281,1005,-2972,-7498,1745154338038301212
474400,-18,-767,-2259,920,-3064,-7381,1745154338038301212
474592,-68,-765,-2236,781,-3126,-7310,1745154338038301212
474784,-118,-759,-2209,622,-3177,-7355,1745154338038301212
474976,-170,-747,-2180,468,-3157,-7405,1745154338038301212
475168,-226,-729,-2151,363,-3070,-7481,1745154338038301212
475360,-284,-704,-2120,298,-2970,-7493,1745154338038301212
475552,-336,-676,-2087,313,-2886,-7443,1745154338038301212
475744,-373,-649,-2053,333,-2801,-7452,1745154338094532469
475936,-399,-620,-2017,383,-2674,-7591,1745154338094532469
476128,-422,-592,-1986,413,-2515,-7815,1745154338094532469
476320,-444,-563,-1961,511,-2293,-7952,1745154338094532469
476512,-465,-537,-1938,612,-2040,-7940,1745154338094532469
476704,-479,-516,-1915,705,-1865,-7864,1745154338094532469
476896,-478,-505,-1889,786,-1759,-7767,1745154338094532469
477088,-454,-501,-1857,773,-1742,-7665,1745154338094532469
477280,-413,-501,-1821,711,-1783,-7593,1745154338094532469
477472,-366,-503,-1789,613,-1846,-7484,1745154338094532469
477664,-322,-497,-1759,450,-1933,-7381,1745154338094532469
477856,-289,-487,-1732,325,-1957,-7297,1745154338094532469
478048,-269,-468,-1708,211,-1970,-7308,1745154338148063230
478240,-262,-440,-1685,108,-1933,-7384,1745154338148063230
478432,-260,-410,-1661,120,-1857,-7444,1745154338148063230
478624,-257,-385,-1638,192,-1766,-7440,1745154338148063230
478816,-254,-366,-1616,336,-1715,-7392,1745154338148063230
479008,-252,-353,-1593,451,-1745,-7388,1745154338148063230
479200,-246,-346,-1561,503,-1816,-7367,1745154338148063230
479392,-236,-344,-1515,522,-1905,-7432,1745154338148063230
479584,-226,-347,-1468,512,-2026,-7532,1745154338148063230
479776,-218,-352,-1424,455,-2153,-7569,1745154338148063230
479968,-210,-357,-1390,402,-2327,-7573,1745154338148063230
480160,-205,-359,-1366,322,-2536,-7537,1745154338148063230
480352,-205,-358,-1352,235,-2735,-7529,1745154338218979561
480544,-214,-353,-1332,171,-2831,-7566,1745154338218979561
480736,-233,-351,-1302,99,-2859,-7562,1745154338218979561
480928,-257,-344,-1268,87,-2867,-7542,1745154338218979561
481120,-288,-329,-1243,37,-2780,-7539,1745154338218979561
481312,-316,-312,-1223,17,-2623,-7519,1745154338218979561
481504,-338,-290,-1197,10,-2489,-7553,1745154338218979561
481696,-355,-267,-1167,22,-2308,-7617,1745154338218979561
481888,-364,-241,-1135,15,-2137,-7751,1745154338218979561
482080,-364,-217,-1104,68,-1956,-7934,1745154338218979561
482272,-356,-192,-1079,129,-1778,-8101,1745154338218979561
482464,-346,-168,-1065,207,-1553,-8271,1745154338218979561
482656,-330,-147,-1027,296,-1375,-8344,1745154338273288128
482848,-305,-133,-977,368,-1283,-8430,1745154338273288128
483040,-272,-119,-931,446,-1200,-8487,1745154338273288128
483232,-233,-107,-887,505,-1154,-8470,1745154338273288128
483424,-190,-95,-843,538,-1181,-8429,1745154338273288128
483616,-144,-83,-806,571,-1260,-8345,1745154338273288128
483808,-99,-76,-774,562,-1413,-8255,1745154338273288128
484000,-63,-71,-747,568,-1576,-8180,1745154338273288128
484192,-38,-69,-725,516,-1792,-8101,1745154338273288128
484384,-27,-65,-711,485,-2032,-8000,1745154338273288128
484576,-32,-59,-702,431,-2288,-7844,1745154338273288128
484768,-44,-55,-691,366,-2487,-7672,1745154338273288128
484960,-61,-53,-665,273,-2623,-7512,1745154338336687028
485152,-83,-47,-632,196,-2717,-7460,1745154338336687028
485344,-111,-35,-599,109,-2717,-7455,1745154338336687028
485536,-145,-17,-571,20,-2683,-7378,1745154338336687028
485728,-179,6,-550,-21,-2608,-7406,1745154338336687028
485920,-206,37,-534,-37,-2448,-7582,1745154338336687028
486112,-226,71,-516,4,-2209,-7782,1745154338336687028
486304,-236,107,-495,129,-1873,-7971,1745154338336687028
486496,-234,142,-473,317,-1589,-8103,1745154338336687028
486688,-221,175,-454,523,-1341,-8227,1745154338336687028
486880,-200,202,-438,743,-1173,-8310,1745154338336687028
487072,-176,210,-420,969,-1045,-8316,1745154338336687028
487264,-151,212,-395,1116,-1093,-8316,1745154338384651642
487456,-126,203,-366,1244,-1230,-8291,1745154338384651642
487648,-100,187,-337,1282,-1446,-8270,1745154338384651642
487840,-81,174,-314,1232,-1641,-8243,1745154338384651642
488032,-73,165,-299,1155,-1814,-8125,1745154338384651642
488224,-78,163,-288,1045,-1952,-7966,1745154338384651642
488416,-90,167,-279,934,-2054,-7807,1745154338384651642
488608,-106,177,-273,837,-2100,-7668,1745154338384651642
488800,-122,188,-269,799,-2105,-7549,1745154338384651642
488992,-143,203,-269,759,-2060,-7419,1745154338384651642
489184,-167,225,-272,741,-2042,-7279,1745154338384651642
489376,-193,249,-277,754,-1982,-7193,1745154338384651642
489568,-214,275,-277,749,-1880,-7333,1745154338446343734
489760,-228,303,-269,800,-1780,-7511,1745154338446343734
489952,-233,327,-255,901,-1588,-7679,1745154338446343734
490144,-228,352,-242,1058,-1370,-7793,1745154338446343734
490336,-213,373,-228,1239,-1158,-7904,1745154338446343734
490528,-192,390,-216,1424,-1012,-8002,1745154338446343734
490720,-161,401,-205,1594,-947,-8081,1745154338446343734
490912,-124,402,-192,1761,-907,-8157,1745154338446343734
491104,-84,396,-175,1873,-932,-8227,1745154338446343734
491296,-47,382,-152,1956,-994,-8226,1745154338446343734
491488,-14,363,-130,2008,-1101,-8173,1745154338446343734
491680,14,341,-112,2022,-1257,-8122,1745154338446343734
491872,36,320,-93,1961,-1404,-8051,1745154338513663067
492064,54,301,-71,1892,-1581,-7943,1745154338513663067
492256,65,286,-52,1799,-1691,-7868,1745154338513663067
492448,66,276,-38,1695,-1791,-7742,1745154338513663067
492640,60,275,-32,1588,-1887,-7612,1745154338513663067
492832,46,278,-35,1443,-1954,-7524,1745154338513663067
493024,28,288,-42,1322,-1963,-7542,1745154338513663067
493216,7,307,-46,1223,-1945,-7583,1745154338513663067
493408,-16,335,-45,1148,-1873,-7575,1745154338513663067
493600,-36,365,-36,1127,-1790,-7566,1745154338513663067
493792,-53,404,-19,1136,-1758,-7626,1745154338513663067
493984,-62,438,-6,1219,-1673,-7705,1745154338513663067
494176,-66,468,0,1320,-1616,-7754,1745154338561451381
494368,-52,498,14,1442,-1524,-7745,1745154338561451381
494560,-37,518,39,1560,-1501,-7717,1745154338561451381
494752,-26,533,67,1702,-1528,-7717,1745154338561451381
494944,-13,540,94,1838,-1555,-7655,1745154338561451381
495136,2,537,123,1929,-1627,-7569,1745154338561451381
495328,14,529,148,1976,-1659,-7488,1745154338561451381
495520,18,518,171,2010,-1727,-7426,1745154338561451381
495712,9,509,190,1995,-1779,-7361,1745154338561451381
495904,-7,503,206,1949,-1812,-7257,1745154338561451381
496096,-27,505,213,1864,-1799,-7140,1745154338561451381
496288,-51,516,217,1782,-1775,-7053,1745154338561451381
496480,-70,529,224,1680,-1763,-7074,1745154338626962761
496672,-84,531,238,1652,-1758,-7249,1745154338626962761
496864,-87,516,252,1638,-1784,-7556,1745154338626962761
497056,-77,476,264,1682,-1829,-7997,1745154338626962761
497248,-50,414,277,1765,-1894,-8662,1745154338626962761
497440,-4,334,283,1938,-1892,-9246,1745154338626962761
497632,58,240,268,2146,-1785,-9481,1745154338626962761
497824,121,152,229,2310,-1590,-9521,1745154338626962761
498016,165,77,179,2412,-1334,-9453,1745154338626962761
498208,205,14,136,2497,-1020,-9270,1745154338626962761
498400,247,-41,108,2499,-755,-9004,1745154338626962761
498592,281,-83,95,2451,-540,-8724,1745154338626962761
498784,284,-115,99,2320,-462,-8556,1745154338689851354
498976,249,-132,115,2136,-567,-8519,1745154338689851354
499168,194,-138,134,1933,-745,-8547,1745154338689851354
499360,146,-144,150,1739,-910,-8638,1745154338689851354
499552,110,-144,160,1539,-992,-8713,1745154338689851354
499744,88,-147,161,1369,-962,-8839,1745154338689851354
499936,71,-137,151,1209,-768,-9141,1745154338689851354
500128,50,-105,134,1053,-451,-9245,1745154338689851354
500320,25,-61,112,924,-137,-9289,1745154338689851354
500512,-11,-16,95,798,88,-9289,1745154338689851354
500704,-38,18,87,739,196,-9315,1745154338689851354
500896,-32,30,85,786,197,-9392,1745154338689851354
501088,6,24,84,849,65,-9467,1745154338736546552
501280,60,13,80,893,-94,-9479,1745154338736546552
501472,109,-1,78,937,-371,-9512,1745154338736546552
501664,139,-14,82,976,-634,-9428,1745154338736546552
501856,153,-28,88,969,-869,-9265,1745154338736546552
502048,155,-36,92,916,-1028,-9054,1745154338736546552
502240,137,-36,91,830,-1123,-8833,1745154338736546552
502432,104,-28,86,738,-1129,-8636,1745154338736546552
502624,59,-18,82,687,-1106,-8437,1745154338736546552
502816,9,-5,77,650,-1074,-8265,1745154338736546552
503008,-34,8,68,652,-1012,-8103,1745154338736546552
503200,-63,23,56,663,-950,-7987,1745154338736546552
503392,-78,42,43,697,-889,-7892,1745154338797020843
503584,-82,62,33,747,-821,-7788,1745154338797020843
503776,-79,79,25,831,-786,-7711,1745154338797020843
503968,-72,91,19,933,-788,-7642,1745154338797020843
504160,-57,95,11,1003,-777,-7615,1745154338797020843
504352,-39,91,2,1073,-788,-7606,1745154338797020843
504544,-21,86,-8,1132,-811,-7626,1745154338797020843
504736,-3,78,-21,1177,-865,-7673,1745154338797020843
504928,14,68,-31,1214,-929,-7707,1745154338797020843
505120,27,61,-38,1244,-976,-7739,1745154338797020843
505312,36,55,-40,1238,-1033,-7787,1745154338797020843
505504,40,50,-40,1256,-1087,-7819,1745154338797020843
505696,40,44,-39,1266,-1106,-7840,1745154338861067810
505888,37,40,-40,1271,-1167,-7874,1745154338861067810
506080,31,36,-43,1297,-1159,-7920,1745154338861067810
506272,24,29,-45,1289,-1166,-8008,1745154338861067810
506464,13,22,-47,1289,-1159,-8075,1745154338861067810
506656,-1,16,-49,1285,-1145,-8144,1745154338861067810
506848,-14,11,-49,1252,-1122,-8175,1745154338861067810
507040,-23,4,-48,1227,-1087,-8153,1745154338861067810
507232,-122,-24,-59,-132,578,-4286,1745154338861067810
507424,-1085,-171,-344,-1224,-5799,-8190,1745154338861067810
507616,-754,62,-348,679,-5053,-9860,1745154338861067810
507808,-880,182,-279,909,-2556,-6902,1745154338861067810
508000,-839,218,-139,-171,722,-6724,1745154338917669481
508192,-625,329,8,153,2231,-7093,1745154338917669481
508384,-408,362,26,1334,2496,-7310,1745154338917669481
508576,-215,326,-65,2172,1834,-7824,1745154338917669481
508768,-79,194,-187,2552,817,-7977,1745154338917669481
508960,23,48,-258,2633,-41,-7930,1745154338917669481
509152,103,-48,-240,2361,-529,-8071,1745154338917669481
509344,162,-106,-150,1900,-478,-8158,1745154338917669481
509536,208,-141,-31,1525,-199,-8264,1745154338917669481
509728,234,-180,53,1349,-134,-8359,1745154338917669481
509920,240,-223,71,1189,-329,-8440,1745154338917669481
510112,233,-256,46,987,-658,-8545,1745154338917669481
510304,227,-261,14,730,-830,-8561,1745154338970315354
510496,230,-238,-2,538,-869,-8582,1745154338970315354
510688,237,-201,6,441,-830,-8592,1745154338970315354
510880,236,-165,24,471,-777,-8578,1745154338970315354
511072,223,-135,38,540,-800,-8541,1745154338970315354
511264,203,-112,46,636,-841,-8477,1745154338970315354
511456,179,-97,49,745,-910,-8415,1745154338970315354
511648,151,-82,48,802,-969,-8324,1745154338970315354
511840,119,-72,44,858,-1052,-8257,1745154338970315354
512032,79,-67,37,879,-1115,-8171,1745154338970315354
512224,37,-63,31,877,-1148,-8074,1745154338970315354
512416,-3,-61,29,827,-1194,-7960,1745154338970315354
512608,-40,-52,30,696,-1143,-7856,1745154339028597790
512800,-64,-35,32,566,-1025,-7789,1745154339028597790
512992,-72,-11,33,453,-841,-7714,1745154339028597790
513184,-63,20,36,416,-705,-7723,1745154339028597790
513376,-43,55,34,461,-645,-7675,1745154339028597790
513568,-14,80,29,659,-630,-7706,1745154339028597790
513760,15,88,26,929,-649,-7769,1745154339028597790
513952,37,78,28,1158,-715,-7843,1745154339028597790
514144,50,62,31,1294,-804,-7928,1745154339028597790
514336,50,44,32,1317,-928,-7966,1745154339028597790
514528,41,27,30,1322,-991,-7969,1745154339028597790
514720,32,-4,29,1423,-994,-8011,1745154339028597790
514912,17,-45,32,1517,-1027,-8027,1745154339095433847
515104,-1,-85,32,1495,-1014,-8069,1745154339095433847
515296,-20,-114,29,1353,-999,-8083,1745154339095433847
515488,-34,-126,25,1150,-950,-8124,1745154339095433847
515680,-43,-128,19,975,-934,-8135,1745154339095433847
515872,-48,-122,14,798,-898,-8172,1745154339095433847
516064,-47,-105,13,628,-876,-8243,1745154339095433847
516256,-40,-78,13,489,-833,-8277,1745154339095433847
516448,-31,-42,10,423,-826,-8316,1745154339095433847
516640,-28,-6,3,506,-898,-8309,1745154339095433847
516832,-39,16,-5,696,-1067,-8297,1745154339095433847
517024,-64,28,-11,833,-1182,-8259,1745154339095433847
518368,-178,11,-7,1126,-843,-8057,1745154339980489147
550240,-29,19,0,1054,-546,-7408,1745154339980489147
550432,-72,-2,-12,915,-1520,-8614,1745154339980489147
550624,-8,-5,-22,580,-1088,-7627,1745154339980489147
550816,0,14,1,439,-877,-7935,1745154339980489147
551008,-8,52,14,657,-960,-7971,1745154339980489147
551200,-7,50,0,859,-894,-8000,1745154339980489147
551392,-25,57,-7,947,-926,-8061,1745154339980489147
551584,-27,57,-9,1052,-950,-8086,1745154339980489147
551776,-36,48,-4,1105,-1016,-8109,1745154339980489147
551968,-51,47,3,1173,-1006,-8151,1745154339980489147
552160,-57,27,10,1190,-1045,-8185,1745154339980489147
552352,-74,11,12,1210,-1030,-8213,1745154340046509013
552544,-89,-3,12,1186,-1011,-8236,1745154340046509013
552736,-100,-15,8,1149,-1023,-8229,1745154340046509013
552928,-109,-25,6,1126,-1008,-8212,1745154340046509013
553120,-115,-33,5,1128,-1015,-8205,1745154340046509013
553312,-121,-42,6,1062,-985,-8166,1745154340046509013
553504,-122,-41,7,994,-902,-8133,1745154340046509013
553696,-114,-35,8,923,-776,-8088,1745154340046509013
553888,-98,-26,7,861,-687,-8080,1745154340046509013
554080,-79,-9,2,774,-682,-8101,1745154340046509013
554272,-56,18,-7,692,-655,-8121,1745154340046509013
554464,-30,48,-17,635,-669,-8163,1745154340046509013
554656,0,79,-29,723,-689,-8338,1745154340095880228
554848,36,105,-44,913,-664,-8515,1745154340095880228
555040,86,120,-60,1105,-539,-8655,1745154340095880228
555232,163,125,-77,1277,-419,-8813,1745154340095880228
555424,256,125,-94,1385,-400,-8985,1745154340095880228
555616,348,126,-108,1482,-472,-9126,1745154340095880228
555808,405,94,-123,1853,-2766,-9043,1745154340095880228
556000,883,231,-99,1888,-1381,-10617,1745154340095880228
556192,1026,262,-10,865,1082,-9154,1745154340095880228
556384,603,89,83,1484,298,-9418,1745154340095880228
556576,626,30,182,1855,-671,-9336,1745154340095880228
556768,369,-39,194,2416,-3071,-9298,1745154340095880228
556960,-112,-150,152,3653,-6231,-9534,1745154340157610862
557152,-691,-398,10,6190,-8335,-9780,1745154340157610862
557344,-1184,-639,-138,5712,-7213,-8819,1745154340157610862
557536,-1564,-664,-175,3713,-4701,-8146,1745154340157610862
557728,-1832,-626,-146,2201,-3696,-7116,1745154340157610862
557920,-1736,-508,-304,767,-1104,-7735,1745154340157610862
558112,-1719,-376,-332,-56,168,-7820,1745154340157610862
558304,-1587,-290,-355,-466,919,-7789,1745154340157610862
558496,-1358,-202,-381,-483,1263,-7809,1745154340157610862
558688,-1091,-116,-410,-239,1246,-8036,1745154340157610862
558880,-829,-17,-430,280,1011,-8449,1745154340157610862
559072,-639,79,-438,965,572,-8676,1745154340157610862
559264,-544,143,-430,1661,-146,-8739,1745154340217708907
559456,-492,152,-421,2237,-888,-8883,1745154340217708907
559648,-463,108,-424,2615,-1457,-9019,1745154340217708907
559840,-474,40,-440,2803,-1729,-9395,1745154340217708907
560032,-531,-52,-453,2847,-1747,-9679,1745154340217708907
560224,-583,-146,-459,2758,-1586,-9594,1745154340217708907
560416,-608,-220,-464,2546,-1304,-9375,1745154340217708907
560608,-617,-265,-458,2305,-1177,-9250,1745154340217708907
560800,-604,-290,-433,2071,-1208,-9166,1745154340217708907
560992,-562,-319,-390,1897,-1298,-9059,1745154340217708907
561184,-517,-353,-346,1799,-1412,-9103,1745154340217708907
561376,-486,-388,-312,1720,-1510,-9167,1745154340217708907
561568,-475,-429,-291,1616,-1666,-9286,1745154340273288868
561760,-477,-474,-288,1531,-1692,-9448,1745154340273288868
561952,-479,-520,-290,1485,-1662,-9793,1745154340273288868
562144,-484,-557,-294,1445,-1633,-9975,1745154340273288868
562336,-486,-580,-298,1406,-1733,-9697,1745154340273288868
562528,-480,-594,-298,1335,-2015,-9139,1745154340273288868
562720,-484,-588,-267,1306,-2352,-8630,1745154340273288868
562912,-498,-517,-116,1575,-2443,-8454,1745154340273288868
563104,-592,-493,68,1692,-2457,-7897,1745154340273288868
563296,-672,-646,61,1425,-2489,-7856,1745154340273288868
563488,-734,-715,75,1617,-1874,-8091,1745154340273288868
563680,-871,-563,287,2099,-1147,-7891,1745154340273288868
563872,-946,-551,454,2285,-593,-8186,1745154340332150987
564064,-818,-696,478,2232,-96,-8114,1745154340332150987
564256,-584,-875,418,1963,287,-7942,1745154340332150987
564448,-368,-999,366,1585,332,-7827,1745154340332150987
564640,-219,-1021,367,1186,-147,-7766,1745154340332150987
564832,-102,-992,441,895,-955,-7882,1745154340332150987
565024,13,-964,587,769,-1764,-8064,1745154340332150987
565216,114,-957,770,728,-2313,-8280,1745154340332150987
565408,178,-966,941,746,-2632,-8443,1745154340332150987
565600,200,-968,1069,746,-2797,-8419,1745154340332150987
565792,202,-946,1146,770,-2906,-8252,1745154340332150987
565984,199,-900,1181,782,-2978,-8058,1745154340332150987
566176,194,-850,1199,794,-3027,-7937,1745154340397646430
566368,181,-808,1225,821,-3076,-7859,1745154340397646430
566560,166,-778,1263,835,-3130,-7782,1745154340397646430
566752,151,-755,1312,834,-3161,-7727,1745154340397646430
566944,136,-734,1372,789,-3163,-7650,1745154340397646430
567136,118,-708,1439,749,-3170,-7549,1745154340397646430
567328,103,-678,1506,659,-3163,-7464,1745154340397646430
567520,91,-644,1567,572,-3157,-7399,1745154340397646430
567712,82,-603,1625,511,-3118,-7320,1745154340397646430
567904,78,-563,1687,429,-3083,-7277,1745154340397646430
568096,80,-518,1757,380,-2965,-7232,1745154340397646430
568288,93,-471,1832,354,-2905,-7191,1745154340397646430
568480,126,-424,1904,351,-2815,-7141,1745154340443903664
568480,126,-424,1904,351,-2815,-7141,1745154340443903664
568672,176,-376,1967,357,-2755,-7107,1745154340443903664
568864,247,-337,2025,416,-2649,-7100,1745154340443903664
569056,330,-287,2071,387,-2595,-7129,1745154340443903664
569248,421,-234,2109,355,-2449,-7082,1745154340443903664
569440,517,-184,2159,363,-2325,-6998,1745154340443903664
569632,613,-129,2222,387,-2201,-6955,1745154340443903664
569824,706,-78,2286,463,-2082,-6961,1745154340443903664
570016,800,-31,2347,534,-2010,-6991,1745154340443903664
570208,890,18,2406,618,-1931,-7030,1745154340443903664
570400,977,65,2460,674,-1908,-7100,1745154340443903664
570592,1057,110,2506,752,-1888,-7141,1745154340501833030
570784,1123,153,2547,841,-1929,-7147,1745154340501833030
570976,1172,198,2588,907,-1994,-7131,1745154340501833030
571168,1210,240,2628,944,-2098,-7169,1745154340501833030
571360,1233,289,2674,961,-2236,-7185,1745154340501833030
571552,1246,337,2717,996,-2392,-7233,1745154340501833030
571744,1249,385,2756,1030,-2490,-7287,1745154340501833030
571936,1234,435,2791,1063,-2569,-7266,1745154340501833030
572128,1194,492,2817,1107,-2583,-7252,1745154340501833030
572320,1132,554,2840,1205,-2585,-7225,1745154340501833030
572512,1063,608,2859,1294,-2554,-7256,1745154340501833030
572704,994,653,2879,1435,-2444,-7343,1745154340501833030
572896,932,690,2902,1587,-2354,-7442,1745154340560691139
573088,875,724,2920,1716,-2211,-7515,1745154340560691139
573280,826,755,2934,1891,-2077,-7550,1745154340560691139
573472,788,783,2942,2046,-1986,-7572,1745154340560691139
573664,759,809,2946,2164,-1863,-7644,1745154340560691139
573856,739,829,2953,2255,-1706,-7814,1745154340560691139
574048,727,851,2971,2297,-1531,-8017,1745154340560691139
574240,720,875,2988,2342,-1313,-8153,1745154340560691139
574432,717,907,3003,2387,-1101,-8155,1745154340560691139
574624,721,942,3029,2568,-855,-8127,1745154340560691139
574816,734,955,3053,2810,-766,-8020,1745154340560691139
575008,749,969,3052,3037,-683,-7847,1745154340560691139
575200,763,970,3038,3206,-693,-7708,1745154340623102808
