timestamp,gyr_x,gyr_y,gyr_z,acc_x,acc_y,acc_z,pkt_time_ns
291040,95,-77,50,4104,2941,-6125,1745188045576097089
291232,5,-206,73,3874,2886,-6848,1745188045576097089
291424,-28,-160,110,3692,3226,-6675,1745188045576097089
291616,-33,-197,94,3440,3240,-6864,1745188045576097089
291808,-38,-197,71,3366,3023,-6888,1745188045576097089
292000,-54,-168,45,3234,2902,-6922,1745188045576097089
292192,-61,-152,32,3188,2873,-6952,1745188045576097089
292384,-83,-135,35,3154,2858,-6920,1745188045576097089
292576,-100,-109,37,3075,2862,-6842,1745188045576097089
292768,-108,-94,43,2947,2699,-6791,1745188045576097089
292960,-136,-74,52,2943,2498,-6769,1745188045576097089
293152,-167,-45,61,2841,2703,-6832,1745188045576097089
293344,-192,-11,58,2837,2822,-6839,1745188045649582408
293728,-238,47,30,3166,2744,-6864,1745188045649582408
293920,-249,58,25,3289,2940,-6872,1745188045649582408
294112,-243,74,15,3289,3104,-6907,1745188045649582408
294304,-230,88,-1,3285,3241,-6885,1745188045649582408
294496,-205,97,-12,3294,3277,-6862,1745188045649582408
294688,-170,103,-11,3378,3313,-6859,1745188045649582408
294880,-125,107,-4,3344,3393,-6891,1745188045649582408
295072,-79,126,-7,3248,3449,-6871,1745188045649582408
295264,-38,144,-25,3312,3344,-6811,1745188045649582408
295456,-4,143,-29,3528,3224,-6778,1745188045649582408
295648,29,140,-13,3685,3307,-6782,1745188045649582408
295840,59,131,-8,3636,3516,-6794,1745188045686073272
296032,92,130,-15,3581,3674,-6786,1745188045686073272
296224,138,129,-44,3628,3698,-6751,1745188045686073272
296416,182,126,-56,3660,3693,-6731,1745188045686073272
296608,223,113,-60,3763,3493,-6701,1745188045686073272
296800,265,96,-74,3824,3425,-6685,1745188045686073272
296992,299,69,-91,3971,3396,-6691,1745188045686073272
297184,340,47,-115,3850,3459,-6721,1745188045686073272
297376,294,-22,-144,4160,2091,-6145,1745188045686073272
297568,594,168,-156,2820,5148,-7437,1745188045686073272
297760,482,30,-179,3208,3383,-6679,1745188045686073272
297952,397,21,-233,3343,2650,-6756,1745188045686073272
298144,439,71,-204,3163,2811,-6639,1745188045751166375
298336,475,81,-175,3067,2984,-6700,1745188045751166375
298528,456,98,-155,3055,3011,-6694,1745188045751166375
298720,432,126,-155,2772,2563,-6649,1745188045751166375
298912,356,170,-187,3088,2234,-6568,1745188045751166375
299104,303,134,-178,3743,2480,-6674,1745188045751166375
299296,276,116,-109,4063,2617,-6745,1745188045751166375
299488,232,81,-45,4044,2605,-6792,1745188045751166375
299680,185,50,-9,3831,2572,-6829,1745188045751166375
299872,147,35,4,3610,2613,-6820,1745188045751166375
300064,116,27,7,3408,2640,-6849,1745188045751166375
300256,88,31,11,3279,2652,-6879,1745188045751166375
300448,64,39,14,3269,2650,-6888,1745188045812553419
300640,44,44,21,3334,2678,-6883,1745188045812553419
300832,29,48,25,3408,2688,-6877,1745188045812553419
301024,17,47,26,3441,2500,-6841,1745188045812553419
301216,0,49,35,3333,2432,-6824,1745188045812553419
301408,-22,52,59,3128,2367,-6858,1745188045812553419
301600,-53,75,74,3052,2512,-6875,1745188045812553419
301792,-75,89,67,3160,2719,-6867,1745188045812553419
301984,-81,104,66,3283,2805,-6885,1745188045812553419
302176,-83,111,77,3390,2827,-6865,1745188045812553419
302368,-86,112,91,3401,2742,-6816,1745188045812553419
302560,-91,117,98,3387,2711,-6749,1745188045812553419
302752,-91,115,102,3361,2704,-6774,1745188045870330131
302944,-94,122,108,3341,2697,-6796,1745188045870330131
303136,-103,128,108,3416,2739,-6807,1745188045870330131
303328,-108,129,104,3521,2783,-6814,1745188045870330131
303520,-112,128,101,3604,2779,-6821,1745188045870330131
303712,-116,124,97,3665,2820,-6797,1745188045870330131
303904,-114,114,91,3661,2887,-6763,1745188045870330131
304096,-101,109,91,3556,2982,-6737,1745188045870330131
304288,-86,108,92,3475,3008,-6768,1745188045870330131
304480,-86,112,91,3468,2916,-6766,1745188045870330131
304672,-91,118,93,3466,2890,-6753,1745188045870330131
304864,-92,123,96,3533,2970,-6748,1745188045870330131
305056,-99,120,71,4794,2168,-7118,1745188045942518898
305248,-201,65,-123,5423,1771,-6237,1745188045942518898
305440,-191,-20,-144,4869,2488,-6803,1745188045942518898
305632,-225,-109,-77,4137,2987,-6745,1745188045942518898
305824,-223,-149,-58,3380,3228,-6760,1745188045942518898
306016,-196,-137,-61,2807,3287,-6714,1745188045942518898
306208,-153,-86,-55,2552,3320,-6663,1745188045942518898
306400,-118,-29,-34,2625,3235,-6651,1745188045942518898
306592,-93,24,-11,2995,3127,-6652,1745188045942518898
306784,-76,52,8,3437,3025,-6642,1745188045942518898
306976,-59,59,22,3777,2990,-6608,1745188045942518898
307168,-43,50,28,3991,3029,-6640,1745188045942518898
307360,-37,28,21,4034,3048,-6644,1745188045986123448
307552,-31,8,10,3932,3037,-6642,1745188045986123448
307744,-23,-9,-1,3761,3042,-6636,1745188045986123448
307936,-14,-15,-9,3556,3071,-6647,1745188045986123448
308128,-6,-11,-9,3429,3070,-6647,1745188045986123448
308320,5,-4,-5,3384,3072,-6646,1745188045986123448
308512,14,5,-1,3438,3049,-6626,1745188045986123448
308704,22,11,2,3520,3042,-6657,1745188045986123448
308896,28,12,1,3609,3008,-6687,1745188045986123448
309088,34,9,2,3660,2994,-6717,1745188045986123448
309280,38,2,5,3679,2961,-6726,1745188045986123448
309472,40,-6,5,3650,2919,-6743,1745188045986123448
309664,40,-11,5,3610,2883,-6748,1745188046046347273
309856,38,-11,5,3554,2867,-6751,1745188046046347273
310048,36,-11,6,3503,2848,-6751,1745188046046347273
310240,33,-6,6,3465,2836,-6764,1745188046046347273
310432,30,-1,8,3492,2841,-6786,1745188046046347273
310624,28,4,8,3513,2834,-6784,1745188046046347273
310816,27,7,6,3537,2844,-6795,1745188046046347273
311008,25,7,6,3558,2827,-6765,1745188046046347273
311200,22,9,5,3581,2826,-6757,1745188046046347273
311392,20,7,5,3574,2843,-6772,1745188046046347273
311584,17,6,5,3563,2850,-6773,1745188046046347273
311776,13,7,6,3556,2845,-6769,1745188046046347273
311968,10,7,7,3553,2846,-6772,1745188046103759873
312160,7,9,6,3537,2837,-6760,1745188046103759873
312352,6,11,6,3531,2849,-6743,1745188046103759873
312544,5,14,5,3526,2883,-6737,1745188046103759873
312736,4,15,4,3502,2907,-6778,1745188046103759873
312928,6,19,5,3515,2945,-6789,1745188046103759873
313120,8,24,6,3518,2954,-6811,1745188046103759873
313312,10,27,10,3519,2936,-6817,1745188046103759873
313504,12,32,12,3530,2901,-6807,1745188046103759873
313696,10,34,14,3535,2892,-6821,1745188046103759873
313888,7,36,14,3536,2854,-6835,1745188046103759873
314080,1,37,14,3547,2822,-6832,1745188046103759873
314272,-14,38,13,3508,2790,-6861,1745188046165804202
314464,-30,38,15,3503,2772,-6873,1745188046165804202
314656,-37,38,14,3496,2829,-6875,1745188046165804202
314848,-47,39,14,3491,2873,-6873,1745188046165804202
315040,-69,37,7,3492,2920,-6804,1745188046165804202
315232,-76,32,3,3500,2963,-6798,1745188046165804202
315424,-85,27,-3,3478,3013,-6787,1745188046165804202
315616,-88,23,-3,3467,3077,-6804,1745188046165804202
315808,-86,15,-5,3431,3151,-6772,1745188046165804202
316000,-80,8,-9,3434,3181,-6803,1745188046165804202
316192,-71,1,-14,3411,3194,-6844,1745188046165804202
316384,-62,-5,-21,3355,3188,-6812,1745188046165804202
316576,-51,-12,-31,3298,3182,-6827,1745188046219773397
316768,-36,-18,-39,3246,3189,-6855,1745188046219773397
316960,-30,-24,-45,3189,3197,-6882,1745188046219773397
317152,-33,-30,-49,3134,3183,-6976,1745188046219773397
317344,-40,-39,-55,3104,3184,-7058,1745188046219773397
317536,-57,-43,-62,3082,3203,-7091,1745188046219773397
317728,-81,-36,-65,3073,3191,-7091,1745188046219773397
317920,-94,-29,-60,3071,3212,-7101,1745188046219773397
318112,-120,-27,-52,3086,3240,-7075,1745188046219773397
318304,-165,-33,-63,3085,3237,-7026,1745188046219773397
318496,-218,-49,-88,3067,3223,-6995,1745188046219773397
318688,-264,-62,-112,2993,3200,-7029,1745188046219773397
318880,-309,-66,-132,2952,3233,-7032,1745188046280209616
319072,-353,-56,-150,2931,3324,-6957,1745188046280209616
319264,-395,-45,-165,2910,3402,-6885,1745188046280209616
319456,-441,-30,-182,2950,3466,-6852,1745188046280209616
319648,-482,-17,-209,2995,3538,-6980,1745188046280209616
319840,-504,-13,-242,3034,3676,-7207,1745188046280209616
320032,-509,-16,-265,3030,3938,-7367,1745188046280209616
320224,-482,28,-262,3036,4385,-7456,1745188046280209616
320416,-408,103,-242,3222,4925,-7369,1745188046280209616
320608,-313,161,-240,3444,5510,-7393,1745188046280209616
320800,-190,121,-297,3655,5867,-7383,1745188046280209616
320992,-65,33,-385,3499,5871,-7294,1745188046280209616
321184,38,55,-391,3412,5441,-7153,1745188046337486228
321376,134,143,-336,3513,4830,-7275,1745188046337486228
321568,220,155,-284,3611,4435,-7441,1745188046337486228
321760,274,124,-234,3695,4332,-7834,1745188046337486228
321952,291,143,-175,4010,4503,-8419,1745188046337486228
322144,275,211,-114,4461,4987,-8707,1745188046337486228
322336,106,268,-69,5033,5465,-8804,1745188046337486228
322528,-49,197,-50,5492,5534,-8658,1745188046337486228
322720,-60,18,-85,5638,5464,-8448,1745188046337486228
322912,44,-173,-154,5507,5554,-8340,1745188046337486228
323104,198,-310,-225,5217,5821,-8007,1745188046337486228
323296,411,-397,-284,4774,6136,-7632,1745188046337486228
323488,680,-427,-326,4280,6481,-7559,1745188046398077289
323680,891,-414,-371,3847,6692,-7590,1745188046398077289
323872,1034,-396,-442,3469,6562,-7556,1745188046398077289
324064,1185,-381,-523,3157,6225,-7553,1745188046398077289
324256,1321,-361,-587,2919,5838,-7674,1745188046398077289
324448,1413,-332,-625,2776,5466,-7873,1745188046398077289
324640,1459,-303,-645,2707,5091,-7989,1745188046398077289
324832,1453,-282,-662,2729,4713,-8086,1745188046398077289
325024,1407,-277,-683,2766,4388,-8280,1745188046398077289
325216,1341,-295,-713,2815,4151,-8433,1745188046398077289
325408,1263,-326,-745,2811,4041,-8580,1745188046398077289
325600,1180,-366,-772,2750,4007,-8609,1745188046398077289
325792,1109,-406,-792,2648,4046,-8658,1745188046453423242
325984,1058,-445,-808,2481,4131,-8724,1745188046453423242
326176,1024,-475,-827,2304,4242,-8850,1745188046453423242
326368,1003,-492,-852,2110,4323,-8888,1745188046453423242
326560,988,-507,-888,1992,4337,-8951,1745188046453423242
326752,970,-527,-934,1927,4234,-8938,1745188046453423242
326944,952,-545,-984,1864,4071,-8875,1745188046453423242
327136,932,-561,-1026,1823,3921,-8824,1745188046453423242
327328,901,-576,-1057,1826,3762,-8552,1745188046453423242
327520,859,-592,-1075,1843,3592,-8207,1745188046453423242
327712,815,-614,-1082,1809,3496,-7934,1745188046453423242
327904,761,-639,-1080,1796,3400,-7696,1745188046453423242
328096,702,-670,-1072,1773,3287,-7479,1745188046513086863
328288,646,-705,-1072,1747,3124,-7346,1745188046513086863
328480,592,-738,-1066,1690,3022,-7258,1745188046513086863
328672,542,-770,-1051,1596,2951,-7295,1745188046513086863
328864,498,-781,-1032,1474,2814,-6919,1745188046513086863
329056,478,-778,-1010,1385,2661,-6638,1745188046513086863
329248,488,-786,-984,1363,2486,-6625,1745188046513086863
329440,509,-801,-954,1304,2275,-6640,1745188046513086863
329632,559,-781,-929,1171,2091,-6520,1745188046513086863
329824,614,-742,-909,1123,1907,-6396,1745188046513086863
330016,642,-708,-893,1165,1655,-6220,1745188046513086863
330208,627,-682,-871,1334,1279,-6121,1745188046513086863
330400,555,-668,-852,1534,892,-6067,1745188046568357765
330592,422,-668,-848,1714,650,-6427,1745188046568357765
330784,254,-679,-858,1833,610,-6789,1745188046568357765
330976,71,-689,-871,1948,769,-7020,1745188046568357765
331168,-96,-697,-877,2044,1112,-7129,1745188046568357765
331360,-220,-699,-880,2056,1499,-7188,1745188046568357765
331552,-281,-690,-886,2042,1870,-7170,1745188046568357765
331744,-288,-671,-892,2004,2139,-7109,1745188046568357765
331936,-268,-640,-890,1953,2186,-6844,1745188046568357765
332128,-244,-590,-874,1915,1983,-6308,1745188046568357765
332320,-209,-536,-850,1856,1794,-5920,1745188046568357765
332512,-155,-480,-825,1838,1732,-5699,1745188046568357765
332704,-87,-430,-808,1821,1754,-5521,1745188046629577570
332896,-7,-387,-808,1796,1824,-5473,1745188046629577570
333088,70,-350,-810,1771,1854,-5543,1745188046629577570
333280,140,-310,-800,1771,1842,-5584,1745188046629577570
333472,208,-267,-775,1785,1777,-5647,1745188046629577570
333664,276,-224,-743,1871,1781,-5715,1745188046629577570
333856,365,-206,-717,2097,2262,-5581,1745188046629577570
334048,493,-170,-697,2129,2896,-5078,1745188046629577570
334240,610,-111,-677,2184,2738,-5776,1745188046629577570
334432,672,-61,-662,2353,1572,-6645,1745188046629577570
334624,679,-30,-619,2517,230,-6873,1745188046629577570
334816,642,-32,-537,2646,-599,-6847,1745188046629577570
335008,574,-46,-458,2734,-756,-6993,1745188046685214562
335200,488,-69,-420,2827,-275,-7007,1745188046685214562
335392,404,-81,-414,2833,611,-6842,1745188046685214562
335584,332,-83,-408,2885,1296,-6689,1745188046685214562
335776,305,-78,-377,3023,1548,-6520,1745188046685214562
335968,312,-59,-319,3087,1319,-6496,1745188046685214562
336160,275,-37,-253,3062,465,-6649,1745188046685214562
336352,189,-21,-179,3076,-509,-6922,1745188046685214562
336544,62,-11,-82,3190,-1162,-7076,1745188046685214562
336736,-108,-28,11,3345,-1481,-7207,1745188046685214562
336928,-309,-65,68,3437,-1570,-7327,1745188046685214562
337120,-522,-110,95,3439,-1519,-7278,1745188046685214562
337312,-713,-148,112,3444,-1269,-7188,1745188046759404717
337504,-854,-179,124,3427,-857,-7084,1745188046759404717
337696,-940,-204,131,3362,-356,-6959,1745188046759404717
337888,-971,-221,134,3268,138,-6868,1745188046759404717
338080,-952,-229,129,3139,568,-6808,1745188046759404717
338272,-894,-224,116,3028,984,-6850,1745188046759404717
338464,-799,-208,95,2934,1436,-6866,1745188046759404717
338656,-679,-186,69,2888,1882,-6848,1745188046759404717
338848,-538,-163,38,2874,2160,-6814,1745188046759404717
339040,-382,-138,6,2845,2317,-6806,1745188046759404717
339232,-224,-109,-18,2820,2368,-6883,1745188046759404717
339424,-78,-75,-31,2806,2315,-6956,1745188046759404717
339616,49,-42,-36,2789,2212,-7045,1745188046798178113
339808,157,-11,-37,2774,2070,-7163,1745188046798178113
340000,249,17,-35,2779,1944,-7318,1745188046798178113
340192,322,45,-33,2785,1915,-7515,1745188046798178113
340384,372,71,-30,2784,1893,-7738,1745188046798178113
340576,403,96,-28,2818,1871,-7991,1745188046798178113
340768,424,118,-26,2828,1837,-8222,1745188046798178113
340960,441,135,-24,2847,1750,-8498,1745188046798178113
341152,455,149,-24,2824,1672,-8851,1745188046798178113
341344,461,163,-24,2796,1584,-9250,1745188046798178113
341536,459,174,-24,2762,1426,-9670,1745188046798178113
341728,446,179,-22,2747,1246,-10075,1745188046798178113
341920,415,179,-17,2786,998,-10369,1745188046860483429
342112,369,172,-4,2856,768,-10602,1745188046860483429
342304,312,161,15,2954,604,-10871,1745188046860483429
342496,251,146,32,3096,546,-11124,1745188046860483429
342688,192,126,47,3236,497,-11423,1745188046860483429
342880,137,107,60,3373,391,-11712,1745188046860483429
343072,84,88,75,3503,217,-11940,1745188046860483429
343264,32,74,95,3661,72,-12069,1745188046860483429
343456,-23,60,125,3871,47,-12102,1745188046860483429
343648,-86,41,158,4107,288,-12097,1745188046860483429
343840,-162,13,186,4387,672,-12045,1745188046860483429
344032,-244,-24,207,4663,1027,-11998,1745188046860483429
344224,-324,-71,217,4923,1236,-12030,1745188046922494009
344416,-403,-124,224,5160,1223,-12246,1745188046922494009
344608,-470,-181,238,5377,1142,-12493,1745188046922494009
344800,-520,-235,272,5548,990,-12580,1745188046922494009
344992,-560,-281,331,5707,647,-12706,1745188046922494009
345184,-584,-335,400,5920,291,-12625,1745188046922494009
345376,-543,-397,464,6196,574,-12605,1745188046922494009
345568,-445,-451,505,6448,1425,-12369,1745188046922494009
345760,-323,-500,525,6666,2156,-12349,1745188046922494009
345952,-178,-558,537,6884,2398,-12524,1745188046922494009
346144,-45,-612,559,7115,2193,-12525,1745188046922494009
346336,60,-683,609,7379,1697,-12560,1745188046922494009
346528,114,-759,692,7628,963,-12611,1745188046978185115
346720,97,-844,806,7892,41,-12683,1745188046978185115
346912,34,-945,936,8136,-877,-12740,1745188046978185115
347104,-60,-1062,1071,8303,-1737,-12735,1745188046978185115
347296,-182,-1193,1193,8420,-2360,-12847,1745188046978185115
347488,-338,-1319,1285,8453,-2810,-12868,1745188046978185115
347680,-508,-1442,1353,8445,-3069,-12803,1745188046978185115
347872,-671,-1558,1405,8364,-3132,-12665,1745188046978185115
348064,-820,-1658,1451,8234,-2991,-12448,1745188046978185115
348256,-957,-1747,1487,8101,-2755,-12207,1745188046978185115
348448,-1076,-1826,1515,7926,-2435,-11935,1745188046978185115
348640,-1184,-1899,1544,7745,-2095,-11657,1745188046978185115
348832,-1292,-1967,1579,7561,-1819,-11524,1745188047036036826
349024,-1407,-2036,1621,7392,-1596,-11576,1745188047036036826
349216,-1498,-2092,1669,7241,-1386,-11448,1745188047036036826
349408,-1578,-2143,1722,7218,-1025,-11193,1745188047036036826
349600,-1637,-2197,1774,7199,-618,-10830,1745188047036036826
349792,-1676,-2239,1827,7162,-180,-10500,1745188047036036826
349984,-1688,-2283,1883,7168,161,-10242,1745188047036036826
350176,-1683,-2329,1951,7164,329,-10053,1745188047036036826
350368,-1674,-2377,2033,7159,376,-9922,1745188047036036826
350560,-1665,-2428,2125,7175,429,-9757,1745188047036036826
350752,-1658,-2480,2223,7184,465,-9676,1745188047036036826
350944,-1669,-2530,2324,7195,501,-9709,1745188047036036826
351136,-1700,-2585,2426,7255,508,-9738,1745188047094154211
351328,-1745,-2652,2529,7315,544,-9713,1745188047094154211
351520,-1790,-2718,2633,7389,668,-9612,1745188047094154211
351712,-1838,-2787,2735,7517,825,-9434,1745188047094154211
351904,-1882,-2856,2834,7679,1059,-9093,1745188047094154211
352096,-1898,-2924,2909,7819,1338,-8763,1745188047094154211
352288,-1885,-2989,2964,7939,1637,-8479,1745188047094154211
352480,-1848,-3057,3002,8042,1943,-8321,1745188047094154211
352672,-1811,-3131,3035,8126,2238,-8170,1745188047094154211
352864,-1765,-3211,3065,8213,2591,-7867,1745188047094154211
353056,-1701,-3289,3092,8295,2988,-7374,1745188047094154211
353248,-1627,-3364,3120,8344,3375,-6887,1745188047094154211
353440,-1556,-3437,3143,8418,3734,-6596,1745188047153647887
353632,-1492,-3516,3162,8514,4130,-6313,1745188047153647887
353824,-1431,-3609,3185,8621,4510,-5864,1745188047153647887
354016,-1365,-3697,3212,8792,4874,-5318,1745188047153647887
354208,-1305,-3800,3249,8980,5209,-4681,1745188047153647887
354400,-1241,-3906,3291,9122,5515,-3944,1745188047153647887
354592,-1172,-4008,3336,9225,5789,-3308,1745188047153647887
354784,-1099,-4108,3378,9320,6044,-2800,1745188047153647887
354976,-1039,-4219,3418,9443,6261,-2420,1745188047153647887
355168,-993,-4342,3451,9579,6447,-1977,1745188047153647887
355360,-951,-4464,3475,9746,6573,-1541,1745188047153647887
355552,-920,-4577,3488,9862,6666,-1180,1745188047153647887
355744,-918,-4696,3491,10012,6634,-1084,1745188047210831010
355936,-962,-4836,3482,10202,6552,-988,1745188047210831010
356128,-1055,-4990,3477,10436,6372,-679,1745188047210831010
356320,-1170,-5147,3471,10698,6095,-313,1745188047210831010
356512,-1294,-5313,3451,10985,5891,258,1745188047210831010
356704,-1442,-5459,3439,11289,5807,943,1745188047210831010
356896,-1627,-5599,3441,11635,5773,1521,1745188047210831010
357088,-1847,-5753,3440,12001,5905,2075,1745188047210831010
357280,-2088,-5920,3416,12349,6254,2668,1745188047210831010
357472,-2344,-6098,3358,12663,6711,3283,1745188047210831010
357664,-2588,-6281,3255,12896,7258,4048,1745188047210831010
357856,-2786,-6448,3115,12984,7887,4805,1745188047210831010
358048,-2908,-6585,2969,12992,8576,5463,1745188047269144228
358240,-2958,-6698,2829,12873,9356,6011,1745188047269144228
358432,-2981,-6803,2706,12598,9962,6459,1745188047269144228
358624,-2956,-6877,2607,12125,10310,6901,1745188047269144228
358816,-2902,-6909,2534,11494,10387,6699,1745188047269144228
359008,-2860,-6889,2478,10774,10018,6427,1745188047269144228
359200,-2819,-6799,2425,9986,9367,6317,1745188047269144228
359392,-2782,-6677,2345,9229,8760,6305,1745188047269144228
359584,-2752,-6532,2219,8488,8372,6272,1745188047269144228
359776,-2735,-6368,2061,7832,8231,6328,1745188047269144228
359968,-2706,-6187,1891,7197,8112,6420,1745188047269144228
360160,-2623,-5986,1735,6564,8141,6552,1745188047269144228
360352,-2501,-5766,1605,6009,8385,6777,1745188047337930422
360544,-2351,-5519,1490,5518,8879,7178,1745188047337930422
360736,-2185,-5246,1379,5061,9638,7668,1745188047337930422
360928,-2008,-4956,1265,4575,10459,8457,1745188047337930422
361120,-1845,-4672,1141,3918,11139,9150,1745188047337930422
361312,-1705,-4380,1014,3055,11436,9522,1745188047337930422
361504,-1572,-4080,888,2140,11430,9912,1745188047337930422
361696,-1451,-3783,748,1234,11256,10312,1745188047337930422
361888,-1344,-3484,588,190,10755,10114,1745188047337930422
362080,-1240,-3158,440,-752,10094,9111,1745188047337930422
362272,-1126,-2837,319,-1226,9522,8059,1745188047337930422
362464,-1006,-2564,209,-1282,9086,6805,1745188047337930422
362656,-883,-2354,117,-994,8774,5845,1745188047386315657
362848,-747,-2197,36,-660,8501,5354,1745188047386315657
363040,-608,-2087,-40,-452,8265,5375,1745188047386315657
363232,-460,-1995,-94,-424,8087,5682,1745188047386315657
363424,-304,-1913,-117,-559,7941,6029,1745188047386315657
363616,-152,-1829,-120,-789,7820,6312,1745188047386315657
363808,-25,-1748,-120,-1048,7736,6500,1745188047386315657
364000,71,-1673,-112,-1202,7755,6616,1745188047386315657
364192,150,-1602,-86,-1337,7947,6677,1745188047386315657
364384,228,-1548,-54,-1549,8241,6798,1745188047386315657
364576,312,-1504,-30,-1902,8546,6763,1745188047386315657
364768,394,-1453,-18,-2170,8687,6676,1745188047386315657
364960,463,-1401,-19,-2235,8625,6497,1745188047451288032
365152,509,-1353,-15,-2100,8461,6291,1745188047451288032
365344,525,-1320,7,-1879,8057,5994,1745188047451288032
365536,510,-1284,27,-1618,7644,5666,1745188047451288032
365728,453,-1263,55,-1467,7374,5271,1745188047451288032
365920,366,-1251,97,-1376,7191,4780,1745188047451288032
366112,260,-1250,133,-1331,7093,4405,1745188047451288032
366304,152,-1257,154,-1341,7141,4262,1745188047451288032
366496,56,-1268,168,-1480,7298,4272,1745188047451288032
366688,-17,-1268,179,-1703,7533,4394,1745188047451288032
366880,-73,-1253,186,-1973,7793,4545,1745188047451288032
367072,-117,-1219,186,-2194,8030,4662,1745188047451288032
367264,-149,-1176,182,-2359,8198,4700,1745188047500593155
367456,-167,-1129,177,-2449,8306,4723,1745188047500593155
367648,-180,-1082,164,-2502,8395,4758,1745188047500593155
367840,-187,-1028,147,-2540,8502,4839,1745188047500593155
368032,-176,-968,126,-2587,8611,4863,1745188047500593155
368224,-143,-906,102,-2622,8631,4857,1745188047500593155
368416,-90,-843,77,-2640,8566,4792,1745188047500593155
368608,-37,-787,54,-2687,8438,4712,1745188047500593155
368800,2,-740,30,-2749,8163,4640,1745188047500593155
368992,29,-694,6,-2819,7914,4535,1745188047500593155
369184,37,-645,-8,-2808,7819,4366,1745188047500593155
369376,39,-598,-18,-2723,7761,4216,1745188047500593155
369568,50,-557,-28,-2655,7823,4093,1745188047564245230
369760,72,-524,-39,-2646,7855,3952,1745188047564245230
369952,96,-494,-48,-2634,7843,3840,1745188047564245230
370144,120,-463,-54,-2647,7802,3733,1745188047564245230
370336,140,-432,-56,-2630,7821,3560,1745188047564245230
370528,158,-399,-51,-2628,7887,3357,1745188047564245230
370720,178,-369,-49,-2580,7914,3191,1745188047564245230
370912,199,-346,-56,-2554,7885,3041,1745188047564245230
371104,221,-325,-61,-2595,7867,2900,1745188047564245230
371296,244,-301,-59,-2625,7839,2871,1745188047564245230
371488,273,-275,-52,-2684,7844,2850,1745188047564245230
371680,310,-248,-39,-2763,7898,2802,1745188047564245230
371872,343,-230,-32,-2832,7884,2640,1745188047624401347
372064,362,-215,-38,-2795,7686,2499,1745188047624401347
372256,367,-200,-46,-2700,7555,2372,1745188047624401347
372448,362,-183,-34,-2559,7594,2258,1745188047624401347
372640,349,-170,-13,-2444,7671,2064,1745188047624401347
372832,339,-170,2,-2428,7639,1883,1745188047624401347
373024,328,-183,8,-2540,7528,1789,1745188047624401347
373216,310,-192,13,-2689,7430,1743,1745188047624401347
373408,285,-188,21,-2718,7389,1736,1745188047624401347
373600,253,-178,32,-2625,7509,1709,1745188047624401347
373792,220,-174,44,-2516,7684,1692,1745188047624401347
373984,196,-177,52,-2469,7801,1707,1745188047624401347
374176,177,-182,57,-2486,7874,1738,1745188047677733203
374368,157,-185,60,-2538,7883,1756,1745188047677733203
374560,134,-184,59,-2609,7805,1778,1745188047677733203
374752,119,-174,59,-2679,7792,1795,1745188047677733203
374944,111,-157,60,-2723,7879,1790,1745188047677733203
375136,110,-138,61,-2683,8010,1694,1745188047677733203
375328,122,-120,57,-2618,8138,1638,1745188047677733203
375520,147,-103,51,-2568,8228,1618,1745188047677733203
375712,178,-92,47,-2538,8194,1529,1745188047677733203
375904,203,-84,41,-2551,8106,1459,1745188047677733203
376096,218,-78,31,-2510,7974,1341,1745188047677733203
376288,221,-69,25,-2497,7862,1215,1745188047677733203
376480,219,-60,21,-2460,7765,1113,1745188047743086044
376672,213,-56,18,-2498,7724,982,1745188047743086044
376864,203,-55,15,-2556,7692,894,1745188047743086044
377056,186,-52,13,-2579,7693,848,1745188047743086044
377248,165,-46,10,-2580,7715,904,1745188047743086044
377440,145,-39,9,-2548,7740,955,1745188047743086044
377632,127,-34,9,-2521,7762,1044,1745188047743086044
377824,112,-26,9,-2510,7760,1064,1745188047743086044
378016,96,-18,6,-2525,7792,1014,1745188047743086044
378208,76,-8,6,-2509,7871,974,1745188047743086044
378400,65,4,6,-2434,8006,911,1745188047743086044
378592,63,12,4,-2435,8055,875,1745188047743086044
378784,63,17,-5,-2434,8022,861,1745188047799381311
378976,66,27,-10,-2383,7989,820,1745188047799381311
379168,69,35,-12,-2402,7962,745,1745188047799381311
379360,74,41,-9,-2388,7941,653,1745188047799381311
379552,82,44,-5,-2368,7848,528,1745188047799381311
379744,84,41,-4,-2381,7678,476,1745188047799381311
379936,88,37,0,-2362,7587,478,1745188047799381311
380128,92,34,7,-2387,7556,474,1745188047799381311
380320,90,33,18,-2386,7563,483,1745188047799381311
380512,91,37,31,-2338,7625,520,1745188047799381311
380704,92,38,40,-2308,7750,554,1745188047799381311
380896,92,36,47,-2302,7819,550,1745188047799381311
381088,86,33,48,-2323,7824,588,1745188047856788234
381280,77,33,46,-2337,7815,577,1745188047856788234
381472,64,37,46,-2285,7843,588,1745188047856788234
381664,49,44,49,-2197,7909,568,1745188047856788234
381856,39,49,49,-2151,7973,510,1745188047856788234
382048,35,52,47,-2124,8028,491,1745188047856788234
382240,41,50,43,-2180,8037,412,1745188047856788234
382432,50,52,40,-2233,8000,317,1745188047856788234
382624,58,57,40,-2206,7962,259,1745188047856788234
382816,66,62,42,-2169,7935,269,1745188047856788234
383008,69,63,47,-2116,7889,259,1745188047856788234
383200,73,62,50,-2130,7821,283,1745188047856788234
383392,74,60,50,-2158,7740,250,1745188047917153777
383584,73,56,50,-2249,7658,234,1745188047917153777
383776,68,54,52,-2315,7587,214,1745188047917153777
383968,61,54,55,-2340,7576,189,1745188047917153777
384160,50,54,60,-2288,7626,186,1745188047917153777
384352,36,53,64,-2225,7743,175,1745188047917153777
384544,28,50,66,-2183,7875,164,1745188047917153777
384736,31,46,64,-2176,7976,174,1745188047917153777
384928,43,41,63,-2177,8040,214,1745188047917153777
385120,60,39,63,-2204,8043,237,1745188047917153777
385312,75,39,63,-2238,8007,246,1745188047917153777
385504,84,42,62,-2234,7986,245,1745188047917153777
385696,85,46,60,-2177,7975,192,1745188047985122322
385888,85,47,58,-2146,7934,132,1745188047985122322
386080,82,48,60,-2097,7880,71,1745188047985122322
386272,80,47,65,-2079,7884,39,1745188047985122322
386464,75,44,68,-2109,7883,67,1745188047985122322
386656,68,39,67,-2131,7874,112,1745188047985122322
386848,60,41,66,-2154,7842,147,1745188047985122322
387040,48,42,67,-2175,7782,163,1745188047985122322
387232,39,44,70,-2172,7735,169,1745188047985122322
387424,30,47,71,-2145,7750,135,1745188047985122322
387616,18,50,71,-2109,7780,148,1745188047985122322
387808,3,51,70,-2066,7817,157,1745188047985122322
388000,-12,49,67,-2062,7849,161,1745188048033275372
388192,-23,47,67,-2096,7840,146,1745188048033275372
388384,-36,45,68,-2147,7821,119,1745188048033275372
388576,-46,44,69,-2177,7778,125,1745188048033275372
388768,-56,46,69,-2155,7797,125,1745188048033275372
388960,-62,49,70,-2122,7855,149,1745188048033275372
389152,-63,50,73,-2106,7935,183,1745188048033275372
389344,-57,50,76,-2137,8015,195,1745188048033275372
389536,-40,51,80,-2158,8096,197,1745188048033275372
389728,-20,54,80,-2227,8150,200,1745188048033275372
389920,-2,60,78,-2225,8179,142,1745188048033275372
390112,18,69,75,-2170,8157,120,1745188048033275372
390304,43,78,75,-2131,8093,90,1745188048094233201
390496,72,83,79,-2084,8043,114,1745188048094233201
390688,101,84,84,-2072,8013,148,1745188048094233201
390880,126,83,90,-2114,8016,144,1745188048094233201
391072,153,88,97,-2128,8075,125,1745188048094233201
391264,186,94,101,-2138,8138,110,1745188048094233201
391456,231,101,102,-2133,8209,111,1745188048094233201
391648,280,105,101,-2139,8268,125,1745188048094233201
391840,323,106,100,-2132,8222,45,1745188048094233201
392032,350,106,97,-2091,8124,-18,1745188048094233201
392224,359,102,94,-2043,7970,-18,1745188048094233201
392416,347,95,94,-1990,7828,-26,1745188048094233201
392608,315,85,96,-1979,7723,-7,1745188048148256874
392800,268,74,98,-1977,7675,16,1745188048148256874
392992,220,63,98,-1988,7717,45,1745188048148256874
393184,181,56,97,-2054,7850,64,1745188048148256874
393376,150,51,99,-2091,7978,11,1745188048148256874
393568,127,45,98,-2127,8047,-36,1745188048148256874
393760,111,39,96,-2150,8070,-5,1745188048148256874
393952,99,36,93,-2157,8058,71,1745188048148256874
394144,86,35,90,-2164,8047,188,1745188048148256874
394336,73,34,87,-2194,8065,285,1745188048148256874
394528,57,38,85,-2223,8105,372,1745188048148256874
394720,42,44,81,-2232,8186,406,1745188048148256874
394912,32,54,74,-2201,8282,405,1745188048210734064
395104,32,64,68,-2187,8361,387,1745188048210734064
395296,40,72,65,-2153,8420,364,1745188048210734064
395488,54,78,60,-2123,8447,373,1745188048210734064
395680,70,82,53,-2095,8418,435,1745188048210734064
395872,89,87,48,-2130,8387,475,1745188048210734064
396064,107,93,44,-2165,8337,466,1745188048210734064
396256,121,101,40,-2251,8278,490,1745188048210734064
396448,128,108,35,-2328,8226,517,1745188048210734064
396640,131,119,30,-2344,8196,537,1745188048210734064
396832,123,134,25,-2312,8155,540,1745188048210734064
397024,103,149,20,-2248,8164,505,1745188048210734064
397216,80,160,15,-2174,8164,489,1745188048268482078
397408,60,167,12,-2104,8233,494,1745188048268482078
397600,47,172,10,-2082,8275,512,1745188048268482078
397792,41,179,6,-2104,8319,509,1745188048268482078
397984,36,185,1,-2156,8305,481,1745188048268482078
398176,35,194,-7,-2194,8252,453,1745188048268482078
398368,36,205,-13,-2205,8215,431,1745188048268482078
398560,30,216,-17,-2207,8187,421,1745188048268482078
398752,24,226,-19,-2203,8189,452,1745188048268482078
398944,23,235,-20,-2206,8199,502,1745188048268482078
399136,27,243,-21,-2207,8216,592,1745188048268482078
399328,35,253,-21,-2217,8204,698,1745188048268482078
399520,52,264,-23,-2251,8190,742,1745188048326137072
399712,72,278,-25,-2322,8193,739,1745188048326137072
399904,90,293,-32,-2342,8200,727,1745188048326137072
400096,103,307,-41,-2338,8204,750,1745188048326137072
400288,116,323,-49,-2314,8219,764,1745188048326137072
400480,126,340,-53,-2248,8209,754,1745188048326137072
400672,129,355,-54,-2195,8231,769,1745188048326137072
400864,126,365,-57,-2145,8238,811,1745188048326137072
401056,123,374,-63,-2098,8252,893,1745188048326137072
401248,128,383,-66,-2117,8252,988,1745188048326137072
401440,135,391,-65,-2164,8225,1057,1745188048326137072
401632,138,403,-67,-2213,8182,1065,1745188048326137072
401824,137,416,-74,-2255,8124,1051,1745188048389220037
402016,130,435,-82,-2242,8119,1018,1745188048389220037
402208,122,454,-86,-2190,8124,1013,1745188048389220037
402400,116,472,-88,-2096,8179,991,1745188048389220037
402592,109,486,-89,-2047,8219,942,1745188048389220037
402784,103,497,-92,-2034,8280,917,1745188048389220037
402976,95,505,-97,-2045,8302,969,1745188048389220037
403168,92,513,-102,-2080,8307,1071,1745188048389220037
403360,96,522,-109,-2184,8291,1175,1745188048389220037
403552,103,535,-115,-2284,8295,1238,1745188048389220037
403744,109,552,-122,-2397,8310,1281,1745188048389220037
403936,113,571,-133,-2433,8331,1320,1745188048389220037
404128,113,591,-144,-2471,8349,1365,1745188048444145317
404320,111,612,-154,-2469,8393,1424,1745188048444145317
404512,103,633,-160,-2447,8441,1505,1745188048444145317
404704,90,655,-168,-2448,8509,1611,1745188048444145317
404896,73,678,-180,-2472,8591,1688,1745188048444145317
405088,52,701,-195,-2486,8636,1749,1745188048444145317
405280,36,721,-211,-2516,8701,1820,1745188048444145317
405472,26,742,-226,-2544,8783,1962,1745188048444145317
405664,21,768,-242,-2583,8885,2124,1745188048444145317
405856,23,801,-260,-2591,9019,2277,1745188048444145317
406048,31,844,-279,-2561,9150,2335,1745188048444145317
406240,45,892,-299,-2531,9286,2344,1745188048444145317
406432,65,939,-322,-2464,9366,2315,1745188048499563769
406624,93,982,-344,-2436,9382,2282,1745188048499563769
406816,128,1022,-368,-2429,9348,2287,1745188048499563769
407008,163,1064,-395,-2463,9300,2277,1745188048499563769
407200,194,1110,-421,-2503,9270,2249,1745188048499563769
407392,218,1162,-448,-2510,9228,2273,1745188048499563769
407584,241,1215,-475,-2515,9185,2373,1745188048499563769
407776,269,1268,-501,-2520,9194,2552,1745188048499563769
407968,299,1322,-526,-2535,9241,2737,1745188048499563769
408160,323,1379,-551,-2602,9305,2936,1745188048499563769
408352,347,1441,-578,-2680,9356,3200,1745188048499563769
408544,378,1507,-603,-2806,9403,3472,1745188048499563769
408736,424,1575,-622,-3004,9486,3769,1745188048561502578
408928,495,1646,-639,-3251,9646,4054,1745188048561502578
409120,591,1725,-656,-3455,9915,4238,1745188048561502578
409312,701,1814,-677,-3623,10215,4297,1745188048561502578
409504,816,1918,-710,-3601,10501,4251,1745188048561502578
409696,933,2035,-756,-3339,10737,4118,1745188048561502578
409888,1045,2157,-814,-2830,10878,3974,1745188048561502578
410080,1147,2275,-877,-2210,10913,3818,1745188048561502578
410272,1237,2373,-944,-1549,10847,3688,1745188048561502578
410464,1314,2451,-1011,-950,10669,3574,1745188048561502578
410656,1366,2509,-1073,-466,10452,3460,1745188048561502578
410848,1386,2553,-1133,-84,10180,3354,1745188048561502578
411040,1380,2590,-1193,181,9908,3279,1745188048617404515
411232,1352,2619,-1251,331,9651,3186,1745188048617404515
411424,1312,2642,-1305,398,9451,3041,1745188048617404515
411616,1264,2663,-1355,384,9250,2816,1745188048617404515
411808,1214,2684,-1405,305,9098,2581,1745188048617404515
412000,1168,2705,-1454,167,8989,2382,1745188048617404515
412192,1122,2727,-1507,13,8905,2232,1745188048617404515
412384,1083,2754,-1560,-128,8794,2132,1745188048617404515
412576,1056,2786,-1612,-265,8726,2041,1745188048617404515
412768,1037,2826,-1660,-329,8702,1891,1745188048617404515
412960,1017,2874,-1708,-327,8721,1674,1745188048617404515
413152,992,2927,-1760,-215,8738,1441,1745188048617404515
413344,970,2976,-1809,-22,8753,1241,1745188048677275270
413536,956,3016,-1852,225,8720,1097,1745188048677275270
413728,954,3045,-1888,433,8660,985,1745188048677275270
413920,964,3063,-1914,637,8580,880,1745188048677275270
414112,989,3074,-1933,827,8496,728,1745188048677275270
414304,1020,3079,-1957,945,8404,597,1745188048677275270
414496,1055,3080,-1982,1051,8279,516,1745188048677275270
414688,1098,3080,-2005,1105,8113,440,1745188048677275270
414880,1152,3081,-2025,1152,7924,381,1745188048677275270
415072,1214,3079,-2040,1143,7743,279,1745188048677275270
415264,1277,3077,-2052,1136,7562,122,1745188048677275270
415456,1336,3075,-2067,1147,7411,-40,1745188048677275270
415648,1386,3074,-2087,1163,7249,-203,1745188048736420095
415840,1424,3072,-2112,1167,7062,-309,1745188048736420095
416032,1453,3073,-2142,1198,6846,-422,1745188048736420095
416224,1478,3073,-2172,1246,6695,-620,1745188048736420095
416416,1491,3069,-2201,1310,6618,-902,1745188048736420095
416608,1487,3061,-2228,1397,6542,-1120,1745188048736420095
416800,1471,3054,-2256,1503,6451,-1242,1745188048736420095
416992,1460,3046,-2285,1576,6380,-1283,1745188048736420095
417184,1467,3035,-2308,1641,6347,-1291,1745188048736420095
417376,1488,3023,-2325,1719,6325,-1321,1745188048736420095
417568,1518,3012,-2337,1767,6321,-1374,1745188048736420095
417760,1558,2997,-2349,1802,6311,-1538,1745188048736420095
417952,1599,2979,-2364,1851,6307,-1787,1745188048803842552
418144,1638,2958,-2382,1897,6264,-2029,1745188048803842552
418336,1676,2936,-2405,1917,6192,-2218,1745188048803842552
418528,1714,2912,-2427,1960,6089,-2344,1745188048803842552
418720,1747,2892,-2451,1995,5965,-2403,1745188048803842552
418912,1767,2874,-2468,2027,5821,-2377,1745188048803842552
419104,1771,2859,-2478,2098,5672,-2306,1745188048803842552
419296,1761,2844,-2487,2179,5496,-2217,1745188048803842552
419488,1744,2829,-2495,2273,5297,-2085,1745188048803842552
419680,1721,2815,-2503,2385,5146,-2059,1745188048803842552
419872,1693,2797,-2508,2502,5020,-2113,1745188048803842552
420064,1663,2781,-2510,2598,4926,-2244,1745188048803842552
420256,1641,2764,-2514,2681,4915,-2404,1745188048852310807
420448,1634,2741,-2521,2762,5067,-2519,1745188048852310807
420640,1645,2716,-2526,2839,5262,-2530,1745188048852310807
420832,1675,2691,-2536,2880,5476,-2552,1745188048852310807
421024,1716,2664,-2549,2954,5551,-2652,1745188048852310807
421216,1798,2654,-2573,2983,5732,-3007,1745188048852310807
421408,1853,2652,-2588,3047,5813,-3185,1745188048852310807
421600,1910,2651,-2610,3123,5804,-3426,1745188048852310807
421792,1971,2644,-2635,3241,5699,-3553,1745188048852310807
421984,2038,2642,-2659,3334,5563,-3544,1745188048852310807
422176,2092,2635,-2669,3490,5328,-3493,1745188048852310807
422368,2131,2632,-2683,3595,5027,-3462,1745188048852310807
422560,2149,2626,-2695,3764,4721,-3545,1745188048913626705
422752,2155,2617,-2704,3926,4541,-3810,1745188048913626705
422944,2172,2602,-2700,4157,4487,-4002,1745188048913626705
423136,2199,2578,-2686,4378,4544,-4037,1745188048913626705
423328,2245,2544,-2667,4598,4660,-4169,1745188048913626705
423520,2311,2504,-2659,4773,4665,-4385,1745188048913626705
423712,2383,2472,-2675,4890,4595,-4575,1745188048913626705
423904,2458,2448,-2705,5005,4504,-4895,1745188048913626705
424096,2553,2424,-2738,5104,4442,-5099,1745188048913626705
424288,2642,2407,-2763,5238,4316,-5181,1745188048913626705
424480,2724,2375,-2779,5381,3986,-5503,1745188048913626705
424672,2807,2340,-2794,5487,3591,-5938,1745188048913626705
424864,2887,2305,-2791,5604,3055,-6191,1745188048979136107
425056,2957,2278,-2773,5729,2454,-6383,1745188048979136107
425248,3014,2248,-2739,5851,1866,-6550,1745188048979136107
425440,3054,2209,-2692,5995,1350,-6743,1745188048979136107
425632,3070,2167,-2638,6168,871,-6862,1745188048979136107
425824,3081,2109,-2590,6290,519,-6964,1745188048979136107
426016,3086,2051,-2542,6423,138,-6884,1745188048979136107
426208,3077,1977,-2500,6495,-183,-6932,1745188048979136107
426400,3057,1897,-2463,6592,-518,-7144,1745188048979136107
426592,3014,1835,-2452,6619,-745,-7348,1745188048979136107
426784,2950,1778,-2451,6705,-1103,-7452,1745188048979136107
426976,2879,1727,-2456,6743,-1556,-7703,1745188048979136107
427168,2801,1685,-2442,6808,-2194,-8038,1745188049026984680
427360,2710,1654,-2400,6930,-2939,-8492,1745188049026984680
427552,2578,1626,-2334,7169,-3776,-8937,1745188049026984680
427744,2417,1583,-2254,7461,-4388,-9361,1745188049026984680
427936,2268,1542,-2158,7865,-4749,-9503,1745188049026984680
428128,2123,1482,-2069,8366,-4916,-9654,1745188049026984680
428320,1962,1399,-2013,8766,-5042,-10041,1745188049026984680
428512,1789,1307,-1987,9104,-5323,-10428,1745188049026984680
428704,1606,1202,-1968,9340,-5733,-10693,1745188049026984680
428896,1414,1088,-1937,9534,-6312,-10875,1745188049026984680
429088,1189,970,-1906,9673,-6961,-10996,1745188049026984680
429280,914,853,-1879,9756,-7665,-11069,1745188049026984680
429472,603,732,-1842,9758,-8190,-11045,1745188049087187516
429664,300,607,-1806,9649,-8416,-10968,1745188049087187516
429856,29,484,-1786,9400,-8189,-10745,1745188049087187516
430048,-200,366,-1775,9027,-7751,-10479,1745188049087187516
430240,-377,260,-1764,8569,-7311,-10213,1745188049087187516
430432,-507,162,-1749,8004,-7086,-10032,1745188049087187516
430624,-595,81,-1725,7413,-7009,-9805,1745188049087187516
430816,-657,12,-1693,6809,-6953,-9552,1745188049087187516
431008,-703,-40,-1648,6202,-6880,-9334,1745188049087187516
431200,-739,-77,-1600,5608,-6575,-9111,1745188049087187516
431392,-752,-100,-1550,5093,-6098,-8939,1745188049087187516
431584,-728,-113,-1496,4672,-5556,-8638,1745188049087187516
431776,-670,-119,-1437,4275,-5073,-8407,1745188049150870996
431968,-589,-115,-1378,3928,-4733,-8336,1745188049150870996
432160,-499,-101,-1319,3622,-4581,-8323,1745188049150870996
432352,-412,-80,-1257,3336,-4518,-8336,1745188049150870996
432544,-340,-54,-1196,3093,-4487,-8367,1745188049150870996
432736,-282,-24,-1133,2896,-4428,-8445,1745188049150870996
432928,-238,9,-1069,2753,-4345,-8559,1745188049150870996
433120,-205,42,-1002,2655,-4137,-8646,1745188049150870996
433312,-182,72,-937,2585,-3799,-8739,1745188049150870996
433504,-167,103,-876,2551,-3406,-8800,1745188049150870996
433696,-154,137,-820,2536,-3023,-8878,1745188049150870996
433888,-136,174,-770,2547,-2640,-8941,1745188049150870996
434080,-114,206,-730,2632,-2274,-8953,1745188049203213904
434272,-87,230,-691,2724,-2024,-8952,1745188049203213904
434464,-64,254,-651,2814,-2025,-8827,1745188049203213904
434656,-59,278,-614,2824,-2258,-8699,1745188049203213904
434848,-71,302,-584,2823,-2466,-8503,1745188049203213904
435040,-101,321,-559,2846,-2511,-8336,1745188049203213904
435232,-117,323,-536,3013,-2038,-7617,1745188049203213904
435424,-114,329,-511,3142,-1462,-7109,1745188049203213904
435616,-131,365,-457,3265,-1498,-7435,1745188049203213904
435808,-155,401,-382,3404,-1949,-7576,1745188049203213904
436000,-154,409,-305,3513,-2408,-7194,1745188049203213904
436192,-169,405,-227,3611,-3209,-6977,1745188049203213904
436384,-197,403,-155,3679,-3818,-7099,1745188049261540923
436576,-225,384,-96,3850,-3633,-7430,1745188049261540923
436768,-275,348,-46,4041,-3341,-7347,1745188049261540923
436960,-331,317,-10,4180,-3568,-7569,1745188049261540923
437152,-358,307,30,4392,-3712,-8042,1745188049261540923
437344,-379,305,82,4658,-3470,-8354,1745188049261540923
437536,-381,278,115,4931,-2845,-8970,1745188049261540923
437728,-347,224,94,5064,-2127,-9407,1745188049261540923
437920,-316,174,23,4953,-1583,-9474,1745188049261540923
438112,-310,153,-39,4722,-1300,-9282,1745188049261540923
438304,-328,162,-35,4546,-1375,-9098,1745188049261540923
438496,-353,165,32,4364,-1687,-8997,1745188049261540923
438688,-393,154,132,4183,-2059,-8992,1745188049321893913
438880,-460,135,233,3972,-2352,-8916,1745188049321893913
439072,-554,117,312,3804,-2455,-8737,1745188049321893913
439264,-652,101,362,3642,-2401,-8382,1745188049321893913
439456,-720,85,381,3447,-2122,-8002,1745188049321893913
439648,-751,75,372,3213,-1580,-7798,1745188049321893913
439840,-762,80,344,2991,-900,-7725,1745188049321893913
440032,-770,96,321,2853,-371,-7863,1745188049321893913
440224,-781,110,309,2800,-39,-8087,1745188049321893913
440416,-806,121,288,2803,166,-8291,1745188049321893913
440608,-845,116,247,2820,380,-8473,1745188049321893913
440800,-881,101,191,2839,670,-8663,1745188049321893913
440992,-899,84,132,2865,953,-9023,1745188049377677883
441184,-887,62,72,2864,1273,-9426,1745188049377677883
441376,-852,38,16,2777,1443,-9645,1745188049377677883
441568,-814,20,-27,2643,1436,-9716,1745188049377677883
441760,-778,8,-49,2483,1298,-9695,1745188049377677883
441952,-748,0,-45,2309,1170,-9820,1745188049377677883
442144,-716,-7,-24,2174,1149,-9976,1745188049377677883
442336,-689,-19,-1,2051,1143,-10196,1745188049377677883
442528,-664,-30,16,1933,1078,-10334,1745188049377677883
442720,-621,-30,30,1870,908,-10256,1745188049377677883
442912,-564,-23,41,1812,597,-10129,1745188049377677883
443104,-510,-21,55,1711,128,-10053,1745188049377677883
443296,-475,-2,79,1679,-402,-10024,1745188049439983668
443488,-465,13,107,1690,-803,-9808,1745188049439983668
443680,-473,17,127,1730,-871,-9600,1745188049439983668
443872,-497,13,137,1798,-635,-9547,1745188049439983668
444064,-527,8,134,1859,-240,-9447,1745188049439983668
444256,-547,3,122,1885,131,-9274,1745188049439983668
444448,-539,8,111,1954,502,-9216,1745188049439983668
444640,-509,21,104,2054,811,-9262,1745188049439983668
444832,-471,38,94,2187,1047,-9253,1745188049439983668
445024,-433,56,83,2335,1163,-9126,1745188049439983668
445216,-394,75,79,2492,1178,-8933,1745188049439983668
445408,-350,90,81,2639,1110,-8684,1745188049439983668
445600,-316,102,80,2757,911,-8391,1745188049491838298
445792,-288,109,73,2811,717,-8111,1745188049491838298
445984,-260,114,62,2824,612,-7913,1745188049491838298
446176,-232,118,48,2804,508,-7699,1745188049491838298
446368,-200,125,34,2788,399,-7612,1745188049491838298
446560,-162,131,26,2791,320,-7609,1745188049491838298
446752,-132,139,21,2794,195,-7617,1745188049491838298
446944,-116,141,16,2785,91,-7594,1745188049491838298
447136,-122,138,15,2788,-34,-7587,1745188049491838298
447328,-141,126,16,2748,-94,-7666,1745188049491838298
447520,-166,111,19,2691,-91,-7784,1745188049491838298
447712,-195,93,23,2625,-82,-7860,1745188049491838298
447904,-232,73,26,2562,-46,-7874,1745188049551954832
448096,-277,53,34,2514,-25,-7837,1745188049551954832
448288,-329,32,49,2440,54,-7789,1745188049551954832
448480,-384,12,62,2376,265,-7740,1745188049551954832
448672,-427,-8,66,2316,688,-7635,1745188049551954832
448864,-449,-25,59,2213,1128,-7492,1745188049551954832
449056,-458,-35,49,2096,1438,-7322,1745188049551954832
449248,-454,-38,49,1922,1494,-7085,1745188049551954832
449440,-442,-30,62,1734,1422,-6823,1745188049551954832
449632,-415,-11,86,1551,1319,-6550,1745188049551954832
449824,-377,16,112,1411,1160,-6460,1745188049551954832
450016,-333,48,128,1275,1080,-6493,1745188049551954832
450208,-291,84,139,1187,1160,-6646,1745188049612834432
450400,-259,123,155,1154,1243,-6791,1745188049612834432
450592,-229,162,179,1205,1245,-6972,1745188049612834432
450784,-189,197,211,1249,1288,-7257,1745188049612834432
450976,-148,223,240,1363,1426,-7663,1745188049612834432
451168,-117,243,260,1495,1699,-8159,1745188049612834432
451360,-94,260,267,1707,1946,-8581,1745188049612834432
451552,-64,276,257,1939,2215,-8840,1745188049612834432
451744,-20,289,244,2224,2460,-9058,1745188049612834432
451936,24,293,237,2493,2606,-9217,1745188049612834432
452128,60,291,238,2758,2540,-9316,1745188049612834432
452320,79,287,238,2970,2231,-9290,1745188049612834432
452512,78,280,239,3104,1740,-9010,1745188049672320868
452704,71,269,242,3172,1341,-8722,1745188049672320868
452896,49,257,245,3271,1174,-8665,1745188049672320868
453088,-1,238,248,3351,507,-8540,1745188049672320868
453280,-186,199,206,2765,-2409,-8559,1745188049672320868
453472,-482,203,163,2260,-2316,-8515,1745188049672320868
453664,-762,203,222,2432,-1816,-7924,1745188049672320868
453856,-485,197,362,3769,1947,-6278,1745188049672320868
454048,-310,203,397,3432,1439,-8235,1745188049672320868
454240,-822,86,74,3566,471,-6656,1745188049672320868
454432,-536,46,97,4206,2873,-6184,1745188049672320868
454624,-18,0,251,4016,4373,-7759,1745188049672320868
454816,-251,95,316,1914,-1931,-5441,1745188049730483097
455008,-146,88,174,3079,2172,-6832,1745188049730483097
455200,68,61,148,3464,2828,-6500,1745188049730483097
455392,163,8,149,2698,1282,-7364,1745188049730483097
455584,216,51,108,1893,314,-7154,1745188049730483097
455776,251,147,118,583,111,-7424,1745188049730483097
455968,223,321,166,-295,82,-8045,1745188049730483097
456160,134,439,185,515,52,-7222,1745188049730483097
456352,222,427,138,2579,1548,-7895,1745188049730483097
456544,162,412,103,2880,364,-7833,1745188049730483097
456736,87,395,83,3321,-4,-7779,1745188049730483097
456928,51,327,66,4082,-53,-7755,1745188049730483097
457120,9,192,70,4512,185,-7865,1745188049790621558
457312,-25,44,70,4379,584,-7890,1745188049790621558
457504,-54,-64,60,3984,515,-7906,1745188049790621558
457696,-59,-125,44,3360,684,-7778,1745188049790621558
457888,-50,-152,31,2976,491,-7748,1745188049790621558
458080,-52,-153,18,2802,592,-7783,1745188049790621558
458272,-57,-163,10,2983,319,-7658,1745188049790621558
458464,-78,-172,13,3104,466,-7727,1745188049790621558
458656,-109,-188,8,3070,603,-7573,1745188049790621558
458848,-129,-182,-15,2814,1050,-7529,1745188049790621558
459040,-160,-165,-59,2629,947,-7466,1745188049790621558
459232,-190,-154,-111,2587,996,-7456,1745188049790621558
459424,-196,-155,-143,2623,1149,-7486,1745188049847355207
459616,-194,-160,-148,2621,1161,-7526,1745188049847355207
459808,-196,-160,-132,2432,1091,-7521,1745188049847355207
460000,-176,-142,-111,2075,1062,-6904,1745188049847355207
460192,36,-104,-97,1481,1644,-7896,1745188049847355207
460384,-45,-67,-83,1413,1569,-7481,1745188049847355207
460576,-53,-1,-113,1689,932,-7435,1745188049847355207
460768,-50,21,-162,2144,421,-7328,1745188049847355207
460960,-67,1,-162,2596,192,-7194,1745188049847355207
461152,-121,-32,-90,2816,29,-7095,1745188049847355207
461344,-195,-86,17,2806,-30,-6950,1745188049847355207
461536,-283,-177,111,3158,-206,-6884,1745188049847355207
463648,-234,-356,19,2522,1985,-8057,1745188051240184306
514336,83,-292,-22,2090,1175,-7725,1745188051240184306
514528,-137,-174,-69,2128,1605,-7673,1745188051240184306
514720,-101,-193,-46,2369,1753,-7639,1745188051240184306
514912,-94,-248,-10,2566,1989,-7595,1745188051240184306
515104,-53,-275,6,2683,1906,-7809,1745188051240184306
515296,-45,-316,-4,2806,1491,-7902,1745188051240184306
515488,-91,-361,-14,2654,1276,-7855,1745188051240184306
515680,-118,-377,-4,2329,1158,-7921,1745188051240184306
515872,-144,-382,13,1992,1097,-8124,1745188051240184306
516064,-164,-373,19,1741,1175,-8259,1745188051240184306
516256,-193,-352,7,1529,1128,-8346,1745188051240184306
516448,-260,-322,-12,1182,764,-8327,1745188051297697635
516640,-333,-269,-33,929,763,-8260,1745188051297697635
516832,-380,-223,-40,1075,1243,-8222,1745188051297697635
517024,-406,-185,-34,1255,1714,-8157,1745188051297697635
517216,-407,-132,-31,1332,1951,-8068,1745188051297697635
517408,-395,-70,-38,1400,2039,-8007,1745188051297697635
517600,-368,-6,-40,1483,2205,-7998,1745188051297697635
517792,-340,57,-29,1560,2181,-8042,1745188051297697635
517984,-327,106,-11,1711,2237,-8092,1745188051297697635
518176,-300,154,15,1765,2454,-8142,1745188051297697635
518368,-251,205,35,1817,2711,-8187,1745188051297697635
518560,-176,253,36,1860,2900,-8157,1745188051297697635
518752,-96,294,32,1870,2974,-8118,1745188051379887926
518944,-7,318,23,1779,3033,-7894,1745188051379887926
519136,136,334,-20,1702,3031,-7747,1745188051379887926
519328,268,376,-51,1757,2859,-7711,1745188051379887926
519520,346,411,-21,1807,2023,-8157,1745188051379887926
519712,461,483,43,2071,3780,-6900,1745188051379887926
519904,530,481,112,1652,1675,-7405,1745188051379887926
520096,516,478,44,1766,1758,-7421,1745188051379887926
520288,583,461,38,2325,2321,-7001,1745188051379887926
520480,665,272,92,5406,3204,-6893,1745188051379887926
520672,728,-4,115,4986,1941,-7293,1745188051379887926
520864,624,-36,64,3105,392,-7392,1745188051379887926
521056,461,-2,2,1731,-287,-7424,1745188051412985332
521248,324,74,7,963,-214,-7473,1745188051412985332
521440,216,76,56,559,220,-7560,1745188051412985332
521632,128,76,94,525,732,-7677,1745188051412985332
521824,59,99,95,840,1229,-7744,1745188051412985332
522016,31,140,71,1448,1570,-7742,1745188051412985332
522208,37,164,46,2079,1726,-7728,1745188051412985332
522400,46,157,37,2529,1691,-7684,1745188051412985332
522592,40,127,39,2748,1561,-7620,1745188051412985332
522784,24,91,41,2701,1447,-7543,1745188051412985332
522976,5,62,40,2458,1382,-7460,1745188051412985332
523168,-7,44,36,2183,1370,-7408,1745188051412985332
523360,-13,40,31,1919,1369,-7370,1745188051472724057
523552,-14,48,27,1809,1437,-7363,1745188051472724057
523744,-11,61,27,1843,1493,-7419,1745188051472724057
523936,1,71,28,1988,1528,-7495,1745188051472724057
524128,16,76,29,2121,1540,-7573,1745188051472724057
524320,27,75,30,2236,1521,-7618,1745188051472724057
524512,28,70,28,2282,1449,-7633,1745188051472724057
524704,19,61,25,2281,1363,-7613,1745188051472724057
524896,11,53,22,2215,1330,-7598,1745188051472724057
525088,6,46,23,2155,1394,-7626,1745188051472724057
525280,6,45,23,2102,1497,-7643,1745188051472724057
525472,12,47,22,2113,1589,-7705,1745188051472724057
525664,18,50,21,2155,1623,-7755,1745188051530959462
525856,20,51,20,2228,1611,-7805,1745188051530959462
526048,16,50,19,2259,1553,-7836,1745188051530959462
526240,2,46,21,2287,1490,-7842,1745188051530959462
526432,-20,40,24,2300,1475,-7825,1745188051530959462
526624,-41,34,29,2290,1491,-7797,1745188051530959462
526816,-58,28,30,2271,1573,-7758,1745188051530959462
527008,-73,26,29,2215,1619,-7685,1745188051530959462
527200,-80,28,31,2184,1617,-7616,1745188051530959462
527392,-81,31,37,2157,1622,-7610,1745188051530959462
527584,-81,34,42,2143,1664,-7639,1745188051530959462
527776,-80,38,43,2163,1699,-7698,1745188051530959462
527968,-81,42,42,2191,1683,-7764,1745188051586390154
528160,-87,44,41,2231,1615,-7840,1745188051586390154
528352,-103,41,43,2285,1538,-7905,1745188051586390154
528544,-128,33,47,2302,1480,-7900,1745188051586390154
528736,-161,24,55,2297,1438,-7928,1745188051586390154
528928,-195,16,60,2277,1485,-7923,1745188051586390154
529120,-224,11,61,2258,1577,-7917,1745188051586390154
529312,-251,9,61,2259,1693,-7894,1745188051586390154
529504,-274,9,58,2251,1776,-7859,1745188051586390154
529696,-287,11,55,2248,1808,-7808,1745188051586390154
529888,-290,15,52,2241,1814,-7814,1745188051586390154
530080,-288,19,50,2245,1813,-7815,1745188051586390154
530272,-283,24,47,2240,1791,-7829,1745188051651014616
530464,-272,28,46,2252,1775,-7815,1745188051651014616
530656,-256,33,49,2231,1780,-7818,1745188051651014616
530848,-238,37,52,2248,1800,-7850,1745188051651014616
531040,-220,43,52,2257,1795,-7845,1745188051651014616
531232,-200,48,48,2264,1795,-7812,1745188051651014616
531424,-180,52,46,2284,1774,-7774,1745188051651014616
531616,-164,54,46,2306,1761,-7772,1745188051651014616
531808,-149,57,48,2319,1730,-7770,1745188051651014616
532000,-132,63,48,2317,1750,-7762,1745188051651014616
532192,-105,69,44,2331,1775,-7783,1745188051651014616
532384,-73,77,37,2330,1840,-7846,1745188051651014616
532576,-38,83,30,2333,1870,-7929,1745188051706137654
532768,-4,91,25,2332,1849,-8043,1745188051706137654
532960,28,99,22,2330,1817,-8132,1745188051706137654
533152,60,106,20,2354,1788,-8200,1745188051706137654
533344,86,112,17,2399,1736,-8257,1745188051706137654
533536,107,118,18,2469,1682,-8289,1745188051706137654
533728,128,124,21,2536,1691,-8303,1745188051706137654
533920,153,127,21,2607,1753,-8329,1745188051706137654
534112,183,129,18,2637,1813,-8370,1745188051706137654
534304,215,130,14,2664,1840,-8433,1745188051706137654
534496,242,127,8,2686,1844,-8570,1745188051706137654
534688,260,116,-1,2707,1870,-8904,1745188051706137654
534880,282,88,-17,2666,2176,-9025,1745188051776120452
535072,320,76,-48,2412,2711,-8571,1745188051776120452
535264,299,94,-79,2248,2728,-8109,1745188051776120452
535456,250,140,-74,2327,2120,-7467,1745188051776120452
535648,244,191,-21,2622,1507,-7268,1745188051776120452
535840,181,213,50,3183,900,-7879,1745188051776120452
536032,35,195,117,3815,150,-8455,1745188051776120452
536224,-98,120,162,4149,-242,-8879,1745188051776120452
536416,-196,22,170,4025,-37,-8829,1745188051776120452
536608,-249,-55,148,3575,610,-8527,1745188051776120452
536800,-245,-90,109,2975,1512,-8109,1745188051776120452
536992,-189,-82,70,2451,2368,-7769,1745188051776120452
537184,-95,-43,41,2113,3088,-7554,1745188051821069260
537376,3,9,32,1969,3448,-7611,1745188051821069260
537568,70,56,48,1985,3329,-7796,1745188051821069260
537760,109,91,85,2104,2876,-7752,1745188051821069260
537952,128,108,123,2246,2390,-7850,1745188051821069260
538144,118,104,150,2363,2002,-8028,1745188051821069260
538336,89,89,166,2452,1733,-8069,1745188051821069260
538528,71,66,171,2417,1649,-8076,1745188051821069260
538720,70,47,171,2361,1727,-8215,1745188051821069260
538912,84,40,165,2283,1922,-8239,1745188051821069260
539104,115,41,155,2258,2145,-8233,1745188051821069260
539296,158,51,147,2256,2316,-8240,1745188051821069260
539488,199,64,139,2299,2361,-8253,1745188051881839070
539680,226,74,129,2388,2283,-8367,1745188051881839070
539872,242,77,119,2478,2140,-8451,1745188051881839070
540064,251,72,114,2549,1950,-8532,1745188051881839070
540256,240,62,116,2623,1651,-8669,1745188051881839070
540448,205,47,127,2722,1280,-8847,1745188051881839070
540640,151,30,140,2798,960,-8858,1745188051881839070
540832,85,15,149,2892,735,-8950,1745188051881839070
541024,10,-1,152,2992,502,-9091,1745188051881839070
541216,-64,-15,152,3132,301,-9183,1745188051881839070
541408,-128,-32,149,3244,161,-9310,1745188051881839070
541600,-189,-49,140,3357,65,-9488,1745188051881839070
541792,-252,-63,125,3478,-25,-9626,1745188051942699191
541984,-312,-72,102,3602,-112,-9713,1745188051942699191
542176,-371,-80,78,3712,-180,-9725,1745188051942699191
542368,-431,-88,55,3801,-328,-9757,1745188051942699191
542560,-494,-96,37,3910,-486,-9844,1745188051942699191
542752,-552,-102,25,4023,-625,-9955,1745188051942699191
542944,-608,-104,23,4141,-828,-10113,1745188051942699191
543136,-675,-107,33,4337,-1049,-10380,1745188051942699191
543328,-760,-114,53,4574,-1264,-10473,1745188051942699191
543520,-861,-126,75,4817,-1350,-10322,1745188051942699191
543712,-965,-139,93,5110,-1261,-10322,1745188051942699191
543904,-1057,-151,105,5464,-1010,-10573,1745188051942699191
544096,-1134,-166,111,5854,-593,-10810,1745188052000255488
544288,-1220,-180,103,6247,-137,-10847,1745188052000255488
544480,-1362,-207,78,6562,43,-10911,1745188052000255488
544672,-1508,-254,51,6849,137,-11190,1745188052000255488
544864,-1624,-277,38,7129,416,-11169,1745188052000255488
545056,-1704,-321,26,7338,718,-10998,1745188052000255488
545248,-1757,-391,-1,7453,928,-10963,1745188052000255488
545440,-1806,-464,-39,7553,1084,-10966,1745188052000255488
545632,-1860,-528,-80,7587,1223,-10866,1745188052000255488
545824,-1899,-581,-117,7624,1541,-10810,1745188052000255488
546016,-1901,-621,-147,7698,2108,-10735,1745188052000255488
546208,-1839,-653,-176,7772,2938,-10539,1745188052000255488
546400,-1706,-687,-213,7870,3690,-10226,1745188052055008998
546592,-1515,-740,-254,7939,4121,-9841,1745188052055008998
546784,-1295,-817,-281,7924,4003,-9476,1745188052055008998
546976,-1090,-918,-284,7895,3362,-9312,1745188052055008998
547168,-925,-1022,-266,7835,2588,-9383,1745188052055008998
547360,-812,-1100,-215,7746,1861,-9417,1745188052055008998
547552,-752,-1160,-134,7634,1246,-9424,1745188052055008998
547744,-713,-1213,-52,7550,865,-9410,1745188052055008998
547936,-693,-1259,14,7446,572,-9340,1745188052055008998
548128,-706,-1312,71,7376,122,-9327,1745188052055008998
548320,-757,-1370,134,7324,-513,-9306,1745188052055008998
548512,-822,-1423,204,7205,-1139,-9217,1745188052055008998
548704,-899,-1466,279,7104,-1593,-9116,1745188052125099504
548896,-991,-1501,352,7001,-1789,-8915,1745188052125099504
549088,-1112,-1535,402,6877,-1788,-8804,1745188052125099504
549280,-1271,-1554,414,6755,-1626,-8822,1745188052125099504
549472,-1471,-1557,413,6651,-1296,-8836,1745188052125099504
549664,-1677,-1547,411,6563,-853,-8822,1745188052125099504
549856,-1859,-1535,413,6495,-295,-8702,1745188052125099504
550048,-2001,-1539,425,6493,316,-8532,1745188052125099504
550240,-2097,-1559,446,6500,945,-8371,1745188052125099504
550432,-2153,-1600,472,6504,1528,-8086,1745188052125099504
550624,-2176,-1655,502,6475,1970,-7943,1745188052125099504
550816,-2176,-1725,546,6456,2250,-7844,1745188052125099504
551008,-2154,-1810,612,6418,2324,-7879,1745188052171792775
551200,-2113,-1914,705,6371,2177,-7892,1745188052171792775
551392,-2061,-2041,817,6329,1886,-7885,1745188052171792775
551584,-2005,-2175,942,6258,1564,-7867,1745188052171792775
551776,-1967,-2317,1074,6195,1240,-7867,1745188052171792775
551968,-1965,-2458,1199,6101,986,-7726,1745188052171792775
552160,-1994,-2592,1305,5967,864,-7514,1745188052171792775
552352,-2047,-2720,1386,5803,915,-7210,1745188052171792775
552544,-2121,-2839,1449,5635,1059,-6934,1745188052171792775
552736,-2199,-2948,1500,5434,1279,-6628,1745188052171792775
552928,-2257,-3049,1549,5240,1577,-6304,1745188052171792775
553120,-2297,-3147,1603,5065,1899,-6087,1745188052171792775
553312,-2322,-3243,1659,4918,2246,-5906,1745188052232452377
553504,-2325,-3332,1717,4808,2618,-5652,1745188052232452377
553696,-2309,-3416,1774,4664,3061,-5444,1745188052232452377
553888,-2275,-3495,1830,4571,3466,-5269,1745188052232452377
554080,-2225,-3569,1874,4517,3849,-5082,1745188052232452377
554272,-2160,-3637,1904,4437,4197,-4920,1745188052232452377
554464,-2084,-3707,1929,4356,4557,-4686,1745188052232452377
554656,-1990,-3776,1954,4312,4906,-4405,1745188052232452377
554848,-1883,-3843,1979,4243,5212,-4145,1745188052232452377
555040,-1773,-3917,2002,4241,5365,-3967,1745188052232452377
555232,-1659,-3997,2017,4252,5440,-3637,1745188052232452377
555424,-1533,-4069,2028,4262,5503,-3256,1745188052232452377
555616,-1395,-4136,2041,4285,5517,-2929,1745188052292273602
555808,-1259,-4206,2057,4322,5477,-2613,1745188052292273602
556000,-1141,-4273,2077,4337,5350,-2293,1745188052292273602
556192,-1048,-4337,2103,4400,5185,-2017,1745188052292273602
556384,-987,-4396,2136,4461,4976,-1800,1745188052292273602
556576,-969,-4456,2176,4561,4758,-1619,1745188052292273602
556768,-984,-4516,2222,4699,4617,-1554,1745188052292273602
556960,-1023,-4578,2265,4851,4579,-1478,1745188052292273602
557152,-1077,-4642,2302,5009,4619,-1347,1745188052292273602
557344,-1131,-4709,2336,5143,4739,-1212,1745188052292273602
557536,-1176,-4777,2361,5260,4960,-1137,1745188052292273602
557728,-1210,-4850,2373,5380,5231,-1133,1745188052292273602
557920,-1240,-4925,2373,5444,5506,-1078,1745188052350368071
558112,-1261,-5001,2369,5490,5778,-901,1745188052350368071
558304,-1262,-5069,2366,5514,5937,-465,1745188052350368071
558496,-1242,-5129,2364,5518,6032,-60,1745188052350368071
558688,-1210,-5183,2366,5558,6052,95,1745188052350368071
558880,-1189,-5237,2374,5618,6073,228,1745188052350368071
559072,-1189,-5281,2387,5687,6058,513,1745188052350368071
559264,-1195,-5312,2400,5809,6134,832,1745188052350368071
559456,-1196,-5332,2404,5973,6409,1161,1745188052350368071
559648,-1192,-5347,2401,6138,6857,1457,1745188052350368071
559840,-1182,-5348,2393,6380,7408,1702,1745188052350368071
560032,-1165,-5336,2378,6638,7949,1903,1745188052350368071
560224,-1132,-5319,2360,6952,8457,2053,1745188052406351674
560416,-1078,-5305,2344,7338,8947,2160,1745188052406351674
560608,-1005,-5305,2331,7737,9268,2272,1745188052406351674
560800,-916,-5311,2319,8095,9489,2389,1745188052406351674
560992,-825,-5313,2311,8346,9634,2217,1745188052406351674
561184,-761,-5326,2309,8471,9635,1928,1745188052406351674
561376,-720,-5337,2304,8384,9467,1839,1745188052406351674
561568,-682,-5330,2292,8086,9148,1899,1745188052406351674
561760,-637,-5286,2261,7620,8756,1933,1745188052406351674
561952,-589,-5206,2198,7035,8434,1965,1745188052406351674
562144,-554,-5099,2111,6421,8267,2088,1745188052406351674
562336,-540,-4950,2012,5823,8247,2327,1745188052406351674
562528,-540,-4770,1916,5266,8350,2673,1745188052463649692
562720,-538,-4577,1826,4769,8608,3123,1745188052463649692
562912,-528,-4373,1742,4304,9095,3647,1745188052463649692
563104,-524,-4157,1660,3870,9814,3918,1745188052463649692
563296,-538,-3938,1582,3488,10629,3959,1745188052463649692
563488,-576,-3727,1502,3131,11437,4131,1745188052463649692
563680,-622,-3536,1409,2749,12082,4508,1745188052463649692
563872,-653,-3376,1300,2282,12440,4945,1745188052463649692
564064,-671,-3228,1179,1609,12515,5321,1745188052463649692
564256,-676,-3080,1046,894,12318,5370,1745188052463649692
564448,-669,-2914,904,222,11984,5561,1745188052463649692
564640,-643,-2722,758,-302,11584,5666,1745188052463649692
564832,-591,-2514,621,-664,11166,5430,1745188052524869862
565024,-524,-2297,508,-835,10703,4959,1745188052524869862
565216,-433,-2099,411,-818,10172,4398,1745188052524869862
565408,-322,-1937,317,-696,9613,3853,1745188052524869862
565600,-212,-1811,227,-582,9040,3481,1745188052524869862
565792,-124,-1713,148,-509,8634,3197,1745188052524869862
565984,-73,-1627,85,-466,8354,2981,1745188052524869862
566176,-59,-1554,40,-452,8163,2941,1745188052524869862
566368,-55,-1495,6,-410,8013,3014,1745188052524869862
566560,-50,-1444,-20,-405,7988,3072,1745188052524869862
566752,-51,-1404,-39,-399,7968,3148,1745188052524869862
566944,-65,-1375,-61,-425,7939,3247,1745188052524869862
567136,-84,-1352,-77,-510,7921,3368,1745188052582498138
567328,-102,-1334,-73,-630,7939,3412,1745188052582498138
567520,-119,-1315,-56,-762,7946,3384,1745188052582498138
567712,-146,-1293,-36,-844,8007,3318,1745188052582498138
567904,-182,-1273,-24,-906,8083,3260,1745188052582498138
568096,-217,-1259,-16,-965,8208,3221,1745188052582498138
568288,-240,-1248,-1,-981,8351,3157,1745188052582498138
568480,-251,-1240,20,-1004,8502,3087,1745188052582498138
568672,-252,-1234,46,-996,8644,3073,1745188052582498138
568864,-248,-1233,72,-996,8735,3074,1745188052582498138
569056,-238,-1236,92,-980,8817,3079,1745188052582498138
569248,-221,-1242,108,-1030,8877,3080,1745188052582498138
569440,-200,-1245,126,-1113,8887,3045,1745188052642809202
569632,-176,-1239,147,-1224,8873,2983,1745188052642809202
569824,-154,-1227,166,-1332,8810,2899,1745188052642809202
570016,-136,-1213,181,-1403,8691,2826,1745188052642809202
570208,-122,-1194,188,-1442,8564,2805,1745188052642809202
570400,-120,-1170,188,-1470,8456,2740,1745188052642809202
570592,-127,-1141,184,-1491,8392,2706,1745188052642809202
570784,-134,-1109,181,-1497,8379,2688,1745188052642809202
570976,-139,-1076,174,-1505,8433,2669,1745188052642809202
571168,-143,-1038,162,-1488,8491,2595,1745188052642809202
571360,-142,-998,144,-1475,8539,2461,1745188052642809202
571552,-131,-961,123,-1452,8537,2374,1745188052642809202
571744,-105,-928,105,-1472,8492,2331,1745188052698693170
571936,-67,-898,90,-1505,8390,2243,1745188052698693170
572128,-32,-869,69,-1539,8247,2167,1745188052698693170
572320,-9,-838,47,-1590,8072,2087,1745188052698693170
572512,0,-804,25,-1637,7918,2039,1745188052698693170
572704,-4,-777,7,-1666,7732,2020,1745188052698693170
572896,-17,-752,-7,-1693,7615,2025,1745188052698693170
573088,-40,-726,-20,-1713,7559,2010,1745188052698693170
573280,-67,-690,-33,-1723,7585,1959,1745188052698693170
573472,-97,-656,-48,-1742,7617,1909,1745188052698693170
573664,-119,-626,-54,-1729,7688,1816,1745188052698693170
573856,-129,-598,-50,-1703,7795,1737,1745188052698693170
574048,-130,-579,-49,-1634,7928,1702,1745188052764773400
574240,-128,-566,-58,-1604,8021,1724,1745188052764773400
574432,-125,-552,-66,-1655,8079,1736,1745188052764773400
574624,-117,-537,-65,-1673,8125,1763,1745188052764773400
574816,-102,-521,-56,-1702,8128,1771,1745188052764773400
575008,-84,-509,-44,-1771,8067,1793,1745188052764773400
575200,-70,-496,-32,-1851,7975,1812,1745188052764773400
575392,-60,-480,-24,-1935,7865,1807,1745188052764773400
575584,-56,-458,-18,-1938,7761,1755,1745188052764773400
575776,-59,-430,-12,-1878,7734,1700,1745188052764773400
575968,-66,-402,-5,-1785,7779,1617,1745188052764773400
576160,-75,-382,4,-1673,7859,1553,1745188052764773400
576352,-82,-369,14,-1599,7953,1492,1745188052815227002
576544,-81,-361,24,-1586,7998,1442,1745188052815227002
576736,-75,-356,30,-1615,7988,1387,1745188052815227002
576928,-69,-352,38,-1653,7919,1368,1745188052815227002
577120,-63,-342,45,-1653,7799,1354,1745188052815227002
577312,-61,-327,47,-1698,7688,1374,1745188052815227002
577504,-64,-310,48,-1751,7632,1441,1745188052815227002
577696,-70,-288,52,-1753,7616,1464,1745188052815227002
577888,-82,-267,57,-1735,7638,1453,1745188052815227002
578080,-96,-245,59,-1691,7692,1494,1745188052815227002
578272,-101,-222,58,-1634,7806,1513,1745188052815227002
578464,-94,-204,61,-1622,7920,1447,1745188052815227002
578656,-82,-190,69,-1653,8018,1385,1745188052875430254
578848,-69,-178,73,-1665,8042,1368,1745188052875430254
579040,-50,-162,70,-1698,8070,1320,1745188052875430254
579232,-30,-144,68,-1729,8093,1237,1745188052875430254
579424,-16,-126,72,-1725,8069,1191,1745188052875430254
579616,-2,-102,78,-1640,8096,1106,1745188052875430254
579808,13,-81,82,-1556,8122,1019,1745188052875430254
580000,24,-66,89,-1500,8168,968,1745188052875430254
580192,33,-58,98,-1462,8219,940,1745188052875430254
580384,41,-54,104,-1510,8257,886,1745188052875430254
580576,45,-48,108,-1547,8305,846,1745188052875430254
580768,51,-39,109,-1553,8299,838,1745188052875430254
580960,60,-30,108,-1583,8274,850,1745188052934043572
581152,69,-21,110,-1597,8241,908,1745188052934043572
581344,78,-16,109,-1624,8197,1002,1745188052934043572
581536,88,-12,106,-1661,8169,1091,1745188052934043572
581728,97,-7,103,-1666,8101,1203,1745188052934043572
581920,107,-2,102,-1686,7999,1296,1745188052934043572
582112,118,5,101,-1702,7911,1346,1745188052934043572
582304,128,17,97,-1682,7846,1363,1745188052934043572
582496,132,33,90,-1625,7790,1372,1745188052934043572
582688,129,46,85,-1523,7797,1358,1745188052934043572
582880,119,58,82,-1417,7816,1327,1745188052934043572
583072,107,64,80,-1335,7845,1304,1745188052934043572
583264,96,67,84,-1291,7842,1318,1745188053002791694
583456,89,71,90,-1274,7850,1353,1745188053002791694
583648,89,75,94,-1282,7871,1355,1745188053002791694
583840,88,86,97,-1303,7905,1327,1745188053002791694
584032,88,102,98,-1291,7950,1299,1745188053002791694
584224,88,113,99,-1298,7959,1307,1745188053002791694
584416,91,121,106,-1292,7951,1367,1745188053002791694
584608,97,129,111,-1303,7913,1464,1745188053002791694
584800,105,141,114,-1344,7885,1569,1745188053002791694
584992,108,158,119,-1356,7832,1700,1745188053002791694
585184,110,173,122,-1383,7770,1830,1745188053002791694
585376,116,187,125,-1416,7681,1972,1745188053002791694
585568,126,205,132,-1442,7615,2193,1745188053049167156
585760,141,221,140,-1486,7620,2353,1745188053049167156
585952,158,237,152,-1567,7657,2446,1745188053049167156
586144,173,253,165,-1624,7687,2561,1745188053049167156
586336,195,275,177,-1638,7704,2693,1745188053049167156
586528,222,303,185,-1592,7666,2846,1745188053049167156
586720,247,333,194,-1497,7612,2993,1745188053049167156
586912,271,358,203,-1386,7584,3078,1745188053049167156
587104,290,380,216,-1312,7603,3099,1745188053049167156
587296,299,409,233,-1206,7738,3031,1745188053049167156
587488,300,449,246,-1074,8006,2825,1745188053049167156
587680,292,495,253,-911,8362,2536,1745188053049167156
587872,281,539,258,-786,8747,2278,1745188053108954787
588064,280,582,273,-642,9069,2067,1745188053108954787
588256,294,609,284,-617,9320,1900,1745188053108954787
588448,321,612,281,-690,9472,1791,1745188053108954787
588640,353,615,267,-844,9534,1683,1745188053108954787
588832,381,635,246,-968,9537,1610,1745188053108954787
589024,404,674,222,-1075,9407,1648,1745188053108954787
589216,428,716,197,-1142,9211,1698,1745188053108954787
589408,448,753,171,-1177,9012,1702,1745188053108954787
589600,463,793,137,-1152,8862,1706,1745188053108954787
589792,472,838,93,-1144,8785,1654,1745188053108954787
589984,474,886,50,-1084,8808,1554,1745188053108954787
590176,465,932,12,-1021,8930,1402,1745188053166582386
590368,447,975,-27,-939,9122,1262,1745188053166582386
590560,423,1013,-67,-864,9339,1129,1745188053166582386
590752,403,1049,-111,-802,9561,972,1745188053166582386
590944,390,1082,-151,-781,9740,801,1745188053166582386
591136,392,1112,-188,-781,9870,657,1745188053166582386
591328,406,1140,-221,-805,9952,526,1745188053166582386
591520,429,1163,-253,-834,9973,408,1745188053166582386
591712,450,1189,-284,-855,9969,336,1745188053166582386
591904,469,1217,-313,-856,9925,299,1745188053166582386
592096,486,1243,-341,-903,9868,307,1745188053166582386
592288,501,1272,-365,-934,9793,385,1745188053166582386
592480,521,1300,-388,-940,9715,522,1745188053222244325
592672,542,1329,-412,-933,9665,614,1745188053222244325
592864,558,1363,-440,-885,9678,652,1745188053222244325
593056,571,1398,-471,-823,9754,590,1745188053222244325
593248,577,1431,-501,-723,9841,510,1745188053222244325
593440,584,1460,-528,-616,9948,431,1745188053222244325
593632,599,1482,-556,-526,9986,340,1745188053222244325
593824,617,1498,-588,-476,9974,256,1745188053222244325
594016,639,1512,-621,-466,9898,166,1745188053222244325
594208,665,1529,-654,-484,9807,64,1745188053222244325
594400,686,1548,-689,-496,9692,-41,1745188053222244325
594592,698,1567,-725,-509,9549,-67,1745188053222244325
594784,699,1583,-765,-540,9335,-57,1745188053283303976
594976,689,1597,-811,-565,9068,-17,1745188053283303976
595168,663,1609,-855,-606,8808,38,1745188053283303976
595360,602,1627,-888,-618,8552,107,1745188053283303976
595552,499,1644,-910,-591,8290,223,1745188053283303976
595744,353,1666,-929,-573,8053,364,1745188053283303976
595936,161,1684,-956,-542,7853,550,1745188053283303976
596128,-67,1706,-986,-513,7746,762,1745188053283303976
596320,-322,1732,-1011,-454,7695,964,1745188053283303976
596512,-583,1769,-1027,-377,7732,1147,1745188053283303976
596704,-833,1817,-1032,-266,7907,1254,1745188053283303976
596896,-1059,1871,-1030,-105,8191,1327,1745188053283303976
597088,-1249,1927,-1029,85,8483,1388,1745188053343382854
597280,-1391,1984,-1038,225,8786,1494,1745188053343382854
597472,-1472,2041,-1049,344,9079,1668,1745188053343382854
597664,-1481,2100,-1064,428,9418,1861,1745188053343382854
597856,-1421,2158,-1082,429,9829,1993,1745188053343382854
598048,-1318,2220,-1099,419,10246,2031,1745188053343382854
598240,-1178,2285,-1116,454,10598,2099,1745188053343382854
598432,-1007,2347,-1142,506,10841,2091,1745188053343382854
598624,-811,2412,-1175,580,10967,2010,1745188053343382854
598816,-599,2478,-1210,657,10952,1936,1745188053343382854
599008,-383,2539,-1242,763,10796,1897,1745188053343382854
599200,-175,2593,-1270,834,10546,1843,1745188053343382854
599392,16,2640,-1297,905,10265,1746,1745188053407674506
599584,179,2687,-1329,965,10042,1648,1745188053407674506
599776,314,2737,-1359,1010,9880,1556,1745188053407674506
599968,433,2788,-1386,1066,9780,1514,1745188053407674506
600160,551,2835,-1412,1141,9692,1475,1745188053407674506
600352,671,2879,-1442,1207,9690,1413,1745188053407674506
600544,785,2921,-1477,1233,9708,1332,1745188053407674506
600736,887,2962,-1516,1289,9711,1263,1745188053407674506
600928,975,3001,-1555,1370,9690,1139,1745188053407674506
601120,1051,3036,-1594,1468,9576,989,1745188053407674506
601312,1108,3067,-1632,1577,9421,868,1745188053407674506
601504,1149,3094,-1671,1688,9204,744,1745188053407674506
601696,1173,3115,-1714,1810,9008,597,1745188053456284427
601888,1176,3132,-1761,1893,8820,431,1745188053456284427
602080,1161,3146,-1809,1966,8633,315,1745188053456284427
602272,1138,3154,-1855,2036,8451,182,1745188053456284427
602464,1122,3160,-1895,2094,8302,116,1745188053456284427
602656,1118,3165,-1934,2111,8205,82,1745188053456284427
602848,1122,3169,-1970,2086,8133,123,1745188053456284427
603040,1132,3180,-2006,2074,8099,217,1745188053456284427
603232,1156,3196,-2041,2054,8089,315,1745188053456284427
603424,1200,3218,-2074,2036,8141,381,1745188053456284427
603616,1252,3236,-2109,2019,8193,357,1745188053456284427
603808,1305,3244,-2145,2002,8201,278,1745188053456284427
604000,1360,3245,-2180,1975,8129,218,1745188053515818414
604192,1425,3247,-2216,1923,8037,62,1745188053515818414
604384,1499,3252,-2250,1901,7971,-135,1745188053515818414
604576,1581,3260,-2281,1902,7948,-326,1745188053515818414
604768,1660,3271,-2308,1935,7910,-483,1745188053515818414
604960,1737,3278,-2333,1953,7837,-578,1745188053515818414
605152,1811,3281,-2354,2007,7669,-624,1745188053515818414
605344,1887,3283,-2374,2055,7432,-669,1745188053515818414
605536,1952,3279,-2392,2084,7131,-758,1745188053515818414
605728,2006,3275,-2413,2120,6819,-937,1745188053515818414
605920,2061,3274,-2431,2152,6563,-1076,1745188053515818414
606112,2119,3274,-2448,2203,6411,-1083,1745188053515818414
606304,2176,3274,-2466,2277,6291,-1054,1745188053598048757
606496,2235,3271,-2482,2336,6198,-1022,1745188053598048757
606688,2299,3265,-2498,2390,6126,-1048,1745188053598048757
606880,2374,3259,-2514,2423,6108,-1043,1745188053598048757
607072,2456,3254,-2536,2412,6061,-1004,1745188053598048757
607264,2534,3252,-2563,2424,5950,-973,1745188053598048757
607456,2609,3253,-2588,2420,5815,-959,1745188053598048757
607648,2684,3261,-2613,2494,5687,-980,1745188053598048757
607840,2760,3265,-2639,2574,5621,-1099,1745188053598048757
608032,2839,3270,-2662,2683,5668,-1315,1745188053598048757
608224,2912,3276,-2682,2835,5806,-1507,1745188053598048757
608416,2969,3280,-2702,3047,5907,-1657,1745188053598048757
608608,3008,3279,-2724,3292,5881,-1798,1745188053695623855
608800,3035,3269,-2745,3570,5704,-1926,1745188053695623855
608992,3059,3252,-2766,3821,5445,-2168,1745188053695623855
609184,3079,3224,-2784,4095,5123,-2518,1745188053695623855
609376,3102,3186,-2798,4326,4843,-2649,1745188053695623855
609568,3112,3151,-2805,4518,4589,-2785,1745188053695623855
609760,3114,3106,-2809,4699,4348,-2940,1745188053695623855
609952,3110,3046,-2818,4833,4148,-3110,1745188053695623855
610144,3092,2984,-2837,4894,3987,-3272,1745188053695623855
610336,3059,2916,-2868,4921,3865,-3327,1745188053695623855
610528,3008,2842,-2908,4892,3765,-3288,1745188053695623855
610720,2948,2774,-2949,4860,3646,-3181,1745188053695623855
610912,2895,2717,-2989,4771,3563,-3106,1745188053703309410
611104,2856,2672,-3020,4652,3465,-3063,1745188053703309410
611296,2827,2636,-3034,4525,3374,-3294,1745188053703309410
611488,2808,2601,-3030,4446,3277,-3710,1745188053703309410
611680,2803,2580,-3005,4415,3221,-4010,1745188053703309410
611872,2799,2554,-2965,4414,3117,-4298,1745188053703309410
612064,2794,2519,-2917,4492,2951,-4729,1745188053703309410
612256,2789,2478,-2872,4590,2739,-5336,1745188053703309410
612448,2791,2436,-2831,4713,2441,-5923,1745188053703309410
612640,2801,2395,-2791,4879,2058,-6445,1745188053703309410
612832,2806,2346,-2753,5087,1610,-6885,1745188053703309410
613024,2788,2291,-2720,5279,1159,-7242,1745188053703309410
613024,2788,2291,-2720,5279,1159,-7242,1745188053755885648
613408,2655,2126,-2639,5618,29,-7966,1745188053755885648
613600,2564,2021,-2589,5733,-500,-8089,1745188053755885648
613792,2448,1909,-2532,5811,-981,-8242,1745188053755885648
613984,2309,1792,-2477,5830,-1441,-8427,1745188053755885648
614176,2142,1677,-2427,5798,-1942,-8613,1745188053755885648
614368,1959,1574,-2387,5783,-2518,-8862,1745188053755885648
614560,1775,1488,-2363,5691,-2918,-9000,1745188053755885648
614752,1594,1404,-2339,5568,-3221,-9252,1745188053755885648
614944,1425,1332,-2304,5475,-3631,-9453,1745188053755885648
615136,1263,1272,-2246,5401,-4111,-9597,1745188053755885648
615328,1096,1222,-2172,5407,-4562,-9766,1745188053755885648
615520,906,1169,-2092,5483,-4889,-9948,1745188053823689300
615712,679,1113,-2013,5661,-5060,-10301,1745188053823689300
615904,435,1067,-1970,5897,-5071,-10586,1745188053823689300
616096,200,1012,-1976,6117,-4814,-10779,1745188053823689300
616288,3,959,-1994,6246,-4445,-10980,1745188053823689300
616480,-160,907,-1994,6324,-4165,-11056,1745188053823689300
616672,-288,851,-1955,6315,-4049,-11249,1745188053823689300
616864,-387,801,-1879,6233,-4147,-11363,1745188053823689300
617056,-470,743,-1787,6139,-4377,-11409,1745188053823689300
617248,-561,700,-1694,6115,-4607,-11366,1745188053823689300
617440,-668,659,-1597,6146,-4656,-11342,1745188053823689300
617632,-777,627,-1498,6210,-4486,-11275,1745188053823689300
617824,-867,595,-1397,6301,-4207,-11035,1745188053876332152
618016,-915,553,-1314,6321,-3812,-10754,1745188053876332152
618208,-924,512,-1246,6252,-3405,-10425,1745188053876332152
618400,-907,485,-1176,6148,-3179,-10087,1745188053876332152
618592,-872,471,-1108,6030,-3134,-9864,1745188053876332152
618784,-831,468,-1048,5941,-3090,-9755,1745188053876332152
618976,-806,471,-983,5887,-3047,-9567,1745188053876332152
619168,-798,477,-918,5795,-2964,-9327,1745188053876332152
619360,-800,495,-855,5693,-2817,-9078,1745188053876332152
619552,-807,524,-796,5593,-2586,-8789,1745188053876332152
619744,-818,568,-744,5497,-2574,-7937,1745188053876332152
619936,-850,659,-640,5424,-4885,-4328,1745188053876332152
620128,-1005,815,-162,5636,-11889,-1324,1745188053938933403
620320,-1353,794,1165,7122,-23711,-9865,1745188053938933403
620512,-1585,408,2930,10922,-29748,-20333,1745188053938933403
620704,-2378,76,3522,12720,-23642,-17933,1745188053938933403
620896,-4148,66,2884,12932,-16409,-15378,1745188053938933403
621088,-6339,-21,1752,12633,-12540,-15732,1745188053938933403
621280,-7159,-36,722,11372,-3927,-12414,1745188053938933403
621472,-6620,246,-92,9809,5341,-12304,1745188053938933403
621664,-5166,502,-577,9596,11055,-5866,1745188053938933403
621856,-3077,486,-755,10618,12575,-5761,1745188053938933403
622048,-1019,51,-820,11905,10160,-9792,1745188053938933403
622240,101,-570,-896,11817,6033,-12488,1745188053938933403
622432,229,-925,-944,10243,3324,-10848,1745188053989411015
622624,-144,-979,-803,8277,2534,-8129,1745188053989411015
622816,-569,-910,-441,6862,2863,-6351,1745188053989411015
623008,-794,-894,-92,5641,4092,-5526,1745188053989411015
623200,-876,-1005,107,4282,5495,-5514,1745188053989411015
623392,-804,-1120,139,2635,6346,-4656,1745188053989411015
623584,-577,-1088,57,978,6537,-3987,1745188053989411015
623776,-209,-908,-84,-418,5820,-4196,1745188053989411015
623968,194,-669,-237,-1364,4535,-4882,1745188053989411015
624160,502,-419,-334,-1961,2979,-6050,1745188053989411015
624352,643,-196,-329,-2118,1392,-8027,1745188053989411015
624544,600,-16,-242,-1705,327,-9931,1745188053989411015
624736,431,137,-111,-1052,216,-11274,1745188054053494752
624928,271,247,38,-142,1085,-12154,1745188054053494752
625120,168,325,153,861,2460,-12660,1745188054053494752
625312,94,354,187,1807,3599,-12837,1745188054053494752
625504,90,329,159,2438,4051,-12471,1745188054053494752
625696,136,257,125,2602,3913,-11689,1745188054053494752
625888,181,161,106,2261,3515,-11145,1745188054053494752
626080,193,65,94,1586,2910,-10687,1745188054053494752
626272,185,-9,73,763,2372,-9968,1745188054053494752
626464,133,-33,53,-16,2188,-9403,1745188054053494752
626656,56,-18,36,-577,2476,-9138,1745188054053494752
626848,-14,17,8,-781,2933,-8801,1745188054053494752
627040,-109,73,-19,-614,3245,-8468,1745188054117951455
627232,-240,155,-10,-16,3248,-8355,1745188054117951455
627424,-341,219,44,853,2902,-8065,1745188054117951455
627616,-340,230,117,1667,2456,-7362,1745188054117951455
627808,-311,207,174,2271,2143,-7026,1745188054117951455
628000,-317,164,196,2683,1902,-7001,1745188054117951455
628192,-313,100,174,2789,1691,-6595,1745188054117951455
628384,-311,40,127,2611,1716,-6390,1745188054117951455
628576,-330,7,77,2343,2079,-6443,1745188054117951455
628768,-328,-2,41,2087,2677,-6294,1745188054117951455
628960,-294,15,18,2006,3210,-6037,1745188054117951455
629152,-255,45,13,2101,3509,-6047,1745188054117951455
629344,-213,70,24,2305,3496,-6155,1745188054164451708
629536,-176,80,43,2586,3231,-6450,1745188054164451708
629728,-139,79,54,2835,2906,-6569,1745188054164451708
629920,-117,70,55,2990,2549,-6721,1745188054164451708
630112,-100,49,40,2983,2260,-6775,1745188054164451708
630304,-86,14,14,2730,1978,-6903,1745188054164451708
630496,-71,-24,-16,2303,1801,-7152,1745188054164451708
630688,-58,-45,-35,1827,1789,-7434,1745188054164451708
630880,-50,-36,-43,1473,1898,-7658,1745188054164451708
631072,-35,-8,-52,1258,2110,-7760,1745188054164451708
631264,-18,29,-58,1205,2443,-7767,1745188054164451708
631456,-1,64,-53,1328,2742,-7822,1745188054164451708
631648,24,84,-42,1519,2923,-7895,1745188054230838914
631840,47,91,-32,1682,3043,-7893,1745188054230838914
632032,55,89,-28,1795,3107,-7887,1745188054230838914
632224,42,79,-31,1833,2958,-8026,1745188054230838914
632416,17,64,-32,1803,2734,-8036,1745188054230838914
632608,0,52,-19,1720,2608,-7977,1745188054230838914
632800,-44,41,-7,1634,2520,-7962,1745188054230838914
632992,-112,35,15,1605,2293,-7904,1745188054230838914
633184,-162,27,55,1621,1976,-7889,1745188054230838914
633376,-193,13,94,1681,1608,-7969,1745188054230838914
633568,-226,-5,111,1706,1320,-7961,1745188054230838914
633760,-280,-23,107,1662,1230,-7985,1745188054230838914
633952,-333,-38,100,1580,1371,-7882,1745188054281567096
634144,-366,-44,87,1513,1735,-7714,1745188054281567096
634336,-358,-47,57,1439,2295,-7537,1745188054281567096
634528,-327,-41,13,1394,2974,-7432,1745188054281567096
634720,-282,-38,-25,1345,3573,-7412,1745188054281567096
634912,-213,-32,-48,1336,3934,-7434,1745188054281567096
635104,-143,-19,-57,1406,3933,-7579,1745188054281567096
635296,-85,-7,-60,1571,3569,-7845,1745188054281567096
635488,-41,-7,-54,1748,2940,-7963,1745188054281567096
635680,-29,-15,-28,1903,2214,-8012,1745188054281567096
635872,-32,-25,9,2030,1658,-7980,1745188054281567096
636064,-49,-37,33,2120,1336,-7885,1745188054281567096
636256,-70,-55,33,2104,1245,-7814,1745188054341893055
636448,-90,-80,5,1971,1352,-7774,1745188054341893055
636640,-115,-104,-34,1707,1553,-7589,1745188054341893055
636832,-135,-114,-61,1415,1818,-7399,1745188054341893055
637024,-142,-106,-67,1173,2109,-7253,1745188054341893055
637216,-126,-88,-55,972,2314,-7214,1745188054341893055
637408,-92,-67,-31,835,2498,-7257,1745188054341893055
637600,-73,-45,-7,754,2619,-7373,1745188054341893055
637792,-64,-21,7,710,2722,-7446,1745188054341893055
637984,-55,7,11,708,2813,-7598,1745188054341893055
638176,-39,37,9,758,2968,-7712,1745188054341893055
638368,-25,65,13,873,3079,-7858,1745188054341893055
638560,-20,82,23,1032,3053,-7959,1745188054400185960
638752,-23,90,32,1202,2945,-7992,1745188054400185960
638944,-34,96,42,1396,2813,-8010,1745188054400185960
639136,-45,101,56,1544,2625,-7993,1745188054400185960
639328,-57,114,75,1566,2346,-8030,1745188054400185960
639520,-70,119,91,1721,2347,-7967,1745188054400185960
639712,-79,114,92,1906,2473,-7803,1745188054400185960
639904,-84,98,84,1990,2570,-7629,1745188054400185960
640096,-79,84,75,2006,2587,-7462,1745188054400185960
640288,-68,75,71,1924,2590,-7313,1745188054400185960
640480,-56,72,66,1846,2529,-7121,1745188054400185960
640672,-69,55,56,1890,2271,-7075,1745188054400185960
640864,-105,52,38,1881,2171,-7082,1745188054457157575
641056,-135,52,24,1830,2395,-7071,1745188054457157575
641248,-125,60,20,1965,2582,-7113,1745188054457157575
641440,-97,51,16,2050,2745,-7172,1745188054457157575
641632,-66,44,10,1915,2784,-7221,1745188054457157575
641824,-61,39,-2,1799,2511,-7348,1745188054457157575
642016,-69,58,-13,1439,2231,-7371,1745188054457157575
642208,-72,100,-17,1158,2315,-7335,1745188054457157575
642400,-60,142,-27,961,2644,-7261,1745188054457157575
642592,-45,185,-16,1102,2804,-7311,1745188054457157575
642784,-42,217,0,1453,2497,-7201,1745188054457157575
642976,-53,212,-3,1800,2514,-7160,1745188054457157575
643168,-49,201,-4,1966,2787,-7131,1745188054517150621
643360,-43,188,0,2051,2831,-7130,1745188054517150621
643552,-36,158,6,2258,2689,-7171,1745188054517150621
643744,-17,111,12,2485,2686,-7265,1745188054517150621
643936,10,54,20,2620,2781,-7366,1745188054517150621
644128,29,0,23,2620,2818,-7489,1745188054517150621
644320,32,-52,10,2591,2860,-7605,1745188054517150621
644512,37,-109,-5,2554,2878,-7666,1745188054517150621
644704,47,-165,-8,2458,2811,-7735,1745188054517150621
644896,51,-212,2,2286,2736,-7758,1745188054517150621
645088,44,-247,15,2120,2657,-7720,1745188054517150621
645280,28,-278,26,2028,2565,-7624,1745188054517150621
646816,-221,-312,0,1577,1672,-7281,1745188055809619804
694240,-171,-250,146,929,3485,-7319,1745188055809619804
694432,-320,-273,85,983,4180,-7210,1745188055809619804
694624,-324,-212,46,994,4188,-6867,1745188055809619804
694816,-340,-180,14,990,3952,-6758,1745188055809619804
695008,-403,-178,-4,1022,3817,-6823,1745188055809619804
695200,-466,-170,-13,1107,3730,-6879,1745188055809619804
695392,-537,-171,-16,1117,3673,-6940,1745188055809619804
695584,-563,-171,-12,1462,4116,-6802,1745188055809619804
695776,-516,-205,8,2083,4753,-6667,1745188055809619804
695968,-447,-271,39,2675,4681,-6745,1745188055809619804
696160,-376,-342,54,2875,4018,-6889,1745188055809619804
696352,-319,-414,50,2575,3429,-7149,1745188055871838402
696544,-269,-466,43,1801,3276,-7388,1745188055871838402
696736,-216,-471,44,793,3352,-7606,1745188055871838402
696928,-151,-450,67,-416,3310,-7700,1745188055871838402
697120,-72,-396,135,-1151,3365,-7782,1745188055871838402
697312,-22,-297,194,-828,3557,-7957,1745188055871838402
697504,22,-196,194,-172,3793,-8010,1745188055871838402
697696,62,-132,166,380,3602,-8011,1745188055871838402
697888,44,-110,148,645,3124,-7906,1745188055871838402
698080,8,-114,150,707,3120,-7693,1745188055871838402
698272,-28,-97,155,619,3514,-7459,1745188055871838402
698464,-50,-64,139,261,3878,-7402,1745188055871838402
698656,-75,-24,107,94,4000,-7394,1745188055942024584
698848,-94,27,67,55,3971,-7471,1745188055942024584
699040,-94,79,45,92,3880,-7467,1745188055942024584
699232,-140,120,53,-346,3487,-7881,1745188055942024584
699424,15,197,141,605,4855,-7327,1745188055942024584
699616,60,222,236,429,3848,-7967,1745188055942024584
699808,78,285,234,302,3851,-7587,1745188055942024584
700000,45,330,222,-142,1951,-7812,1745188055942024584
700192,-191,375,178,476,917,-7346,1745188055942024584
700384,-315,366,195,836,2013,-7281,1745188055942024584
700576,-330,357,306,1459,4011,-7326,1745188055942024584
700768,-268,348,381,1772,5524,-7450,1745188055942024584
700960,-148,340,352,1955,6413,-7595,1745188055983894097
701152,-15,325,250,1959,6438,-7651,1745188055983894097
701344,95,302,181,1695,5721,-7556,1745188055983894097
701536,155,288,202,1385,4850,-7421,1745188055983894097
701728,137,288,270,1176,4210,-7304,1745188055983894097
701920,73,297,319,1007,3973,-7313,1745188055983894097
702112,-2,313,338,924,4104,-7355,1745188055983894097
702304,-66,331,347,958,4270,-7358,1745188055983894097
702496,-102,340,365,1048,4184,-7494,1745188055983894097
702688,-125,334,408,1106,3841,-7677,1745188055983894097
702880,-143,307,447,1276,3733,-7858,1745188055983894097
703072,-175,265,449,1309,3598,-7844,1745188055983894097
703264,-231,210,440,1197,3301,-7783,1745188056042210856
703456,-298,150,437,962,2951,-7625,1745188056042210856
703648,-356,94,443,695,2745,-7280,1745188056042210856
703840,-404,53,451,444,2626,-6816,1745188056042210856
704032,-445,21,446,380,2553,-6289,1745188056042210856
704224,-461,2,411,472,2585,-5850,1745188056042210856
704416,-460,-14,358,463,2565,-5601,1745188056042210856
704608,-460,-33,329,438,2504,-5566,1745188056042210856
704800,-463,-50,322,538,2557,-5665,1745188056042210856
704992,-461,-56,308,717,2722,-5894,1745188056042210856
705184,-448,-58,278,1038,2955,-6182,1745188056042210856
705376,-428,-60,242,1433,3148,-6411,1745188056042210856
705568,-403,-77,207,1816,3252,-6544,1745188056103534046
705760,-376,-98,174,2141,3311,-6695,1745188056103534046
705952,-350,-125,139,2328,3369,-6775,1745188056103534046
706144,-338,-161,101,2406,3378,-6759,1745188056103534046
706336,-323,-196,62,2316,3420,-6757,1745188056103534046
706528,-306,-221,21,2142,3561,-6858,1745188056103534046
706720,-290,-232,-24,1954,3736,-7050,1745188056103534046
706912,-256,-239,-73,1771,3864,-7183,1745188056103534046
707104,-214,-245,-118,1632,3877,-7173,1745188056103534046
707296,-179,-254,-151,1466,3625,-6959,1745188056103534046
707488,-150,-266,-173,1284,3237,-6752,1745188056103534046
707680,-119,-277,-189,1025,2912,-6725,1745188056103534046
707872,-95,-279,-205,736,2782,-6820,1745188056161273415
708064,-81,-265,-223,559,2860,-6989,1745188056161273415
708256,-74,-239,-240,567,3058,-7174,1745188056161273415
708448,-61,-213,-255,714,3365,-7273,1745188056161273415
708640,-42,-192,-267,936,3659,-7217,1745188056161273415
708832,-19,-183,-278,1183,3843,-7120,1745188056161273415
709024,1,-180,-294,1351,3931,-6987,1745188056161273415
709216,20,-181,-307,1431,3923,-6887,1745188056161273415
709408,36,-183,-315,1445,3902,-6853,1745188056161273415
709600,44,-185,-322,1384,3909,-6856,1745188056161273415
709792,48,-186,-329,1273,3952,-6807,1745188056161273415
709984,48,-185,-335,1126,3907,-6708,1745188056161273415
710176,46,-182,-337,980,3813,-6660,1745188056215625991
710368,47,-171,-331,815,3792,-6717,1745188056215625991
710560,47,-150,-319,744,3915,-6764,1745188056215625991
710752,44,-123,-305,771,4076,-6877,1745188056215625991
710944,42,-97,-292,852,4325,-7042,1745188056215625991
711136,45,-78,-279,973,4539,-7226,1745188056215625991
711328,56,-70,-262,1061,4671,-7382,1745188056215625991
711520,63,-71,-242,1098,4657,-7464,1745188056215625991
711712,55,-76,-225,1051,4511,-7458,1745188056215625991
711904,41,-83,-211,921,4283,-7428,1745188056215625991
712096,24,-87,-196,728,4132,-7415,1745188056215625991
712288,0,-82,-180,532,4072,-7468,1745188056215625991
712480,-20,-68,-164,411,4173,-7564,1745188056280631491
712672,-33,-48,-153,394,4363,-7642,1745188056280631491
712864,-45,-28,-141,451,4540,-7648,1745188056280631491
713056,-57,-12,-130,528,4607,-7574,1745188056280631491
713248,-64,-4,-120,588,4596,-7487,1745188056280631491
713440,-69,5,-108,580,4497,-7381,1745188056280631491
713632,-75,15,-94,560,4350,-7290,1745188056280631491
713824,-80,27,-77,527,4179,-7225,1745188056280631491
714016,-87,40,-63,515,4030,-7186,1745188056280631491
714208,-96,53,-49,504,3877,-7128,1745188056280631491
714400,-102,66,-38,491,3751,-7073,1745188056280631491
714592,-98,82,-25,483,3703,-7045,1745188056280631491
714784,-75,101,-16,451,3853,-6775,1745188056333612153
714976,-30,120,-19,307,4235,-6722,1745188056333612153
715168,3,130,-38,105,4547,-7039,1745188056333612153
715360,7,134,-64,-98,4577,-7296,1745188056333612153
715552,24,152,-76,-262,4610,-7210,1745188056333612153
715744,63,191,-78,-288,4651,-7154,1745188056333612153
715936,77,245,-80,-79,4398,-7183,1745188056333612153
716128,72,282,-76,324,3811,-7483,1745188056333612153
716320,58,286,-54,743,3176,-7855,1745188056333612153
716512,34,268,-20,974,2727,-7901,1745188056333612153
716704,22,251,8,1041,2667,-7869,1745188056333612153
716896,37,249,15,1085,2784,-8057,1745188056333612153
717088,36,241,-5,1192,2775,-8300,1745188056407694705
717280,2,219,-21,1221,2666,-8205,1745188056407694705
717472,-22,200,-9,1177,2709,-7666,1745188056407694705
717664,1,202,14,1099,3089,-7082,1745188056407694705
717856,27,214,13,1072,3528,-6909,1745188056407694705
718048,26,224,-15,1104,3825,-6765,1745188056407694705
718240,26,231,-43,1129,3986,-6624,1745188056407694705
718432,35,239,-53,1149,4155,-6537,1745188056407694705
718624,49,254,-51,1230,4231,-6425,1745188056407694705
718816,71,260,-46,1275,4254,-6394,1745188056407694705
719008,91,258,-50,1232,4261,-6378,1745188056407694705
719200,85,247,-54,1098,4138,-6467,1745188056407694705
719392,73,232,-50,922,3872,-6669,1745188056470427413
719584,68,219,-32,723,3727,-7004,1745188056470427413
719776,68,219,-3,636,3669,-7297,1745188056470427413
719968,76,224,25,675,3733,-7452,1745188056470427413
720160,82,228,42,780,3970,-7521,1745188056470427413
720352,76,225,51,887,4184,-7471,1745188056470427413
720544,65,209,56,929,4228,-7397,1745188056470427413
720736,47,184,66,912,4219,-7411,1745188056470427413
720928,27,157,80,812,4143,-7404,1745188056470427413
721120,0,138,94,727,3925,-7346,1745188056470427413
721312,-40,122,107,640,3716,-7331,1745188056470427413
721504,-68,105,123,528,3653,-7296,1745188056470427413
721696,-87,94,141,446,3730,-7310,1745188056675381687
721888,-103,90,154,423,3909,-7286,1745188056675381687
722080,-105,88,160,449,4082,-7220,1745188056675381687
722272,-102,86,160,497,4112,-7192,1745188056675381687
722464,-107,79,163,603,3906,-7189,1745188056675381687
722656,-99,65,176,663,3703,-7236,1745188056675381687
722848,-93,52,195,715,3566,-7331,1745188056675381687
723040,-99,39,214,786,3334,-7395,1745188056675381687
723232,-97,24,224,831,3294,-7374,1745188056675381687
723424,-94,15,232,871,3460,-7260,1745188056675381687
723616,-91,10,232,933,3595,-7084,1745188056675381687
723808,-95,0,220,961,3725,-7062,1745188056675381687
724000,-98,-7,211,961,3794,-6868,1745188056690881285
724192,-78,-21,206,908,3798,-6834,1745188056690881285
724384,-67,-24,200,888,3901,-6958,1745188056690881285
724576,-71,-19,194,910,3867,-6987,1745188056690881285
724768,-55,-14,190,993,3661,-7092,1745188056690881285
724960,-56,-14,191,1102,3644,-7157,1745188056690881285
725152,-57,-10,199,1170,3752,-7046,1745188056690881285
725344,-43,-14,197,1217,3778,-7026,1745188056690881285
725536,-34,-16,185,1176,3956,-6890,1745188056690881285
725728,-14,-7,178,1095,4237,-6929,1745188056690881285
725920,16,0,165,1126,4312,-7001,1745188056690881285
726112,36,7,151,1107,4345,-6744,1745188056690881285
726304,60,20,151,1110,4387,-6834,1745188056698832150
726496,60,22,154,1179,4160,-6818,1745188056698832150
726688,63,26,155,1214,4090,-6781,1745188056698832150
726880,58,35,162,1209,4107,-7045,1745188056698832150
727072,38,39,164,1258,4142,-6906,1745188056698832150
727264,35,56,161,1272,4355,-6967,1745188056698832150
727456,17,72,160,1354,4440,-7063,1745188056698832150
727648,15,77,152,1401,4477,-6815,1745188056698832150
727840,19,83,153,1407,4602,-7024,1745188056698832150
728032,-14,87,159,1461,4502,-7031,1745188056698832150
728224,-18,83,159,1454,4374,-6819,1745188056698832150
728416,-23,90,166,1458,4368,-7071,1745188056698832150
728608,-58,100,173,1531,4304,-6820,1745188056706359633
728800,-45,107,167,1537,4319,-6736,1745188056706359633
728992,-55,117,161,1618,4402,-6868,1745188056706359633
729184,-54,119,151,1679,4338,-6498,1745188056706359633
729376,-16,116,143,1683,4354,-6827,1745188056706359633
729568,-21,111,148,1731,4296,-6726,1745188056706359633
729760,4,109,147,1721,4194,-6690,1745188056706359633
729952,19,99,147,1768,4088,-7067,1745188056706359633
730144,0,95,145,1835,3940,-6611,1745188056706359633
730336,22,87,137,1857,3862,-6689,1745188056706359633
730528,5,68,125,1894,3809,-6806,1745188056706359633
730720,-30,57,108,1862,3770,-6364,1745188056706359633
730912,-20,41,95,1843,3758,-6761,1745188056742033422
731104,-43,19,83,1821,3733,-6513,1745188056742033422
731296,-51,12,71,1775,3744,-6431,1745188056742033422
731488,-53,-5,63,1836,3631,-6731,1745188056742033422
731680,-59,-26,49,1805,3542,-6309,1745188056742033422
731872,-49,-38,41,1751,3548,-6521,1745188056742033422
732064,-54,-56,34,1782,3553,-6555,1745188056742033422
732256,-60,-70,16,1752,3618,-6455,1745188056742033422
732448,-64,-81,5,1805,3721,-6887,1745188056742033422
732640,-75,-99,-11,1883,3716,-6640,1745188056742033422
732832,-67,-121,-30,1895,3745,-6751,1745188056742033422
733024,-75,-145,-39,1952,3717,-6840,1745188056742033422
733216,-73,-173,-52,1873,3697,-6563,1745188056803802285
733408,-65,-201,-67,1797,3740,-6790,1745188056803802285
733600,-87,-220,-77,1758,3717,-6630,1745188056803802285
733792,-80,-241,-92,1665,3710,-6553,1745188056803802285
733984,-83,-258,-105,1650,3715,-6732,1745188056803802285
734176,-99,-267,-118,1662,3702,-6509,1745188056803802285
734368,-86,-284,-133,1648,3722,-6762,1745188056803802285
734560,-100,-301,-144,1687,3712,-6716,1745188056803802285
734752,-106,-314,-155,1701,3755,-6445,1745188056803802285
734944,-99,-334,-167,1708,3836,-6535,1745188056803802285
735136,-127,-355,-182,1692,3835,-6323,1745188056803802285
735328,-146,-376,-192,1612,3795,-6467,1745188056803802285
735520,-163,-390,-193,1586,3728,-6565,1745188056863441844
735712,-168,-389,-189,1532,3726,-6358,1745188056863441844
735904,-155,-378,-185,1544,3884,-6506,1745188056863441844
736096,-155,-367,-185,1571,4016,-6375,1745188056863441844
736288,-148,-360,-188,1561,4144,-6452,1745188056863441844
736480,-141,-354,-187,1581,4324,-6631,1745188056863441844
736672,-133,-341,-181,1569,4506,-6637,1745188056863441844
736864,-126,-325,-174,1529,4663,-6886,1745188056863441844
737056,-126,-308,-166,1528,4735,-7002,1745188056863441844
737248,-125,-291,-155,1431,4760,-6906,1745188056863441844
737440,-119,-269,-138,1310,4767,-6824,1745188056863441844
737632,-147,-236,-107,1162,4550,-6379,1745188056863441844
737824,-298,-143,-18,1313,3912,-5884,1745188056921026526
738016,-473,-105,96,1797,3277,-6547,1745188056921026526
738208,-391,-174,91,1571,3586,-6536,1745188056921026526
738400,-377,-174,67,1257,4287,-7010,1745188056921026526
738592,-392,-105,55,1102,4615,-7223,1745188056921026526
738784,-354,-79,43,939,4677,-7491,1745188056921026526
738976,-261,-73,32,721,4772,-7676,1745188056921026526
739168,-171,-30,31,471,4916,-7453,1745188056921026526
739360,-154,32,54,414,4817,-7717,1745188056921026526
739552,-106,59,65,310,4617,-7583,1745188056921026526
739744,-72,74,75,171,4456,-7717,1745188056921026526
739936,-68,106,86,76,4251,-7958,1745188056921026526
740128,-55,130,88,-25,4152,-7922,1745188056973992032
740320,-40,159,86,-93,4145,-8199,1745188056973992032
740512,-23,176,78,-80,4183,-8370,1745188056973992032
740704,2,192,56,-117,4260,-8383,1745188056973992032
740896,23,210,40,-136,4316,-8374,1745188056973992032
741088,59,229,26,-174,4303,-8067,1745188056973992032
741280,77,256,24,-167,4212,-7790,1745188056973992032
741472,88,282,31,-116,4051,-7467,1745188056973992032
741664,97,307,36,4,3934,-7239,1745188056973992032
741856,92,329,37,199,3801,-7104,1745188056973992032
742048,85,345,36,435,3683,-6966,1745188056973992032
742240,76,352,37,642,3603,-6875,1745188056973992032
742432,69,354,37,857,3592,-6793,1745188057036457711
742624,65,354,34,1010,3594,-6755,1745188057036457711
742816,63,351,27,1169,3610,-6784,1745188057036457711
743008,59,348,15,1342,3595,-6805,1745188057036457711
743200,54,343,2,1526,3590,-6785,1745188057036457711
743392,62,336,-11,1688,3608,-6547,1745188057036457711
743584,71,328,-21,1808,3625,-6410,1745188057036457711
743776,69,311,-31,1910,3648,-6273,1745188057036457711
743968,61,287,-42,1931,3599,-6165,1745188057036457711
744160,59,258,-55,1859,3641,-6136,1745188057036457711
744352,69,236,-66,1725,3841,-6175,1745188057036457711
744544,79,220,-78,1590,4086,-6248,1745188057036457711
744736,96,209,-92,1471,4315,-6394,1745188057103028822
744928,120,202,-104,1421,4483,-6551,1745188057103028822
745120,145,197,-109,1429,4494,-6648,1745188057103028822
745312,161,190,-106,1506,4356,-6660,1745188057103028822
745504,166,179,-99,1581,4163,-6644,1745188057103028822
745696,159,161,-91,1616,4012,-6638,1745188057103028822
745888,144,140,-86,1584,3968,-6589,1745188057103028822
746080,138,125,-88,1495,4060,-6457,1745188057103028822
746272,164,119,-86,1320,4217,-6384,1745188057103028822
746464,236,115,-71,1164,4420,-6606,1745188057103028822
746656,295,118,-54,1141,4621,-6783,1745188057103028822
746848,314,131,-38,1133,4742,-6843,1745188057103028822
747040,323,149,-24,1225,4751,-6869,1745188057151929365
747232,319,163,-11,1402,4704,-7045,1745188057151929365
747424,303,169,4,1563,4713,-7170,1745188057151929365
747616,273,169,22,1674,4777,-7291,1745188057151929365
747808,235,168,43,1755,4876,-7394,1745188057151929365
748000,201,165,60,1783,4956,-7402,1745188057151929365
748192,176,163,74,1749,5049,-7331,1745188057151929365
748384,164,165,88,1627,5105,-7286,1745188057151929365
748576,154,168,103,1470,5112,-7472,1745188057151929365
748768,138,169,118,1300,5122,-7680,1745188057151929365
748960,127,182,135,1120,5163,-7794,1745188057151929365
749152,122,207,154,1009,5174,-7916,1745188057151929365
749344,111,235,171,960,5055,-8040,1745188057213396408
749536,102,261,187,960,4881,-8013,1745188057213396408
749728,104,288,205,917,4751,-7898,1745188057213396408
749920,109,321,219,858,4698,-7784,1745188057213396408
750112,116,362,224,831,4687,-7684,1745188057213396408
750304,130,407,219,818,4703,-7645,1745188057213396408
750496,162,454,208,837,4696,-7648,1745188057213396408
750688,199,508,198,916,4581,-7644,1745188057213396408
750880,240,562,194,1028,4327,-7744,1745188057213396408
751072,294,608,191,1217,4038,-7846,1745188057213396408
751264,355,651,186,1425,3857,-8015,1745188057213396408
751456,436,690,173,1516,3892,-8132,1745188057213396408
751648,508,733,161,1570,3977,-8419,1745188057268621059
751840,567,770,152,1618,4002,-8758,1745188057268621059
752032,623,812,147,1645,4106,-9205,1745188057268621059
752224,669,861,147,1676,4280,-9729,1745188057268621059
752416,722,917,145,1749,4658,-10313,1745188057268621059
752608,783,977,137,1854,5203,-10788,1745188057268621059
752800,825,1039,121,1987,5675,-11130,1745188057268621059
752992,854,1096,86,2188,5868,-11505,1745188057268621059
753184,852,1134,33,2453,5559,-12170,1745188057268621059
753376,807,1132,-33,2872,4802,-12667,1745188057268621059
753568,708,1106,-94,3412,3696,-12133,1745188057268621059
753760,565,1069,-124,4010,2532,-12061,1745188057268621059
753952,376,1000,-117,4701,1534,-12980,1745188057329413629
754144,267,917,-98,5218,1006,-12775,1745188057329413629
754336,249,830,-108,5508,1086,-12246,1745188057329413629
754528,327,767,-165,5682,1759,-11935,1745188057329413629
754720,488,730,-261,5794,2763,-11524,1745188057329413629
754912,676,688,-386,5905,3711,-11249,1745188057329413629
755104,848,656,-517,6062,4281,-11169,1745188057329413629
755296,933,622,-613,6392,4333,-11234,1745188057329413629
755488,901,558,-649,6779,3956,-11165,1745188057329413629
755680,802,498,-631,7166,3506,-10950,1745188057329413629
755872,680,447,-584,7550,3392,-10690,1745188057329413629
756064,563,387,-548,7923,3803,-10618,1745188057329413629
756256,459,313,-555,8293,4434,-10705,1745188057403976750
756448,357,216,-590,8617,4933,-10916,1745188057403976750
756640,243,97,-625,8986,5030,-11205,1745188057403976750
756832,144,-39,-639,9307,4791,-11443,1745188057403976750
757024,97,-174,-622,9540,4457,-11667,1745188057403976750
757216,80,-315,-587,9677,4192,-11983,1745188057403976750
757408,67,-437,-558,9732,4010,-12111,1745188057403976750
757600,50,-547,-545,9690,3910,-12094,1745188057403976750
757792,37,-650,-548,9569,3833,-12018,1745188057403976750
757984,22,-749,-555,9375,3741,-11827,1745188057403976750
758176,-1,-841,-553,9160,3556,-11504,1745188057403976750
758368,-37,-917,-539,8910,3338,-11235,1745188057403976750
758560,-94,-985,-520,8699,3073,-11087,1745188057441442033
758752,-188,-1051,-485,8507,2695,-10815,1745188057441442033
758944,-296,-1101,-427,8356,2194,-10543,1745188057441442033
759136,-389,-1160,-347,8236,1618,-10561,1745188057441442033
759328,-500,-1251,-257,8172,1011,-10712,1745188057441442033
759520,-656,-1374,-162,8113,319,-10996,1745188057441442033
759712,-848,-1493,-63,8057,-368,-11202,1745188057441442033
759904,-1072,-1617,35,8009,-1053,-11318,1745188057441442033
760096,-1301,-1742,126,8002,-1610,-11280,1745188057441442033
760288,-1518,-1864,211,7979,-1980,-11085,1745188057441442033
760480,-1712,-1979,283,7953,-2188,-10626,1745188057441442033
760672,-1883,-2092,340,7960,-2202,-10175,1745188057441442033
760864,-2021,-2211,385,7991,-2144,-9779,1745188057515258858
761056,-2128,-2333,421,8016,-1971,-9378,1745188057515258858
761248,-2215,-2460,456,8078,-1805,-9008,1745188057515258858
761440,-2282,-2591,488,8120,-1599,-8641,1745188057515258858
761632,-2339,-2732,524,8163,-1339,-8435,1745188057515258858
761824,-2400,-2887,572,8172,-1153,-8395,1745188057515258858
762016,-2454,-3056,637,8155,-983,-8381,1745188057515258858
762208,-2490,-3245,714,8091,-802,-8168,1745188057515258858
762400,-2497,-3437,789,7983,-511,-7673,1745188057515258858
762592,-2476,-3626,859,7801,-122,-7275,1745188057515258858
762784,-2431,-3818,916,7557,275,-6836,1745188057515258858
762976,-2368,-4003,956,7236,648,-6395,1745188057515258858
763168,-2295,-4174,996,6939,948,-5964,1745188057565750428
763360,-2216,-4326,1041,6627,1131,-5321,1745188057565750428
763552,-2137,-4458,1096,6379,1175,-4768,1745188057565750428
763744,-2060,-4580,1160,6140,1167,-4243,1745188057565750428
763936,-2000,-4690,1226,5946,1152,-3783,1745188057565750428
764128,-1964,-4794,1296,5793,1097,-3541,1745188057565750428
764320,-1957,-4893,1356,5650,1070,-3217,1745188057565750428
764512,-1972,-4982,1404,5545,1140,-2879,1745188057565750428
764704,-2000,-5064,1443,5421,1319,-2488,1745188057565750428
764896,-2031,-5145,1472,5330,1606,-2192,1745188057565750428
765088,-2061,-5229,1492,5218,1985,-1840,1745188057565750428
765280,-2078,-5317,1502,5085,2410,-1550,1745188057565750428
765472,-2084,-5406,1505,4929,2852,-1326,1745188057619326293
765664,-2076,-5489,1503,4766,3327,-1076,1745188057619326293
765856,-2045,-5563,1509,4605,3791,-806,1745188057619326293
766048,-1983,-5626,1527,4402,4186,-548,1745188057619326293
766240,-1889,-5679,1560,4187,4480,-189,1745188057619326293
766432,-1753,-5701,1603,3905,4725,130,1745188057619326293
766624,-1588,-5688,1659,3628,4926,216,1745188057619326293
766816,-1437,-5651,1725,3404,5008,180,1745188057619326293
767008,-1317,-5600,1796,3280,4981,264,1745188057619326293
767200,-1213,-5536,1866,3265,4892,301,1745188057619326293
767392,-1123,-5472,1932,3381,4894,300,1745188057619326293
767584,-1040,-5410,1990,3595,4979,310,1745188057619326293
767776,-958,-5347,2038,3907,5140,400,1745188057693466605
767968,-872,-5293,2080,4280,5376,568,1745188057693466605
768160,-787,-5248,2114,4718,5617,786,1745188057693466605
768352,-708,-5214,2140,5222,5777,949,1745188057693466605
768544,-634,-5199,2164,5717,5895,1212,1745188057693466605
768736,-559,-5197,2191,6181,5998,1592,1745188057693466605
768928,-499,-5197,2218,6629,6145,1864,1745188057693466605
769120,-463,-5201,2249,6960,6327,2166,1745188057693466605
769312,-440,-5196,2286,7259,6607,2396,1745188057693466605
769504,-434,-5190,2321,7532,6854,2479,1745188057693466605
769696,-460,-5193,2340,7803,7030,2484,1745188057693466605
769888,-509,-5202,2336,7981,7172,2461,1745188057693466605
770080,-557,-5207,2316,8128,7349,2440,1745188057740929557
770272,-598,-5206,2283,8220,7519,2254,1745188057740929557
770464,-626,-5204,2236,8249,7561,2001,1745188057740929557
770656,-650,-5193,2183,8120,7359,1897,1745188057740929557
770848,-668,-5176,2122,7863,6979,1948,1745188057740929557
771040,-695,-5150,2034,7507,6602,2195,1745188057740929557
771232,-739,-5106,1927,7146,6400,2564,1745188057740929557
771424,-809,-5032,1811,6828,6304,2990,1745188057740929557
771616,-895,-4937,1697,6590,6313,3603,1745188057740929557
771808,-961,-4819,1592,6427,6443,4270,1745188057740929557
772000,-995,-4693,1502,6265,6656,4982,1745188057740929557
772192,-1005,-4580,1428,6089,6906,5542,1745188057740929557
772384,-1022,-4489,1369,5854,7198,5872,1745188057817800157
772576,-1060,-4420,1330,5540,7527,6214,1745188057817800157
772768,-1121,-4351,1318,5139,7871,6581,1745188057817800157
772960,-1182,-4276,1325,4678,8273,6878,1745188057817800157
773152,-1232,-4184,1332,4128,8769,6989,1745188057817800157
773344,-1289,-4081,1322,3512,9352,6963,1745188057817800157
773536,-1356,-3978,1287,2767,9940,6839,1745188057817800157
773728,-1441,-3882,1224,1969,10476,6760,1745188057817800157
773920,-1537,-3779,1145,1082,10825,6824,1745188057817800157
774112,-1621,-3643,1051,188,10962,7013,1745188057817800157
774304,-1671,-3526,938,-663,10943,7220,1745188057817800157
774496,-1677,-3371,801,-1438,10788,7276,1745188057817800157
774688,-1642,-3159,670,-2020,10477,7080,1745188057878104971
774880,-1552,-2929,558,-2361,10101,6752,1745188057878104971
775072,-1414,-2700,451,-2427,9686,6395,1745188057878104971
775264,-1237,-2491,344,-2358,9218,6014,1745188057878104971
775456,-1037,-2308,232,-2241,8794,5640,1745188057878104971
775648,-832,-2143,132,-2081,8544,5290,1745188057878104971
775840,-623,-1991,52,-1887,8475,4944,1745188057878104971
776032,-418,-1860,-11,-1771,8539,4731,1745188057878104971
776224,-221,-1755,-59,-1730,8664,4745,1745188057878104971
776416,-24,-1674,-96,-1779,8774,4936,1745188057878104971
776608,169,-1597,-126,-1819,8852,5217,1745188057878104971
776800,339,-1519,-148,-1883,8844,5521,1745188057878104971
776992,471,-1447,-170,-1927,8711,5754,1745188057920531823
777184,555,-1375,-190,-1885,8508,6005,1745188057920531823
777376,591,-1304,-195,-1734,8257,6223,1745188057920531823
777568,589,-1240,-194,-1477,8044,6358,1745188057920531823
777760,560,-1185,-182,-1217,7923,6422,1745188057920531823
777952,515,-1145,-158,-1027,7885,6461,1745188057920531823
778144,466,-1117,-129,-879,7885,6422,1745188057920531823
778336,422,-1095,-108,-788,7858,6277,1745188057920531823
778528,392,-1079,-96,-751,7822,6087,1745188057920531823
778720,380,-1068,-88,-796,7739,5896,1745188057920531823
778912,382,-1059,-81,-901,7595,5659,1745188057920531823
779104,387,-1047,-79,-1034,7402,5429,1745188057920531823
779296,386,-1025,-80,-1141,7184,5303,1745188057974593308
779488,376,-1000,-82,-1237,6963,5201,1745188057974593308
779680,369,-974,-81,-1294,6858,5116,1745188057974593308
779872,363,-948,-67,-1328,6874,5026,1745188057974593308
780064,357,-921,-49,-1373,6977,4902,1745188057974593308
780256,351,-887,-31,-1444,7073,4770,1745188057974593308
780448,344,-849,-17,-1521,7140,4663,1745188057974593308
780640,339,-809,-7,-1563,7214,4544,1745188057974593308
780832,333,-771,6,-1590,7255,4464,1745188057974593308
781024,327,-734,24,-1617,7312,4478,1745188057974593308
781216,320,-693,43,-1601,7442,4455,1745188057974593308
781408,308,-651,61,-1622,7561,4398,1745188057974593308
781600,296,-610,79,-1651,7712,4310,1745188058035964258
781792,286,-569,94,-1662,7824,4187,1745188058035964258
781984,279,-529,101,-1664,7914,4039,1745188058035964258
782176,280,-495,105,-1696,7944,3836,1745188058035964258
782368,282,-462,113,-1733,7951,3646,1745188058035964258
782560,283,-431,125,-1729,7979,3499,1745188058035964258
782752,286,-403,134,-1715,7957,3351,1745188058035964258
782944,290,-373,135,-1701,7974,3222,1745188058035964258
783136,294,-338,133,-1698,7979,3085,1745188058035964258
783328,296,-297,136,-1701,8030,2976,1745188058035964258
783520,302,-271,140,-1638,8111,2879,1745188058035964258
783712,318,-252,141,-1588,8214,2780,1745188058035964258
783904,342,-241,138,-1571,8344,2705,1745188058092122860
784096,371,-230,137,-1603,8417,2651,1745188058092122860
784288,404,-221,136,-1663,8419,2616,1745188058092122860
784480,438,-215,134,-1723,8387,2605,1745188058092122860
784672,467,-211,126,-1756,8334,2590,1745188058092122860
784864,484,-206,116,-1812,8260,2566,1745188058092122860
785056,492,-200,109,-1830,8225,2540,1745188058092122860
785248,497,-199,110,-1872,8208,2529,1745188058092122860
785440,500,-201,116,-1905,8209,2589,1745188058092122860
785632,503,-202,125,-1936,8229,2675,1745188058092122860
785824,507,-203,131,-1959,8220,2764,1745188058092122860
786016,512,-200,134,-1970,8197,2847,1745188058092122860
786208,521,-196,136,-1946,8143,2930,1745188058152741472
786400,530,-190,139,-1856,8058,2980,1745188058152741472
786592,535,-181,142,-1785,7993,2994,1745188058152741472
786784,528,-173,146,-1673,7985,2978,1745188058152741472
786976,510,-166,152,-1569,7989,2903,1745188058152741472
787168,483,-164,159,-1471,8038,2790,1745188058152741472
787360,450,-164,164,-1395,8130,2718,1745188058152741472
787552,416,-168,170,-1359,8221,2681,1745188058152741472
787744,385,-174,177,-1352,8297,2677,1745188058152741472
787936,360,-184,182,-1384,8330,2682,1745188058152741472
788128,342,-191,184,-1474,8359,2714,1745188058152741472
788320,325,-193,187,-1608,8345,2755,1745188058152741472
788512,301,-186,193,-1726,8322,2767,1745188058227037148
788704,264,-171,196,-1823,8281,2761,1745188058227037148
788896,215,-148,197,-1852,8306,2760,1745188058227037148
789088,159,-121,199,-1815,8389,2774,1745188058227037148
789280,107,-93,201,-1757,8513,2779,1745188058227037148
789472,59,-67,204,-1697,8683,2768,1745188058227037148
789664,21,-46,203,-1682,8863,2799,1745188058227037148
789856,-3,-28,199,-1720,9031,2820,1745188058227037148
790048,-21,-12,191,-1810,9118,2770,1745188058227037148
790240,-27,10,177,-1907,9165,2741,1745188058227037148
790432,-24,38,160,-2030,9161,2692,1745188058227037148
790624,-11,73,144,-2154,9135,2663,1745188058227037148
790816,9,110,127,-2212,9077,2603,1745188058274380101
791008,33,151,110,-2251,9004,2518,1745188058274380101
791200,56,195,90,-2247,8917,2483,1745188058274380101
791392,84,245,70,-2188,8813,2424,1745188058274380101
791584,115,297,51,-2099,8738,2347,1745188058274380101
791776,142,346,32,-1980,8672,2242,1745188058274380101
791968,163,386,8,-1881,8605,2163,1745188058274380101
792160,184,417,-14,-1834,8564,2106,1745188058274380101
792352,207,445,-32,-1794,8542,2067,1745188058274380101
792544,231,472,-46,-1749,8591,2016,1745188058274380101
792736,249,501,-61,-1719,8635,1986,1745188058274380101
792928,262,528,-76,-1691,8679,1930,1745188058274380101
793120,272,554,-91,-1651,8699,1861,1745188058328515179
793312,278,576,-103,-1650,8722,1751,1745188058328515179
793504,279,593,-110,-1669,8713,1673,1745188058328515179
793696,273,608,-114,-1680,8658,1619,1745188058328515179
793888,266,622,-117,-1696,8608,1603,1745188058328515179
794080,261,640,-119,-1694,8611,1588,1745188058328515179
794272,257,659,-123,-1689,8609,1524,1745188058328515179
794464,248,676,-125,-1672,8651,1422,1745188058328515179
794656,234,690,-128,-1643,8658,1320,1745188058328515179
794848,224,700,-130,-1628,8660,1242,1745188058328515179
795040,219,708,-131,-1585,8632,1192,1745188058328515179
795232,223,716,-130,-1550,8584,1159,1745188058328515179
795424,231,725,-130,-1499,8513,1121,1745188058386150434
795616,235,736,-129,-1462,8453,1057,1745188058386150434
795808,232,746,-128,-1431,8405,976,1745188058386150434
796000,223,756,-129,-1388,8356,900,1745188058386150434
796192,211,764,-135,-1336,8307,836,1745188058386150434
796384,202,768,-142,-1324,8263,807,1745188058386150434
796576,195,773,-148,-1349,8202,772,1745188058386150434
796768,191,777,-149,-1378,8166,680,1745188058386150434
796960,181,785,-150,-1398,8154,542,1745188058386150434
797152,163,795,-154,-1410,8146,400,1745188058386150434
797344,141,805,-159,-1415,8141,295,1745188058386150434
797536,123,813,-163,-1426,8122,204,1745188058386150434
797728,111,820,-165,-1418,8094,146,1745188058440790977
797920,102,828,-165,-1408,8060,57,1745188058440790977
798112,85,836,-164,-1383,8004,-79,1745188058440790977
798304,58,842,-165,-1349,7962,-140,1745188058440790977
798496,24,845,-166,-1303,7886,-154,1745188058440790977
798688,-9,844,-164,-1273,7787,-126,1745188058440790977
798880,-40,843,-161,-1234,7739,-92,1745188058440790977
799072,-64,844,-157,-1215,7736,-84,1745188058440790977
799264,-88,848,-153,-1174,7794,-154,1745188058440790977
799456,-115,853,-152,-1117,7890,-252,1745188058440790977
799648,-142,858,-156,-1072,8017,-409,1745188058440790977
799840,-166,861,-163,-1023,8137,-594,1745188058440790977
800032,-186,860,-169,-981,8186,-793,1745188058502928951
800224,-210,852,-171,-960,8226,-978,1745188058502928951
800416,-247,839,-171,-913,8166,-1156,1745188058502928951
800608,-298,820,-174,-912,8093,-1314,1745188058502928951
800800,-363,806,-176,-912,7996,-1427,1745188058502928951
800992,-440,792,-183,-922,7884,-1427,1745188058502928951
801184,-519,781,-191,-920,7782,-1370,1745188058502928951
801376,-589,778,-196,-901,7793,-1343,1745188058502928951
801568,-648,782,-202,-836,7868,-1420,1745188058502928951
801760,-702,792,-210,-737,7965,-1493,1745188058502928951
801952,-748,793,-222,-666,8038,-1567,1745188058502928951
802144,-780,772,-236,-622,8049,-1682,1745188058502928951
802336,-801,762,-249,-625,7927,-1838,1745188058561396906
802528,-799,738,-245,-643,7680,-1918,1745188058561396906
802720,-765,696,-231,-711,7401,-2053,1745188058561396906
802912,-718,660,-211,-816,7161,-2173,1745188058561396906
803104,-675,635,-189,-976,6998,-2251,1745188058561396906
803296,-644,597,-166,-1166,6892,-2335,1745188058561396906
803488,-619,553,-151,-1364,6853,-2520,1745188058561396906
803680,-588,520,-141,-1570,6928,-2581,1745188058561396906
803872,-553,497,-129,-1717,7045,-2601,1745188058561396906
804064,-501,480,-116,-1771,7239,-2589,1745188058561396906
804256,-434,466,-104,-1709,7485,-2533,1745188058561396906
804448,-371,453,-94,-1565,7725,-2430,1745188058561396906
804640,-314,434,-86,-1323,7887,-2327,1745188058615275320
804832,-256,407,-77,-1093,7998,-2183,1745188058615275320
805024,-193,371,-56,-872,8053,-1980,1745188058615275320
