timestamp,gyr_x,gyr_y,gyr_z,acc_x,acc_y,acc_z,pkt_time_ns
180640,93,-121,-2,1581,2535,-7060,1745188668126204156
180832,-42,-112,-25,1075,1946,-7934,1745188668126204156
181024,-81,-76,15,1440,2593,-7582,1745188668126204156
181216,-108,-106,20,1522,2761,-7664,1745188668126204156
181408,-93,-100,1,1525,2728,-7576,1745188668126204156
181600,-81,-131,6,1477,2781,-7587,1745188668126204156
181792,-79,-141,11,1369,2809,-7631,1745188668126204156
181984,-61,-139,1,1244,2723,-7599,1745188668126204156
182176,-51,-147,1,1287,2773,-7585,1745188668126204156
182368,-32,-152,9,1417,2994,-7555,1745188668126204156
182560,-12,-165,7,1483,2962,-7598,1745188668126204156
182752,-12,-180,-3,1336,2657,-7603,1745188668126204156
182944,-12,-169,-5,1045,2362,-7665,1745188668175435008
183136,-3,-140,-3,732,2397,-7770,1745188668175435008
183328,8,-87,0,588,2703,-7835,1745188668175435008
183520,22,-22,-1,656,2874,-7838,1745188668175435008
183712,38,25,-4,885,2965,-7833,1745188668175435008
183904,58,69,-9,895,3015,-7835,1745188668175435008
184096,75,109,-11,834,2942,-7814,1745188668175435008
184288,85,134,-4,1035,2773,-7753,1745188668175435008
184480,95,158,-5,1185,2661,-7778,1745188668175435008
184672,103,170,-12,1256,2597,-7742,1745188668175435008
184864,103,170,-14,1368,2270,-7646,1745188668175435008
185056,98,160,-9,1433,2009,-7580,1745188668175435008
185248,81,146,-4,1417,1936,-7572,1745188668235422741
185440,54,125,-1,1444,1803,-7579,1745188668235422741
185632,22,100,4,1584,1767,-7577,1745188668235422741
185824,-12,63,7,1703,1852,-7574,1745188668235422741
186016,-36,32,11,1620,2172,-7674,1745188668235422741
186208,-50,14,5,1405,2589,-7695,1745188668235422741
186400,-57,6,-3,1380,2761,-7655,1745188668235422741
186592,-54,-1,-11,1498,2730,-7610,1745188668235422741
186784,-48,-17,-18,1620,2665,-7530,1745188668235422741
186976,-88,14,-35,935,2058,-8143,1745188668235422741
187168,14,-35,3,2255,3455,-7034,1745188668235422741
187360,-61,-89,-25,1710,2706,-7857,1745188668235422741
187552,-20,-83,-67,949,2451,-7524,1745188668292600917
187744,-17,-62,-37,743,2520,-7636,1745188668292600917
187936,-13,-21,-20,694,2627,-7623,1745188668292600917
188128,-11,34,-25,725,2599,-7607,1745188668292600917
188320,-6,74,-18,1045,2592,-7575,1745188668292600917
188512,1,78,-5,1375,2577,-7519,1745188668292600917
188704,5,84,-7,1223,2542,-7510,1745188668292600917
188896,5,95,-11,947,2433,-7492,1745188668292600917
189088,8,114,1,966,2373,-7530,1745188668292600917
189280,9,132,14,1097,2414,-7553,1745188668292600917
189472,6,145,19,1273,2434,-7565,1745188668292600917
189664,4,143,20,1378,2443,-7520,1745188668292600917
189856,5,127,25,1592,2524,-7596,1745188668352181883
190048,5,81,26,2017,2537,-7658,1745188668352181883
190240,0,31,10,1967,2518,-7611,1745188668352181883
190432,-3,-15,-6,1599,2413,-7612,1745188668352181883
190624,-7,-34,-8,1199,2353,-7624,1745188668352181883
190816,-9,-25,-7,1006,2395,-7633,1745188668352181883
191008,-11,-3,-1,1040,2515,-7609,1745188668352181883
191200,-9,16,5,1236,2605,-7609,1745188668352181883
191392,-5,22,5,1405,2625,-7624,1745188668352181883
191584,1,16,1,1443,2595,-7610,1745188668352181883
191776,5,7,-1,1407,2534,-7605,1745188668352181883
191968,7,2,-3,1313,2503,-7604,1745188668352181883
192160,9,4,-3,1248,2498,-7619,1745188668420488551
192352,11,11,0,1254,2525,-7626,1745188668420488551
192544,12,18,2,1286,2526,-7638,1745188668420488551
192736,11,21,2,1360,2510,-7650,1745188668420488551
192928,11,18,0,1417,2490,-7631,1745188668420488551
193120,9,14,-1,1418,2469,-7626,1745188668420488551
193312,8,8,-3,1380,2466,-7631,1745188668420488551
193504,6,4,-4,1342,2477,-7623,1745188668420488551
193696,4,3,-5,1330,2472,-7634,1745188668420488551
193888,3,4,-3,1316,2502,-7650,1745188668420488551
194080,1,5,-3,1340,2514,-7616,1745188668420488551
194272,0,5,-4,1359,2493,-7632,1745188668420488551
194464,-2,1,-4,1357,2458,-7622,1745188668471265170
194656,-5,0,-4,1339,2452,-7603,1745188668471265170
194848,-5,-1,-4,1315,2456,-7587,1745188668471265170
195040,-4,-2,-4,1304,2495,-7601,1745188668471265170
195232,-5,1,-4,1298,2534,-7627,1745188668471265170
195424,-5,2,-5,1305,2516,-7642,1745188668471265170
195616,-5,1,-6,1318,2485,-7642,1745188668471265170
195808,-8,0,-6,1332,2468,-7611,1745188668471265170
196000,-11,-2,-6,1352,2445,-7603,1745188668471265170
196192,-9,-4,-6,1348,2525,-7595,1745188668471265170
196384,-9,-6,-7,1332,2535,-7648,1745188668471265170
196576,-12,-5,-9,1310,2491,-7691,1745188668471265170
196768,-18,-6,-10,1330,2441,-7661,1745188668531938418
196960,-21,-5,-11,1332,2428,-7627,1745188668531938418
197152,-23,-6,-8,1358,2436,-7633,1745188668531938418
197344,-24,-7,-8,1340,2523,-7598,1745188668531938418
197536,-19,-6,-11,1313,2561,-7630,1745188668531938418
197728,-20,-4,-8,1328,2539,-7707,1745188668531938418
197920,-20,-5,-5,1364,2502,-7631,1745188668531938418
198112,-19,-7,-7,1369,2483,-7599,1745188668531938418
198304,-16,-11,-7,1347,2507,-7592,1745188668531938418
198496,-13,-11,-8,1306,2527,-7638,1745188668531938418
198688,-10,-6,-11,1270,2558,-7626,1745188668531938418
198880,-10,-1,-13,1304,2509,-7644,1745188668531938418
199072,-5,-1,-12,1350,2532,-7578,1745188668591591988
199264,-4,-2,-15,1352,2514,-7582,1745188668591591988
199456,0,-4,-18,1342,2507,-7596,1745188668591591988
199648,1,-5,-20,1317,2547,-7638,1745188668591591988
199840,4,-7,-24,1331,2582,-7695,1745188668591591988
200032,10,-7,-26,1326,2621,-7638,1745188668591591988
200224,20,-8,-31,1290,2647,-7586,1745188668591591988
200416,28,-5,-35,1241,2621,-7651,1745188668591591988
200608,33,0,-34,1225,2556,-7642,1745188668591591988
200800,36,6,-38,1255,2517,-7632,1745188668591591988
200992,45,6,-40,1332,2612,-7580,1745188668591591988
201184,73,4,-43,1378,2900,-7416,1745188668591591988
201376,119,1,-51,1377,3146,-7460,1745188668643117038
201568,149,-1,-59,1357,3055,-7629,1745188668643117038
201760,174,-3,-67,1319,2818,-7665,1745188668643117038
201952,188,1,-77,1265,2554,-7685,1745188668643117038
202144,194,5,-85,1291,2378,-7737,1745188668643117038
202336,196,6,-86,1362,2273,-7622,1745188668643117038
202528,189,6,-89,1407,2273,-7564,1745188668643117038
202720,176,2,-95,1440,2235,-7659,1745188668643117038
202912,161,-6,-103,1446,2218,-7660,1745188668643117038
203104,149,-10,-116,1411,2257,-7610,1745188668643117038
203296,144,-4,-167,1440,2386,-7701,1745188668643117038
203488,129,82,-427,1928,2498,-7837,1745188668643117038
203680,121,340,-813,1939,2780,-7446,1745188668701988844
203872,134,40,-556,1638,2105,-7534,1745188668701988844
204064,123,-65,-186,875,1765,-7531,1745188668701988844
204256,112,-76,-145,448,1939,-7770,1745188668701988844
204448,103,19,-225,796,2378,-7977,1745188668701988844
204640,99,82,-275,1446,2652,-7786,1745188668701988844
204832,104,34,-257,1837,2543,-7559,1745188668701988844
205024,118,-18,-240,1764,2512,-7594,1745188668701988844
205216,135,-48,-248,1446,2654,-7632,1745188668701988844
205408,158,-48,-263,1198,2841,-7785,1745188668701988844
205600,191,-45,-268,1137,2906,-7768,1745188668701988844
205792,229,-30,-276,1155,2920,-7717,1745188668701988844
205984,254,-3,-291,1205,2729,-7760,1745188668766110550
206176,264,13,-290,1255,2411,-7727,1745188668766110550
206368,270,34,-295,1237,2189,-7760,1745188668766110550
206560,250,57,-290,1217,1942,-7792,1745188668766110550
206752,228,58,-278,1079,1872,-7874,1745188668766110550
206944,203,51,-272,912,1879,-7902,1745188668766110550
207136,187,123,-251,996,1920,-8001,1745188668766110550
207328,137,113,-257,859,1844,-7772,1745188668766110550
207520,126,123,-294,879,1868,-7703,1745188668766110550
207712,117,145,-300,1188,2094,-7641,1745188668766110550
207904,105,119,-302,1464,2291,-7579,1745188668766110550
208096,90,90,-303,1471,2294,-7624,1745188668766110550
208288,71,58,-297,1280,2148,-7658,1745188668821214786
208480,64,44,-275,1092,2101,-7744,1745188668821214786
208672,64,63,-252,1108,2264,-7766,1745188668821214786
208864,57,59,-259,1173,2400,-7627,1745188668821214786
209056,57,42,-285,1270,2381,-7616,1745188668821214786
209248,60,37,-279,1334,2302,-7713,1745188668821214786
209440,48,22,-261,1279,2192,-7630,1745188668821214786
209632,24,-5,-260,1170,1946,-7614,1745188668821214786
209824,-4,-9,-254,1173,1771,-7607,1745188668821214786
210016,-36,-15,-247,1242,1662,-7616,1745188668821214786
210208,-76,-28,-239,1378,1672,-7646,1745188668821214786
210400,-127,-55,-226,1583,1597,-8048,1745188668821214786
210592,-188,-87,-218,1496,1512,-8184,1745188668885383106
210784,-228,-80,-230,994,1432,-8045,1745188668885383106
210976,-288,-39,-234,625,1428,-7702,1745188668885383106
211168,-350,-9,-237,609,1528,-7439,1745188668885383106
211360,-385,16,-222,979,1786,-7406,1745188668885383106
211552,-403,17,-205,1383,2150,-7562,1745188668885383106
211744,-406,0,-189,1490,2563,-7687,1745188668885383106
211936,-391,-19,-193,1295,2906,-7695,1745188668885383106
212128,-373,-21,-213,1065,3012,-7652,1745188668885383106
212320,-349,-8,-228,893,2924,-7655,1745188668885383106
212512,-330,11,-231,894,2745,-7690,1745188668885383106
212704,-315,23,-216,1000,2554,-7732,1745188668885383106
212896,-310,24,-203,1161,2494,-7726,1745188668943455909
213088,-312,18,-189,1274,2476,-7672,1745188668943455909
213280,-320,10,-187,1296,2418,-7672,1745188668943455909
213472,-332,3,-193,1252,2349,-7696,1745188668943455909
213664,-348,0,-200,1214,2269,-7723,1745188668943455909
213856,-364,2,-202,1186,2242,-7734,1745188668943455909
214048,-383,0,-199,1187,2316,-7624,1745188668943455909
214240,-395,-1,-197,1206,2515,-7567,1745188668943455909
214432,-396,-1,-202,1203,2732,-7572,1745188668943455909
214624,-390,1,-215,1197,2869,-7616,1745188668943455909
214816,-375,2,-234,1122,2927,-7605,1745188668943455909
215008,-358,5,-227,1059,2875,-7570,1745188668943455909
215200,-350,6,-211,1029,2831,-7491,1745188668992787281
215392,-328,15,-207,1012,2844,-7491,1745188668992787281
215584,-298,29,-211,998,2862,-7561,1745188668992787281
215776,-285,42,-215,983,2843,-7604,1745188668992787281
215968,-269,53,-206,1029,2836,-7680,1745188668992787281
216160,-256,63,-203,1050,2834,-7650,1745188668992787281
216352,-248,75,-211,1026,2812,-7585,1745188668992787281
216544,-239,88,-225,1052,2785,-7620,1745188668992787281
216736,-229,100,-255,1040,2778,-7649,1745188668992787281
216928,-214,102,-256,1062,2836,-7691,1745188668992787281
217120,-209,102,-249,1147,2884,-7574,1745188668992787281
217312,-197,104,-261,1157,2893,-7501,1745188668992787281
217504,-189,101,-269,1133,2952,-7482,1745188669058087153
217696,-179,97,-273,1134,3065,-7475,1745188669058087153
217888,-157,90,-278,1159,3286,-7464,1745188669058087153
218080,-143,80,-280,1133,3516,-7434,1745188669058087153
218272,-121,74,-283,1112,3546,-7459,1745188669058087153
218464,-88,69,-291,1089,3480,-7532,1745188669058087153
218656,-71,63,-301,1148,3364,-7566,1745188669058087153
218848,-49,57,-311,1217,3286,-7554,1745188669058087153
219040,-41,50,-334,1276,3205,-7571,1745188669058087153
219232,-26,38,-339,1312,3185,-7679,1745188669058087153
219424,-18,21,-350,1254,3138,-7640,1745188669058087153
219616,8,33,-356,1275,3106,-7743,1745188669058087153
219808,40,32,-357,1435,3146,-7810,1745188669115648138
220000,75,33,-385,1650,3231,-7875,1745188669115648138
220192,104,19,-417,1835,3379,-7858,1745188669115648138
220384,121,-22,-440,1867,3527,-7930,1745188669115648138
220576,157,-68,-466,1763,3717,-8071,1745188669115648138
220768,188,-96,-508,1721,3802,-8184,1745188669115648138
220960,234,-122,-573,1576,3777,-8231,1745188669115648138
221152,292,-139,-609,1570,3753,-8384,1745188669115648138
221344,363,-135,-651,1735,3824,-8479,1745188669115648138
221536,431,-134,-714,2161,3784,-8753,1745188669115648138
221728,452,2,-940,3646,3940,-9179,1745188669115648138
221920,554,81,-1278,3646,4117,-9119,1745188669115648138
222112,528,-91,-1170,3099,3917,-9530,1745188669175252333
222304,384,-261,-902,1859,3819,-9176,1745188669175252333
222496,322,-368,-818,803,3798,-9450,1745188669175252333
222688,239,-278,-828,690,3891,-9466,1745188669175252333
222880,157,-218,-836,1308,3939,-9359,1745188669175252333
223072,104,-227,-839,2054,3984,-9384,1745188669175252333
223264,35,-252,-858,2536,3989,-9417,1745188669175252333
223456,-49,-279,-896,2661,3942,-9486,1745188669175252333
223648,-130,-303,-952,2544,3960,-9611,1745188669175252333
223840,-202,-315,-1006,2348,4046,-9727,1745188669175252333
224032,-252,-318,-1054,2165,4269,-9771,1745188669175252333
224224,-274,-311,-1092,2045,4541,-9800,1745188669175252333
224416,-264,-298,-1135,1952,4792,-9784,1745188669232958993
224608,-202,-280,-1182,1890,5029,-9770,1745188669232958993
224800,-88,-250,-1223,1907,5314,-9885,1745188669232958993
224992,-10,-221,-1260,1975,5442,-9953,1745188669232958993
225184,20,-199,-1298,2078,5317,-9932,1745188669232958993
225376,83,-182,-1328,2133,5034,-9876,1745188669232958993
225568,162,-169,-1342,2118,4721,-9860,1745188669232958993
225760,206,-158,-1352,2079,4372,-9806,1745188669232958993
225952,229,-142,-1366,2014,3982,-9776,1745188669232958993
226144,252,-127,-1382,1935,3674,-9759,1745188669232958993
226336,277,-100,-1397,1843,3482,-9753,1745188669232958993
226528,315,-54,-1407,1724,3419,-9639,1745188669232958993
226720,365,10,-1413,1664,3366,-9373,1745188669291511167
226912,431,78,-1423,1610,3217,-9169,1745188669291511167
227104,527,139,-1441,1618,3077,-9068,1745188669291511167
227296,650,198,-1469,1630,3047,-8990,1745188669291511167
227488,793,263,-1500,1673,3119,-8970,1745188669291511167
227680,953,337,-1529,1713,3307,-8932,1745188669291511167
227872,1133,417,-1552,1731,3590,-8814,1745188669291511167
228064,1339,493,-1571,1780,3935,-8730,1745188669291511167
228256,1577,573,-1591,1834,4282,-8661,1745188669291511167
228448,1855,654,-1612,1872,4646,-8654,1745188669291511167
228640,2169,736,-1632,1920,4963,-8640,1745188669291511167
228832,2504,824,-1647,1984,5178,-8639,1745188669291511167
229024,2861,919,-1652,2101,5413,-8565,1745188669353966534
229216,3230,1024,-1628,2272,5564,-8234,1745188669353966534
229408,3595,1127,-1569,2525,5476,-7831,1745188669353966534
229600,3930,1209,-1483,2860,5088,-7504,1745188669353966534
229792,4209,1260,-1387,3262,4386,-7349,1745188669353966534
229984,4419,1285,-1285,3662,3460,-7280,1745188669353966534
230176,4553,1288,-1171,4045,2399,-7220,1745188669353966534
230368,4603,1275,-1039,4392,1204,-7132,1745188669353966534
230560,4593,1238,-891,4688,23,-7031,1745188669353966534
230752,4530,1190,-732,4870,-1128,-6912,1745188669353966534
230944,4425,1140,-560,5034,-2216,-6842,1745188669353966534
231136,4277,1084,-391,5147,-3161,-6688,1745188669353966534
231328,4100,1037,-234,5233,-3970,-6595,1745188669430376044
231520,3901,985,-83,5287,-4809,-6483,1745188669430376044
231712,3673,929,84,5271,-5677,-6338,1745188669430376044
231904,3418,870,279,5271,-6621,-6358,1745188669430376044
232096,3147,830,480,5203,-7546,-5963,1745188669430376044
232288,2860,784,696,5192,-8476,-5670,1745188669430376044
232480,2551,734,938,5193,-9564,-6207,1745188669430376044
232672,2249,701,1181,5063,-10812,-6123,1745188669430376044
232864,1979,659,1379,4940,-12690,-5930,1745188669430376044
233056,1837,620,1409,4895,-14163,-6063,1745188669430376044
233248,1700,626,1273,4999,-15295,-6229,1745188669430376044
233440,1505,681,1033,5115,-15374,-6494,1745188669430376044
233632,1189,747,866,5138,-14683,-6508,1745188669465466661
233824,776,802,913,5104,-14002,-6219,1745188669465466661
234016,420,804,1166,5084,-13407,-5876,1745188669465466661
234208,185,768,1538,5125,-12818,-5515,1745188669465466661
234400,65,733,1923,5233,-12293,-5324,1745188669465466661
234592,14,722,2266,5386,-11972,-5274,1745188669465466661
234784,-7,736,2564,5645,-11994,-5195,1745188669465466661
234976,-1,762,2838,5897,-12299,-5173,1745188669465466661
235168,11,783,3121,6142,-12675,-5266,1745188669465466661
235360,2,788,3424,6361,-13006,-5382,1745188669465466661
235552,-42,773,3731,6526,-13290,-5425,1745188669465466661
235744,-118,749,4026,6612,-13413,-5475,1745188669465466661
235936,-217,729,4305,6671,-13329,-5551,1745188669525644340
236128,-329,722,4578,6713,-13092,-5609,1745188669525644340
236320,-449,736,4835,6794,-12613,-5462,1745188669525644340
236512,-563,752,5070,6870,-11931,-5303,1745188669525644340
236704,-676,768,5295,6971,-11176,-5140,1745188669525644340
236896,-776,792,5515,7107,-10494,-4952,1745188669525644340
237088,-849,825,5725,7241,-9889,-4835,1745188669525644340
237280,-890,868,5924,7416,-9313,-4851,1745188669525644340
237472,-918,921,6119,7614,-8674,-4836,1745188669525644340
237664,-957,978,6305,7867,-8035,-4680,1745188669525644340
237856,-1016,1030,6476,8191,-7514,-4590,1745188669525644340
238048,-1091,1079,6624,8525,-7088,-4562,1745188669525644340
238240,-1175,1144,6756,8910,-6649,-4597,1745188669583553186
238432,-1274,1209,6863,9323,-6217,-4592,1745188669583553186
238624,-1377,1265,6942,9735,-5603,-4686,1745188669583553186
238816,-1474,1349,6993,10124,-4756,-4769,1745188669583553186
239008,-1552,1466,7019,10558,-3665,-4535,1745188669583553186
239200,-1625,1586,7028,11053,-2533,-4157,1745188669583553186
239392,-1690,1667,7043,11896,-1559,-3695,1745188669583553186
239584,-1763,1681,7074,12804,-602,-4307,1745188669583553186
239776,-1835,1711,7144,13587,376,-4828,1745188669583553186
239968,-1840,1747,7264,14224,1241,-5116,1745188669583553186
240160,-1746,1754,7413,14864,1783,-5587,1745188669583553186
240352,-1534,1735,7566,15481,2002,-6041,1745188669583553186
240544,-1237,1710,7697,16062,1956,-6388,1745188669648015098
240736,-910,1670,7793,16476,1742,-6591,1745188669648015098
240928,-598,1656,7841,16726,1474,-6750,1745188669648015098
241120,-341,1691,7838,16890,1224,-6752,1745188669648015098
241312,-172,1777,7795,17120,930,-6692,1745188669648015098
241504,-83,1894,7734,17487,559,-6503,1745188669648015098
241696,-60,2012,7675,18082,238,-6295,1745188669648015098
241888,-104,2106,7616,18818,-10,-5812,1745188669648015098
242080,-224,2168,7546,19619,-176,-5298,1745188669648015098
242272,-423,2189,7452,20487,-263,-4892,1745188669648015098
242464,-693,2148,7338,21394,-329,-4481,1745188669648015098
242656,-1017,2044,7218,22246,-305,-3950,1745188669648015098
242848,-1407,1862,7083,22864,-198,-3455,1745188669763122223
243040,-1857,1592,6929,23173,9,-3165,1745188669763122223
243232,-2341,1240,6751,23064,503,-2868,1745188669763122223
243424,-2860,811,6515,22368,1313,-1446,1745188669763122223
243616,-3447,356,6161,21306,2169,-66,1745188669763122223
243808,-4071,-96,5737,19983,3179,556,1745188669763122223
244000,-4676,-547,5382,18625,4603,379,1745188669763122223
244192,-5221,-1018,5130,17380,6486,-552,1745188669763122223
244384,-5664,-1463,4938,16070,8885,-2177,1745188669763122223
244576,-5958,-1862,4762,14832,11718,-3139,1745188669763122223
244768,-6100,-2204,4561,13592,14618,-3496,1745188669763122223
244960,-6094,-2535,4352,12101,16951,-3043,1745188669763122223
245152,-6021,-2821,4193,10277,17783,-3380,1745188669772773385
245344,-5853,-3043,4095,8280,17001,-2994,1745188669772773385
245536,-5479,-3192,4020,6153,15047,-3251,1745188669772773385
245728,-4961,-3263,3929,4204,12465,-3379,1745188669772773385
245920,-4349,-3207,3745,2389,9776,-3132,1745188669772773385
246112,-3652,-3004,3405,525,7620,-3233,1745188669772773385
246304,-2997,-2622,2938,-1484,6055,-3494,1745188669772773385
246496,-2452,-2101,2455,-3387,4975,-3868,1745188669772773385
246688,-2076,-1532,2042,-4456,4312,-4197,1745188669772773385
246880,-1869,-984,1708,-4511,4043,-4566,1745188669772773385
247072,-1752,-508,1448,-3574,4228,-4983,1745188669772773385
247264,-1639,-124,1187,-2174,4645,-5585,1745188669772773385
247456,-1462,164,893,-703,5378,-6016,1745188669827650384
247648,-1205,343,597,516,6368,-5929,1745188669827650384
247840,-927,472,334,1326,7373,-5506,1745188669827650384
248032,-687,526,135,1854,8704,-5484,1745188669827650384
248224,-562,551,-1,2053,10559,-5244,1745188669827650384
248416,-570,524,-28,2202,12396,-5136,1745188669827650384
248608,-617,480,100,2333,14031,-5242,1745188669827650384
248800,-633,419,382,2526,15370,-5456,1745188669827650384
248992,-523,330,741,2806,16052,-5453,1745188669827650384
249184,-237,200,1064,3002,15902,-5351,1745188669827650384
249376,188,23,1283,2943,14870,-5254,1745188669827650384
249568,659,-171,1409,2528,13114,-5114,1745188669827650384
249760,1072,-345,1492,1883,11008,-5144,1745188669873897461
249952,1354,-485,1560,1165,8839,-5368,1745188669873897461
250144,1478,-578,1611,429,6832,-5677,1745188669873897461
250336,1465,-619,1642,-263,5253,-5988,1745188669873897461
250528,1338,-620,1653,-823,4135,-6312,1745188669873897461
250720,1120,-583,1636,-1144,3529,-6602,1745188669873897461
250912,825,-517,1584,-1288,3413,-6893,1745188669873897461
251104,474,-428,1491,-1167,3699,-7075,1745188669873897461
251296,98,-342,1382,-875,4361,-7194,1745188669873897461
251488,-264,-279,1297,-465,5259,-7172,1745188669873897461
251680,-552,-249,1237,13,6204,-7095,1745188669873897461
251872,-730,-251,1182,442,7130,-6982,1745188669873897461
252064,-799,-276,1119,710,7860,-6930,1745188669947348405
252256,-786,-322,1043,808,8302,-6879,1745188669947348405
252448,-719,-374,956,724,8352,-6819,1745188669947348405
252640,-633,-416,867,528,7929,-6724,1745188669947348405
252832,-552,-441,777,228,7142,-6631,1745188669947348405
253024,-490,-445,690,-92,6234,-6586,1745188669947348405
253216,-483,-429,607,-455,5477,-6617,1745188669947348405
253408,-536,-402,551,-769,4973,-6624,1745188669947348405
253600,-663,-359,496,-944,4523,-6752,1745188669947348405
253792,-847,-299,411,-966,4146,-6744,1745188669947348405
253984,-1053,-251,311,-1102,4004,-6715,1745188669947348405
254176,-1242,-217,270,-1214,4287,-6584,1745188669947348405
254368,-1417,-185,302,-1161,4677,-6613,1745188669991084932
254560,-1590,-166,323,-1097,5084,-6532,1745188669991084932
254752,-1745,-142,294,-1069,5455,-6480,1745188669991084932
254944,-1873,-127,246,-1070,5824,-6325,1745188669991084932
255136,-1963,-108,208,-1024,6193,-6078,1745188669991084932
255328,-1999,-95,197,-969,6587,-5855,1745188669991084932
255520,-1987,-76,212,-881,6988,-5696,1745188669991084932
255712,-1943,-67,230,-728,7358,-5590,1745188669991084932
255904,-1878,-85,252,-655,7670,-5435,1745188669991084932
256096,-1810,-116,284,-604,7647,-5414,1745188669991084932
256288,-1768,-158,309,-587,7157,-5610,1745188669991084932
256480,-1763,-200,325,-671,6300,-5653,1745188669991084932
256672,-1782,-231,337,-823,5402,-5746,1745188670073532200
256864,-1828,-249,341,-965,4705,-5816,1745188670073532200
257056,-1921,-249,333,-1081,4233,-5828,1745188670073532200
257248,-2074,-234,316,-1206,3929,-5841,1745188670073532200
257440,-2264,-217,292,-1238,3849,-5793,1745188670073532200
257632,-2473,-206,264,-1226,4005,-5635,1745188670073532200
257824,-2666,-201,232,-1224,4412,-5469,1745188670073532200
258016,-2805,-195,191,-1265,5098,-5324,1745188670073532200
258208,-2879,-188,150,-1279,5979,-5175,1745188670073532200
258400,-2882,-175,115,-1282,6884,-5016,1745188670073532200
258592,-2810,-155,85,-1277,7717,-4918,1745188670073532200
258784,-2671,-135,63,-1263,8390,-4836,1745188670073532200
258976,-2477,-119,42,-1222,8812,-4814,1745188670107820793
259168,-2251,-110,21,-1192,9011,-4726,1745188670107820793
259360,-2003,-103,8,-1157,8937,-4654,1745188670107820793
259552,-1741,-92,3,-1167,8704,-4660,1745188670107820793
259744,-1494,-79,1,-1158,8380,-4781,1745188670107820793
259936,-1291,-68,-7,-1157,8003,-4913,1745188670107820793
260128,-1152,-58,-15,-1152,7598,-5082,1745188670107820793
260320,-1070,-48,-21,-1099,7258,-5179,1745188670107820793
260512,-1033,-36,-25,-1056,6972,-5309,1745188670107820793
260704,-1019,-31,-25,-1009,6777,-5310,1745188670107820793
260896,-1008,-23,-21,-972,6713,-5308,1745188670107820793
261088,-987,-14,-21,-893,6768,-5245,1745188670107820793
261280,-956,-3,-31,-866,6917,-5114,1745188670176490895
261472,-917,2,-44,-893,7100,-5037,1745188670176490895
261664,-872,0,-50,-955,7309,-5045,1745188670176490895
261856,-829,-4,-47,-1021,7470,-5055,1745188670176490895
262048,-786,-3,-40,-1041,7550,-4996,1745188670176490895
262240,-734,5,-34,-1029,7605,-4876,1745188670176490895
262432,-673,14,-34,-970,7620,-4821,1745188670176490895
262624,-611,23,-35,-905,7627,-4791,1745188670176490895
262816,-550,30,-39,-840,7549,-4807,1745188670176490895
263008,-485,38,-49,-821,7425,-4815,1745188670176490895
263200,-413,47,-59,-813,7239,-4786,1745188670176490895
263392,-331,56,-66,-849,7060,-4763,1745188670176490895
263584,-247,63,-76,-895,6947,-4739,1745188670224810193
263776,-167,70,-94,-925,6871,-4718,1745188670224810193
263968,-91,76,-116,-939,6842,-4726,1745188670224810193
264160,-19,84,-138,-958,6848,-4682,1745188670224810193
264352,62,96,-148,-961,6901,-4615,1745188670224810193
264544,157,111,-150,-963,6968,-4560,1745188670224810193
264736,249,125,-155,-940,6974,-4581,1745188670224810193
264928,327,134,-175,-892,6904,-4652,1745188670224810193
265120,384,137,-199,-816,6800,-4695,1745188670224810193
265312,419,142,-209,-766,6696,-4784,1745188670224810193
265504,447,145,-199,-685,6594,-4821,1745188670224810193
265696,471,144,-185,-637,6483,-4867,1745188670224810193
265888,481,137,-179,-625,6322,-4989,1745188670285154746
266080,482,128,-180,-634,6106,-5050,1745188670285154746
266272,474,119,-185,-707,5887,-5139,1745188670285154746
266464,457,117,-184,-758,5656,-5238,1745188670285154746
266656,431,125,-178,-758,5492,-5306,1745188670285154746
266848,395,139,-176,-740,5386,-5335,1745188670285154746
267040,342,153,-180,-691,5359,-5364,1745188670285154746
267232,278,161,-187,-654,5353,-5348,1745188670285154746
267424,216,163,-192,-638,5341,-5287,1745188670285154746
267616,165,162,-195,-630,5404,-5226,1745188670285154746
267808,127,161,-197,-652,5476,-5153,1745188670285154746
268000,92,163,-198,-700,5538,-5130,1745188670285154746
268192,61,168,-198,-713,5552,-5226,1745188670343606608
268384,40,175,-202,-699,5565,-5303,1745188670343606608
268576,32,187,-207,-689,5591,-5350,1745188670343606608
268768,32,196,-209,-659,5613,-5334,1745188670343606608
268960,31,200,-215,-666,5603,-5320,1745188670343606608
269152,39,199,-220,-668,5560,-5304,1745188670343606608
269344,57,199,-223,-690,5524,-5223,1745188670343606608
269536,80,200,-222,-712,5473,-5281,1745188670343606608
269728,103,201,-219,-723,5428,-5371,1745188670343606608
269920,120,203,-215,-736,5362,-5378,1745188670343606608
270112,124,207,-208,-727,5265,-5465,1745188670343606608
270304,118,207,-198,-699,5232,-5521,1745188670343606608
270496,101,205,-189,-712,5255,-5489,1745188670405172868
270688,78,205,-178,-700,5346,-5431,1745188670405172868
270880,57,207,-167,-682,5455,-5379,1745188670405172868
271072,46,211,-159,-666,5555,-5362,1745188670405172868
271264,42,218,-149,-664,5616,-5350,1745188670405172868
271456,43,219,-136,-641,5689,-5344,1745188670405172868
271648,46,215,-124,-621,5703,-5306,1745188670405172868
271840,49,208,-117,-612,5707,-5298,1745188670405172868
272032,52,201,-112,-642,5684,-5338,1745188670405172868
272224,57,193,-108,-701,5666,-5375,1745188670405172868
272416,71,186,-106,-761,5655,-5407,1745188670405172868
272608,90,184,-106,-839,5678,-5430,1745188670405172868
272800,107,189,-110,-873,5694,-5447,1745188670463501086
272992,120,199,-117,-871,5651,-5481,1745188670463501086
273184,126,211,-120,-814,5578,-5528,1745188670463501086
273376,132,219,-118,-746,5562,-5514,1745188670463501086
273568,132,226,-112,-711,5591,-5515,1745188670463501086
273760,125,232,-104,-639,5688,-5521,1745188670463501086
273952,117,237,-97,-628,5775,-5487,1745188670463501086
274144,112,238,-94,-645,5850,-5465,1745188670463501086
274336,114,236,-94,-656,5932,-5426,1745188670463501086
274528,122,233,-95,-686,6003,-5339,1745188670463501086
274720,126,233,-97,-699,6088,-5233,1745188670463501086
274912,125,237,-101,-703,6152,-5222,1745188670463501086
275104,122,241,-105,-680,6160,-5251,1745188670517686216
275296,120,242,-103,-668,6113,-5312,1745188670517686216
275488,128,242,-98,-661,6064,-5322,1745188670517686216
275680,140,237,-97,-653,6023,-5297,1745188670517686216
275872,147,233,-99,-672,6059,-5242,1745188670517686216
276064,143,229,-102,-718,6105,-5155,1745188670517686216
276256,139,229,-104,-743,6162,-5104,1745188670517686216
276448,137,235,-107,-746,6277,-5158,1745188670517686216
276640,130,245,-111,-753,6380,-5187,1745188670517686216
276832,117,253,-113,-761,6458,-5165,1745188670517686216
277024,108,257,-114,-755,6524,-5123,1745188670517686216
277216,102,258,-121,-766,6580,-5005,1745188670517686216
277408,98,260,-132,-773,6634,-4890,1745188670582537915
277600,96,266,-146,-815,6725,-4802,1745188670582537915
277792,95,272,-162,-866,6807,-4688,1745188670582537915
277984,92,281,-175,-940,6921,-4601,1745188670582537915
278176,87,290,-193,-976,7080,-4513,1745188670582537915
278368,84,303,-216,-993,7212,-4456,1745188670582537915
278560,81,323,-242,-971,7366,-4468,1745188670582537915
278752,79,343,-267,-912,7489,-4479,1745188670582537915
278944,81,362,-293,-859,7607,-4435,1745188670582537915
279136,89,378,-319,-820,7724,-4375,1745188670582537915
279328,105,396,-344,-773,7783,-4302,1745188670582537915
279520,123,415,-372,-744,7813,-4269,1745188670582537915
279712,146,436,-402,-697,7825,-4312,1745188670634049111
279904,172,458,-435,-654,7843,-4400,1745188670634049111
280096,191,478,-466,-631,7832,-4452,1745188670634049111
280288,207,493,-499,-609,7775,-4394,1745188670634049111
280480,224,508,-534,-604,7737,-4354,1745188670634049111
280672,237,522,-569,-592,7708,-4368,1745188670634049111
280864,244,536,-603,-642,7696,-4401,1745188670634049111
281056,249,546,-636,-694,7699,-4438,1745188670634049111
281248,252,556,-667,-758,7746,-4453,1745188670634049111
281440,247,571,-699,-831,7813,-4415,1745188670634049111
281632,238,595,-733,-859,7869,-4398,1745188670634049111
281824,232,622,-768,-879,7939,-4424,1745188670634049111
282016,230,652,-800,-878,8029,-4454,1745188670694428559
282208,235,677,-831,-831,8114,-4435,1745188670694428559
282400,241,697,-861,-751,8184,-4356,1745188670694428559
282592,249,714,-893,-693,8246,-4259,1745188670694428559
282784,257,726,-927,-647,8285,-4134,1745188670694428559
282976,268,736,-963,-628,8357,-4038,1745188670694428559
283168,283,748,-998,-632,8430,-4001,1745188670694428559
283360,297,761,-1031,-634,8510,-3947,1745188670694428559
283552,312,781,-1065,-646,8588,-3929,1745188670694428559
283744,333,802,-1101,-640,8625,-3917,1745188670694428559
283936,359,824,-1139,-624,8674,-3912,1745188670694428559
284128,391,849,-1180,-576,8712,-3965,1745188670694428559
284320,424,875,-1222,-515,8757,-4078,1745188670755168213
284512,457,903,-1266,-412,8820,-4157,1745188670755168213
284704,487,932,-1312,-299,8908,-4245,1745188670755168213
284896,510,958,-1361,-181,8961,-4295,1745188670755168213
285088,532,979,-1410,-74,8995,-4290,1745188670755168213
285280,556,995,-1459,-2,8942,-4256,1745188670755168213
285472,578,1004,-1505,13,8819,-4199,1745188670755168213
285664,598,1009,-1547,-14,8677,-4106,1745188670755168213
285856,613,1014,-1588,-79,8570,-3979,1745188670755168213
286048,616,1024,-1632,-187,8483,-3807,1745188670755168213
286240,603,1045,-1682,-293,8459,-3683,1745188670755168213
286432,581,1079,-1734,-403,8474,-3559,1745188670755168213
286624,563,1124,-1782,-446,8583,-3507,1745188670811180826
286816,559,1178,-1830,-446,8748,-3452,1745188670811180826
287008,572,1237,-1878,-386,9005,-3415,1745188670811180826
287200,608,1303,-1930,-249,9330,-3343,1745188670811180826
287392,675,1374,-1988,-36,9751,-3191,1745188670811180826
287584,792,1452,-2059,213,10247,-2924,1745188670811180826
287776,965,1531,-2138,523,10789,-2742,1745188670811180826
287968,1191,1602,-2221,887,11314,-2613,1745188670811180826
288160,1458,1664,-2312,1297,11735,-2435,1745188670811180826
288352,1771,1708,-2409,1699,12038,-2262,1745188670811180826
288544,2125,1739,-2500,2110,12192,-2162,1745188670811180826
288736,2487,1760,-2587,2481,12165,-2217,1745188670811180826
288928,2829,1770,-2670,2854,11916,-2350,1745188670878253963
289120,3135,1774,-2752,3212,11467,-2504,1745188670878253963
289312,3391,1781,-2833,3605,10853,-2728,1745188670878253963
289504,3599,1789,-2915,4046,10122,-2946,1745188670878253963
289696,3758,1798,-3004,4473,9362,-3153,1745188670878253963
289888,3873,1802,-3098,4893,8647,-3353,1745188670878253963
290080,3940,1798,-3200,5299,8024,-3615,1745188670878253963
290272,3953,1793,-3312,5685,7502,-3994,1745188670878253963
290464,3923,1789,-3427,6072,7009,-4366,1745188670878253963
290656,3865,1782,-3540,6451,6525,-4619,1745188670878253963
290848,3798,1765,-3653,6763,6064,-4803,1745188670878253963
291040,3721,1729,-3772,6983,5632,-4890,1745188670878253963
291232,3633,1678,-3888,7147,5231,-4959,1745188670926192224
291424,3531,1613,-4005,7211,4870,-5056,1745188670926192224
291616,3411,1541,-4124,7192,4575,-5142,1745188670926192224
291808,3277,1470,-4241,7156,4336,-5147,1745188670926192224
292000,3133,1402,-4351,7090,4182,-5077,1745188670926192224
292192,2975,1335,-4454,7015,4053,-4945,1745188670926192224
292384,2810,1272,-4547,6923,3902,-4743,1745188670926192224
292576,2646,1210,-4625,6841,3780,-4518,1745188670926192224
292768,2487,1147,-4692,6764,3667,-4227,1745188670926192224
292960,2329,1093,-4741,6757,3580,-3949,1745188670926192224
293152,2169,1055,-4768,6777,3499,-3812,1745188670926192224
293344,2015,1027,-4777,6904,3424,-3710,1745188670926192224
293536,1869,1007,-4771,7037,3344,-3668,1745188670992252610
293728,1736,990,-4755,7186,3236,-3712,1745188670992252610
293920,1627,963,-4738,7327,3102,-3730,1745188670992252610
294112,1546,920,-4726,7432,2942,-3713,1745188670992252610
294304,1490,859,-4724,7463,2748,-3660,1745188670992252610
294496,1450,793,-4724,7392,2576,-3639,1745188670992252610
294688,1423,729,-4723,7235,2371,-3679,1745188670992252610
294880,1401,663,-4719,7061,2125,-3814,1745188670992252610
295072,1382,597,-4710,6866,1838,-4046,1745188670992252610
295264,1368,535,-4696,6661,1596,-4431,1745188670992252610
295456,1362,478,-4669,6482,1367,-4719,1745188670992252610
295648,1371,440,-4626,6276,1157,-4985,1745188670992252610
295840,1398,413,-4569,6134,961,-5229,1745188671043087093
296032,1436,396,-4513,5991,675,-5367,1745188671043087093
296224,1474,385,-4463,5868,309,-5540,1745188671043087093
296416,1499,370,-4414,5781,-160,-5740,1745188671043087093
296608,1506,356,-4361,5712,-788,-5975,1745188671043087093
296800,1497,346,-4297,5643,-1482,-6205,1745188671043087093
296992,1478,334,-4216,5545,-2198,-6412,1745188671043087093
297184,1448,311,-4115,5486,-2967,-6510,1745188671043087093
297376,1409,273,-4005,5446,-3666,-6547,1745188671043087093
297568,1355,217,-3889,5440,-4525,-6533,1745188671043087093
297760,1270,146,-3755,5500,-5425,-6389,1745188671043087093
297952,1129,53,-3601,5629,-6247,-6094,1745188671043087093
298144,916,-59,-3448,5667,-6849,-6030,1745188671111185742
298336,639,-149,-3313,5485,-7123,-5646,1745188671111185742
298528,338,-219,-3195,5110,-7085,-5069,1745188671111185742
298720,51,-269,-3092,4639,-6895,-4669,1745188671111185742
298912,-191,-290,-2988,4113,-6568,-4590,1745188671111185742
299104,-364,-270,-2861,3614,-6279,-4945,1745188671111185742
299296,-453,-221,-2696,3260,-6025,-5383,1745188671111185742
299488,-450,-149,-2503,3031,-5857,-5869,1745188671111185742
299680,-386,-82,-2310,2899,-5777,-6447,1745188671111185742
299872,-308,-18,-2136,2861,-5833,-7480,1745188671111185742
300064,-238,68,-1978,2950,-6017,-8734,1745188671111185742
300256,-177,162,-1813,3218,-6349,-9533,1745188671111185742
300448,-113,248,-1626,3688,-6728,-10139,1745188671161758353
300640,-60,317,-1442,4289,-7009,-10534,1745188671161758353
300832,-48,365,-1301,4947,-7084,-10598,1745188671161758353
301024,-89,383,-1216,5574,-7035,-10318,1745188671161758353
301216,-163,374,-1166,6015,-6857,-9757,1745188671161758353
301408,-250,358,-1123,6215,-6688,-9245,1745188671161758353
301600,-340,337,-1077,6244,-6543,-8895,1745188671161758353
301792,-432,310,-1016,6069,-6389,-8531,1745188671161758353
301984,-527,289,-938,5795,-6250,-8090,1745188671161758353
302176,-624,265,-850,5441,-6148,-7671,1745188671161758353
302368,-732,261,-760,5111,-6027,-7449,1745188671161758353
302560,-855,281,-663,4835,-5913,-7411,1745188671161758353
302752,-980,333,-550,4737,-5682,-7504,1745188671222631078
302944,-1093,400,-434,4815,-5352,-7652,1745188671222631078
303136,-1203,463,-345,5049,-4982,-7774,1745188671222631078
303328,-1311,506,-289,5309,-4584,-7951,1745188671222631078
303520,-1413,531,-248,5554,-4197,-8188,1745188671222631078
303712,-1506,538,-215,5752,-3843,-8406,1745188671222631078
303904,-1590,532,-188,5834,-3522,-8523,1745188671222631078
304096,-1661,526,-163,5786,-3202,-8615,1745188671222631078
304288,-1721,521,-141,5638,-2893,-8562,1745188671222631078
304480,-1779,520,-125,5436,-2652,-8607,1745188671222631078
304672,-1834,533,-117,5203,-2428,-8804,1745188671222631078
304864,-1886,547,-97,5006,-2271,-9043,1745188671222631078
305056,-1929,575,-61,4876,-2144,-9244,1745188671278432547
305248,-1961,603,-18,4815,-2016,-9267,1745188671278432547
305440,-2006,631,17,4810,-1999,-9070,1745188671278432547
305632,-2096,647,35,4902,-2116,-8979,1745188671278432547
305824,-2227,654,47,4953,-2203,-8771,1745188671278432547
306016,-2377,663,71,4932,-2139,-8546,1745188671278432547
306208,-2524,664,106,4841,-1920,-8329,1745188671278432547
306400,-2658,659,138,4650,-1679,-8001,1745188671278432547
306592,-2692,675,146,4534,-1150,-5883,1745188671278432547
306784,-2731,703,136,4516,-455,-7340,1745188671278432547
306976,-2926,657,173,4828,-459,-8083,1745188671278432547
307168,-3190,572,260,5022,-1016,-7657,1745188671278432547
307360,-3426,447,392,5021,-1279,-7187,1745188671337006231
307552,-3629,370,520,4660,-724,-7775,1745188671337006231
307744,-3617,413,736,5251,-33,-8299,1745188671337006231
307936,-3259,463,870,5539,1755,-10578,1745188671337006231
308128,-3178,415,929,6062,2911,-10531,1745188671337006231
308320,-3244,341,883,7258,1809,-22077,1745188671337006231
308512,-3367,-138,936,10580,292,-31807,1745188671337006231
308704,-2965,-766,1196,14137,4964,-28779,1745188671337006231
308896,-2720,-971,1075,13995,10268,-18018,1745188671337006231
309088,-2806,-1372,259,10318,10927,-8845,1745188671337006231
309280,-2549,-1800,-820,6318,8582,-4043,1745188671337006231
309472,-1871,-1824,-1458,3031,6905,-1967,1745188671337006231
309664,-1153,-1613,-1528,661,6548,-1470,1745188671402989222
309856,-693,-1404,-1215,-1256,6519,-3298,1745188671402989222
310048,-461,-1319,-702,-2544,6108,-5866,1745188671402989222
310240,-87,-1219,-133,-2761,5540,-8886,1745188671402989222
310432,175,-1084,252,-2360,5408,-8605,1745188671402989222
310624,124,-766,315,-1585,5127,-8246,1745188671402989222
310816,179,-479,210,-661,5001,-8193,1745188671402989222
311008,174,-294,160,821,5193,-7993,1745188671402989222
311200,174,-201,82,2035,5256,-5298,1745188671402989222
311392,410,-170,-10,2607,5452,-4911,1745188671402989222
311584,670,-193,-27,2704,6281,-5786,1745188671402989222
311776,845,-253,-5,2592,6695,-6777,1745188671402989222
311968,950,-306,0,2289,5981,-7562,1745188671453644957
312160,1005,-376,-36,1702,4463,-7786,1745188671453644957
312352,1006,-405,-49,969,2787,-7679,1745188671453644957
312544,965,-371,-50,200,1784,-7645,1745188671453644957
312736,904,-323,-44,-433,1346,-7682,1745188671453644957
312928,819,-199,-5,-694,1424,-7614,1745188671453644957
313120,757,-107,8,-751,1903,-7816,1745188671453644957
313312,685,10,33,-472,2463,-7795,1745188671453644957
313504,597,161,61,-26,2830,-7946,1745188671453644957
313696,549,167,74,442,2866,-8048,1745188671453644957
313888,516,166,73,764,2649,-7834,1745188671453644957
314080,479,155,69,965,2325,-7815,1745188671453644957
314272,451,119,66,1047,2104,-7693,1745188671514149717
314464,415,99,70,1009,2018,-7687,1745188671514149717
314656,383,77,74,900,2091,-7672,1745188671514149717
314848,359,71,76,808,2264,-7709,1745188671514149717
315040,352,62,64,744,2442,-7641,1745188671514149717
315232,347,72,51,761,2582,-7582,1745188671514149717
315424,349,88,45,815,2675,-7554,1745188671514149717
315616,352,99,46,925,2709,-7559,1745188671514149717
315808,348,115,53,1130,2721,-7536,1745188671514149717
316000,347,122,53,1312,2787,-7466,1745188671514149717
316192,356,114,49,1470,2886,-7402,1745188671514149717
316384,382,93,44,1548,3014,-7308,1745188671514149717
316576,417,68,38,1554,3166,-7253,1745188671571462787
316768,448,46,42,1562,3230,-7491,1745188671571462787
316960,473,13,35,1552,3157,-7523,1745188671571462787
317152,490,-5,12,1502,2991,-7568,1745188671571462787
317344,499,-21,0,1435,2793,-7639,1745188671571462787
317536,499,-37,1,1384,2562,-7631,1745188671571462787
317728,482,-30,4,1301,2426,-7482,1745188671571462787
317920,450,65,80,1451,2593,-7689,1745188671571462787
318112,447,-3,-77,1433,2750,-7781,1745188671571462787
318304,426,47,-158,1357,2679,-7836,1745188671571462787
318496,402,26,-114,1415,2462,-7662,1745188671571462787
318688,385,30,-56,1388,2362,-7564,1745188671571462787
318880,373,25,-27,1392,2398,-7444,1745188671631341459
319072,340,80,-30,1500,2707,-7478,1745188671631341459
319264,327,71,-39,1514,2751,-7867,1745188671631341459
319456,348,10,-26,1253,1506,-7541,1745188671631341459
319648,394,-3,127,1165,-1487,-7054,1745188671631341459
319840,279,32,310,1196,89,-7551,1745188671631341459
320032,138,-35,303,1081,3165,-8296,1745188671631341459
320224,156,-19,182,1142,4056,-8037,1745188671631341459
320416,234,-36,49,1146,4164,-7902,1745188671631341459
320608,286,-39,-16,1137,3350,-7616,1745188671631341459
320800,348,-42,-39,1361,3398,-7583,1745188671631341459
320992,391,-59,-73,1485,2030,-7531,1745188671631341459
321184,411,-74,-11,1348,414,-7361,1745188671689594469
321376,358,-93,80,1197,1903,-7492,1745188671689594469
321568,332,-77,54,1126,3156,-7879,1745188671689594469
321760,369,-80,-28,1192,3854,-8044,1745188671689594469
321952,413,-88,-105,998,4380,-8035,1745188671689594469
322144,470,-94,-148,941,4245,-7993,1745188671689594469
322336,538,-78,-147,879,2511,-7436,1745188671689594469
322528,551,34,-16,1164,1246,-7100,1745188671689594469
322720,604,-7,13,1279,1163,-7494,1745188671689594469
322912,549,51,-50,1357,1623,-7724,1745188671689594469
323104,503,18,-87,1380,1757,-7991,1745188671689594469
323296,467,7,-63,1287,1594,-8052,1745188671689594469
323488,403,-34,-61,1130,1274,-8111,1745188671746355200
323680,356,-25,-73,954,823,-7848,1745188671746355200
323872,291,11,-47,916,1130,-7772,1745188671746355200
324064,236,40,-20,977,1375,-7808,1745188671746355200
324256,220,39,5,1149,1510,-7987,1745188671746355200
324448,198,30,-3,1229,1527,-7972,1745188671746355200
324640,173,10,2,1239,1480,-7982,1745188671746355200
324832,153,-5,14,1202,1457,-7851,1745188671746355200
325024,151,-15,-4,1142,1420,-7899,1745188671746355200
325216,132,-27,-26,1088,1484,-7920,1745188671746355200
325408,109,-29,-24,1067,1645,-7834,1745188671746355200
325600,95,-28,-9,1055,1824,-7829,1745188671746355200
325792,91,-26,0,1099,1974,-7818,1745188671808363436
325984,96,-24,-1,1147,2025,-7865,1745188671808363436
326176,89,-27,-2,1078,1845,-7441,1745188671808363436
326368,47,-7,-5,417,1314,-7197,1745188671808363436
326560,11,93,-1,-263,953,-7888,1745188671808363436
326752,74,198,38,879,2516,-8653,1745188671808363436
326944,150,157,77,2683,4234,-8257,1745188671808363436
327136,146,54,34,3061,3725,-7908,1745188671808363436
327328,158,-45,-43,2056,2290,-7575,1745188671808363436
327520,163,-85,-68,867,1334,-7538,1745188671808363436
327712,172,-70,-37,383,1222,-7746,1745188671808363436
327904,187,-32,-2,562,1679,-7833,1745188671808363436
328096,187,7,9,1029,2135,-7829,1745188671879988458
328288,191,20,6,1383,2279,-7756,1745188671879988458
328480,202,5,-1,1579,2166,-7620,1745188671879988458
328672,252,5,-6,1529,2029,-7081,1745188671879988458
328864,319,3,-19,1817,2331,-7945,1745188671879988458
329056,289,-22,22,1913,2040,-7914,1745188671879988458
329248,218,-92,15,1923,862,-8147,1745188671879988458
329440,-100,162,15,3229,1412,-7025,1745188671879988458
329632,31,-58,-35,2000,2320,-8172,1745188671879988458
329824,28,-170,-8,1084,2487,-7857,1745188671879988458
330016,67,-186,19,705,2129,-7914,1745188671879988458
330208,99,-180,-31,874,1762,-7704,1745188671879988458
330400,122,-140,-41,894,1738,-7828,1745188671925234035
330592,179,-223,56,627,1646,-8132,1745188671925234035
330784,132,-180,82,802,1612,-7858,1745188671925234035
330976,108,-115,34,1040,1777,-7778,1745188671925234035
331168,126,-107,1,1040,1938,-7820,1745188671925234035
331360,134,-100,1,965,1838,-7873,1745188671925234035
331552,135,-87,1,942,1663,-7907,1745188671925234035
331744,148,-85,3,884,1584,-7985,1745188671925234035
331936,144,-86,9,797,1374,-8001,1745188671925234035
332128,124,-66,24,747,1174,-7990,1745188671925234035
332320,97,-43,27,758,1087,-7971,1745188671925234035
332512,67,-17,18,932,1075,-7892,1745188671925234035
332704,43,-28,20,1293,1082,-7871,1745188671979614528
332896,19,-60,39,1592,1134,-7901,1745188671979614528
333088,-11,-92,41,1661,1321,-7905,1745188671979614528
333280,-33,-119,35,1386,1479,-7902,1745188671979614528
333472,-35,-141,45,861,1555,-8141,1745188671979614528
333664,-38,-145,59,591,1611,-7980,1745188671979614528
333856,-36,-129,60,670,1541,-8054,1745188671979614528
334048,-42,-103,50,926,1421,-8005,1745188671979614528
334240,-41,-94,34,1055,1373,-7942,1745188671979614528
334432,-51,-92,25,1017,1348,-7923,1745188671979614528
334624,-53,-93,20,876,1339,-7887,1745188671979614528
334816,-53,-87,21,783,1439,-7861,1745188671979614528
335008,-53,-72,23,845,1503,-7863,1745188672040821573
335200,-56,-59,25,914,1551,-7887,1745188672040821573
335392,-57,-44,24,890,1574,-7891,1745188672040821573
335584,-62,-27,22,793,1536,-7860,1745188672040821573
335776,-71,-7,21,805,1559,-7815,1745188672040821573
335968,-77,7,25,811,1638,-7781,1745188672040821573
336160,-81,21,35,833,1707,-7846,1745188672040821573
336352,-82,27,41,975,1821,-7899,1745188672040821573
336544,-79,29,42,1120,1870,-7874,1745188672040821573
336736,-83,22,37,1174,1797,-7816,1745188672040821573
336928,-84,4,36,1276,1788,-7795,1745188672040821573
337120,-86,-25,43,1386,1829,-7859,1745188672040821573
381664,-89,-44,-12,1356,2686,-7840,1745188673252567274
381856,-119,-129,-19,821,1949,-7886,1745188673252567274
382048,-16,-223,-36,816,2345,-7798,1745188673252567274
382240,-38,-203,-34,650,2390,-7838,1745188673252567274
382432,-26,-220,-45,549,2249,-7827,1745188673252567274
382624,-23,-208,-34,479,2270,-7846,1745188673252567274
382816,-28,-178,-35,422,2358,-7872,1745188673252567274
383008,-28,-181,-33,321,2390,-7832,1745188673252567274
383200,-30,-136,-24,99,2269,-7785,1745188673252567274
383392,-26,-96,-17,162,2240,-7733,1745188673252567274
383584,-17,-85,3,518,2350,-7815,1745188673252567274
383776,-24,-70,-2,636,2077,-7834,1745188673252567274
383968,-34,-62,-8,330,-227,-1,1745188673277559494
384160,-49,-42,-4,134,1811,-7772,1745188673277559494
384352,-60,-7,13,162,1966,-7811,1745188673277559494
384544,-66,19,25,355,2183,-7888,1745188673277559494
384736,-77,37,31,442,2202,-7888,1745188673277559494
384928,-94,54,28,410,2044,-7839,1745188673277559494
385120,-109,63,27,475,2015,-7819,1745188673277559494
385312,-118,71,35,546,2163,-7829,1745188673277559494
385504,-121,74,37,616,2303,-7837,1745188673277559494
385696,-121,66,38,728,2424,-7828,1745188673277559494
385888,-118,55,37,766,2538,-7817,1745188673277559494
386080,-108,39,37,752,2638,-7789,1745188673277559494
386272,-97,28,33,640,2590,-7727,1745188673344125552
386464,-86,20,29,571,2543,-7704,1745188673344125552
386656,-70,21,33,568,2530,-7696,1745188673344125552
386848,-56,19,32,653,2570,-7714,1745188673344125552
387040,-41,8,38,712,2577,-7701,1745188673344125552
387232,-26,8,29,603,2671,-7741,1745188673344125552
387424,-8,14,24,494,2739,-7726,1745188673344125552
387616,11,33,28,445,2707,-7723,1745188673344125552
387808,23,49,22,503,2601,-7696,1745188673344125552
388000,32,67,14,569,2524,-7737,1745188673344125552
388192,40,74,9,597,2453,-7730,1745188673344125552
388384,42,82,5,528,2409,-7742,1745188673344125552
388576,39,89,1,487,2400,-7772,1745188673400284154
388768,35,99,-3,492,2292,-7748,1745188673400284154
388960,26,91,-7,834,1910,-7455,1745188673400284154
389152,-51,194,-49,-1454,386,-7931,1745188673400284154
389344,-71,342,-99,-235,1843,-8094,1745188673400284154
389536,-74,331,39,1126,2575,-7815,1745188673400284154
389728,-118,314,1,1454,2342,-7806,1745188673400284154
389920,-111,243,-42,1413,2321,-7820,1745188673400284154
390112,-124,182,-39,1268,2223,-7811,1745188673400284154
390304,-134,125,-44,1031,2192,-7743,1745188673400284154
390496,-136,85,-54,936,2179,-7726,1745188673400284154
390688,-141,61,-60,997,2338,-7707,1745188673400284154
390880,-130,22,-55,941,2577,-7587,1745188673462149266
391072,-111,0,-50,737,2767,-7670,1745188673462149266
391264,-89,-4,-46,563,2777,-7666,1745188673462149266
391456,-70,4,-41,528,2734,-7663,1745188673462149266
391648,-53,14,-33,596,2682,-7656,1745188673462149266
391840,-36,18,-27,727,2611,-7692,1745188673462149266
392032,-24,14,-24,801,2525,-7682,1745188673462149266
392224,-15,4,-26,814,2419,-7714,1745188673462149266
392416,-13,-6,-28,774,2319,-7724,1745188673462149266
392608,-14,-17,-26,720,2264,-7721,1745188673462149266
392800,-16,-23,-24,653,2237,-7745,1745188673462149266
392992,-22,-23,-23,625,2274,-7771,1745188673462149266
393184,-31,-21,-22,646,2335,-7791,1745188673516694445
393376,-39,-20,-21,644,2366,-7781,1745188673516694445
393568,-45,-19,-20,652,2337,-7767,1745188673516694445
393760,-50,-19,-18,656,2313,-7764,1745188673516694445
393952,-56,-19,-17,633,2308,-7748,1745188673516694445
394144,-59,-18,-14,627,2335,-7747,1745188673516694445
394336,-63,-15,-12,628,2349,-7746,1745188673516694445
394528,-65,-12,-10,635,2395,-7736,1745188673516694445
394720,-64,-11,-8,661,2407,-7729,1745188673516694445
394912,-60,-8,-5,676,2411,-7729,1745188673516694445
395104,-56,-8,-3,678,2403,-7706,1745188673516694445
395296,-53,-8,-2,680,2393,-7726,1745188673516694445
395488,-52,-10,-1,716,2386,-7748,1745188673577992999
395680,-56,-12,-3,756,2365,-7748,1745188673577992999
395872,-61,-18,-6,768,2360,-7765,1745188673577992999
396064,-67,-26,-9,769,2356,-7778,1745188673577992999
396256,-75,-34,-14,759,2340,-7778,1745188673577992999
396448,-84,-36,-19,752,2303,-7824,1745188673577992999
396640,-97,-52,-25,754,2362,-7820,1745188673577992999
396832,-106,-57,-26,732,2332,-7790,1745188673577992999
397024,-117,-66,-30,699,2276,-7798,1745188673577992999
397216,-121,-70,-30,717,2223,-7858,1745188673577992999
397408,-143,-77,-33,680,2180,-7757,1745188673577992999
397600,-164,-74,-29,667,2191,-7860,1745188673577992999
397792,-180,-76,-23,666,2211,-7802,1745188673640669979
397984,-197,-76,-13,715,2160,-7879,1745188673640669979
398176,-214,-83,-15,805,2173,-7903,1745188673640669979
398368,-245,-89,-15,843,2188,-7836,1745188673640669979
398560,-270,-98,-13,828,2210,-7839,1745188673640669979
398752,-294,-112,-20,764,2117,-7827,1745188673640669979
398944,-313,-111,-11,707,2102,-7797,1745188673640669979
399136,-352,-124,-37,628,2393,-7856,1745188673640669979
399328,-366,-109,-45,688,2526,-7858,1745188673640669979
399520,-379,-119,-50,736,2531,-7804,1745188673640669979
399712,-395,-115,-43,723,2458,-7747,1745188673640669979
399904,-409,-130,-29,727,2348,-7800,1745188673640669979
400096,-427,-134,-31,653,2216,-7721,1745188673693096635
400288,-456,-138,-54,601,2472,-7805,1745188673693096635
400480,-466,-128,-51,628,2523,-7757,1745188673693096635
400672,-477,-139,-36,604,2564,-7729,1745188673693096635
400864,-483,-142,-33,527,2531,-7750,1745188673693096635
401056,-495,-107,-52,536,2633,-7668,1745188673693096635
401248,-504,-41,-164,435,2693,-7605,1745188673693096635
401440,-501,-37,-202,367,2730,-7618,1745188673693096635
401632,-490,-62,-137,390,2843,-7523,1745188673693096635
401824,-474,-82,-81,358,2994,-7507,1745188673693096635
402016,-458,-65,-40,428,3200,-7465,1745188673693096635
402208,-432,-52,-48,541,3261,-7441,1745188673693096635
402400,-385,-45,-46,636,3336,-7366,1745188673756466577
402592,-345,-60,-6,635,3347,-7311,1745188673756466577
402784,-314,-74,56,647,3379,-7343,1745188673756466577
402976,-262,-86,107,700,3470,-7303,1745188673756466577
403168,-214,-81,138,724,3533,-7353,1745188673756466577
403360,-179,-66,160,740,3649,-7305,1745188673756466577
403552,-144,-37,177,765,3864,-7214,1745188673756466577
403744,-104,-31,178,610,3816,-7250,1745188673756466577
403936,-59,-55,161,417,3492,-7402,1745188673756466577
404128,-22,-57,168,217,3269,-7358,1745188673756466577
404320,1,-37,184,122,3140,-7500,1745188673756466577
404512,8,20,207,235,3095,-7664,1745188673756466577
404704,-1,71,209,380,3128,-7659,1745188673815809212
404896,-37,57,178,675,2991,-7860,1745188673815809212
405088,-78,21,150,562,3004,-7284,1745188673815809212
405280,-54,25,143,380,3114,-7387,1745188673815809212
405472,-36,27,120,294,3156,-7323,1745188673815809212
405664,-15,33,107,250,3157,-7340,1745188673815809212
405856,-10,45,109,267,3126,-7404,1745188673815809212
406048,9,43,100,221,2963,-7422,1745188673815809212
406240,15,66,95,251,2878,-7501,1745188673815809212
406432,13,72,82,323,2876,-7519,1745188673815809212
406624,4,57,56,411,2872,-7601,1745188673815809212
406816,-1,56,42,383,2857,-7496,1745188673815809212
407008,1,63,34,429,2957,-7582,1745188673869256380
407200,-4,57,13,431,3020,-7546,1745188673869256380
407392,1,50,-2,421,3035,-7520,1745188673869256380
407584,6,51,-2,408,3056,-7473,1745188673869256380
407776,11,44,0,410,3065,-7490,1745188673869256380
407968,13,42,4,446,3017,-7518,1745188673869256380
408160,11,44,11,514,2931,-7588,1745188673869256380
408352,1,52,21,577,2868,-7674,1745188673869256380
408544,-12,55,31,640,2838,-7701,1745188673869256380
408736,-26,52,37,673,2857,-7658,1745188673869256380
408928,-35,38,29,630,2835,-7594,1745188673869256380
409120,-42,31,24,605,2846,-7538,1745188673869256380
409312,-52,29,24,613,2854,-7530,1745188673931928047
409504,-66,38,38,700,2923,-7587,1745188673931928047
409696,-70,42,51,734,3027,-7552,1745188673931928047
409888,-71,35,58,699,3079,-7493,1745188673931928047
410080,-68,29,66,666,3115,-7446,1745188673931928047
410272,-60,22,72,593,3065,-7408,1745188673931928047
410464,-52,16,76,529,2964,-7423,1745188673931928047
410656,-49,15,82,501,2870,-7448,1745188673931928047
410848,-51,15,81,517,2839,-7494,1745188673931928047
411040,-55,13,70,566,2827,-7518,1745188673931928047
411232,-61,9,48,591,2848,-7552,1745188673931928047
411424,-69,5,27,629,2879,-7544,1745188673931928047
411616,-77,2,11,644,2914,-7534,1745188673988138836
411808,-85,-2,-3,663,2935,-7529,1745188673988138836
412000,-91,-7,-12,655,2954,-7523,1745188673988138836
412192,-91,-13,-21,630,2976,-7508,1745188673988138836
412384,-90,-15,-28,585,2985,-7498,1745188673988138836
412576,-89,-16,-30,542,3020,-7490,1745188673988138836
412768,-84,-15,-30,512,3045,-7501,1745188673988138836
412960,-104,-29,-27,694,2697,-7737,1745188673988138836
413152,-117,-62,8,550,2783,-7333,1745188673988138836
413344,-101,-46,14,440,3125,-7407,1745188673988138836
413536,-89,-21,-32,465,3392,-7363,1745188673988138836
413728,-65,-6,-53,468,3485,-7411,1745188673988138836
413920,-38,-7,-31,530,3443,-7412,1745188674043786765
414112,-11,-7,-19,567,3287,-7418,1745188674043786765
414304,7,-6,-18,557,3162,-7411,1745188674043786765
414496,21,-7,-17,545,3092,-7407,1745188674043786765
414688,30,-5,-15,578,3074,-7413,1745188674043786765
414880,36,-4,-14,580,3065,-7438,1745188674043786765
415072,39,-4,-14,605,3075,-7477,1745188674043786765
415264,39,-5,-10,606,3026,-7530,1745188674043786765
415456,35,-6,-11,610,2984,-7548,1745188674043786765
415648,29,-8,-12,630,2951,-7568,1745188674043786765
415840,20,-10,-14,639,2909,-7561,1745188674043786765
416032,9,-13,-17,653,2904,-7589,1745188674043786765
416224,-20,-24,-12,691,2355,-7846,1745188674109492415
416416,-56,-55,32,664,2528,-7452,1745188674109492415
416608,-73,-46,12,570,2961,-7610,1745188674109492415
416800,-82,-29,-34,603,3126,-7550,1745188674109492415
416992,-84,-29,-35,642,3053,-7576,1745188674109492415
417184,-91,-44,-11,592,3068,-7597,1745188674109492415
417376,-101,-50,-11,548,3077,-7565,1745188674109492415
417568,-100,-44,-22,509,3030,-7531,1745188674109492415
417760,-102,-41,-22,489,3054,-7503,1745188674109492415
417952,-106,-39,-19,495,3147,-7483,1745188674109492415
418144,-101,-36,-18,457,3115,-7455,1745188674109492415
418336,-97,-35,-2,423,3133,-7463,1745188674109492415
418528,-100,-31,-3,405,3235,-7413,1745188674163638795
418720,-88,-17,-15,450,3310,-7404,1745188674163638795
418912,-73,-8,-17,499,3373,-7406,1745188674163638795
419104,-56,-6,-16,517,3339,-7413,1745188674163638795
419296,-39,-7,-9,526,3388,-7432,1745188674163638795
419488,-23,-7,-14,509,3413,-7424,1745188674163638795
419680,-1,-1,-14,500,3379,-7408,1745188674163638795
419872,13,2,-13,507,3436,-7395,1745188674163638795
420064,31,5,-23,505,3408,-7372,1745188674163638795
420256,55,9,-18,533,3297,-7377,1745188674163638795
420448,69,6,-9,498,3209,-7403,1745188674163638795
420640,78,7,-9,467,3217,-7431,1745188674163638795
420832,86,13,-11,448,3218,-7447,1745188674224466365
421024,93,18,-12,459,3207,-7460,1745188674224466365
421216,97,24,-14,468,3211,-7462,1745188674224466365
421408,103,28,-18,488,3180,-7460,1745188674224466365
421600,123,35,14,329,2387,-7340,1745188674224466365
421792,121,40,71,267,2405,-7432,1745188674224466365
421984,88,53,66,80,2569,-7569,1745188674224466365
422176,51,88,53,155,2934,-7506,1745188674224466365
422368,44,128,39,385,3194,-7489,1745188674224466365
422560,49,142,30,666,3302,-7447,1745188674224466365
422752,70,138,31,890,3425,-7485,1745188674224466365
422944,92,115,32,968,3490,-7457,1745188674224466365
423136,117,89,26,938,3474,-7481,1745188674280656789
423328,141,65,15,858,3505,-7489,1745188674280656789
423520,165,50,-1,746,3479,-7539,1745188674280656789
423712,184,43,-12,613,3395,-7617,1745188674280656789
423904,191,43,-19,504,3253,-7667,1745188674280656789
424096,191,49,-25,435,2995,-7663,1745188674280656789
424288,178,63,-27,383,2760,-7822,1745188674280656789
424480,148,74,-22,327,2489,-7795,1745188674280656789
424672,112,93,-11,290,2286,-7747,1745188674280656789
424864,73,112,-2,287,2221,-7722,1745188674280656789
425056,36,136,16,225,2099,-7685,1745188674280656789
425248,-6,161,46,88,2132,-7734,1745188674280656789
425440,-48,196,75,-54,2207,-7741,1745188674342020864
425632,-86,245,111,-301,2272,-7686,1745188674342020864
425824,-115,315,146,-446,2378,-7637,1745188674342020864
426016,-148,395,176,-398,2558,-7718,1745188674342020864
426208,-191,471,167,445,2787,-7900,1745188674342020864
426400,-236,509,95,1196,2919,-7957,1745188674342020864
426592,-277,476,64,1675,2919,-7975,1745188674342020864
426784,-316,398,48,1840,2874,-7921,1745188674342020864
426976,-354,318,17,1753,2805,-7869,1745188674342020864
427168,-391,247,-11,1498,2747,-7826,1745188674342020864
427360,-426,198,-29,1146,2735,-7769,1745188674342020864
427552,-456,180,-37,824,2783,-7711,1745188674342020864
427744,-481,194,-42,624,2867,-7693,1745188674397062600
427936,-505,253,-84,633,2968,-7657,1745188674397062600
428128,-509,294,-142,635,3024,-7775,1745188674397062600
428320,-520,297,-124,735,3044,-7851,1745188674397062600
428512,-543,307,-91,826,3037,-8021,1745188674397062600
428704,-572,306,-85,894,2962,-8126,1745188674397062600
428896,-621,322,-102,936,2794,-8236,1745188674397062600
429088,-685,339,-129,1012,2597,-8422,1745188674397062600
429280,-764,352,-165,1108,2404,-8660,1745188674397062600
429472,-860,367,-197,1224,2236,-8787,1745188674397062600
429664,-985,414,-187,1442,1959,-8918,1745188674397062600
429856,-1152,464,-191,1773,1540,-9244,1745188674397062600
430048,-1402,474,-311,2332,904,-9922,1745188674471934364
430240,-1761,558,-601,2629,51,-10444,1745188674471934364
430432,-2140,546,-894,2737,-361,-10043,1745188674471934364
430624,-2433,376,-1033,2673,-204,-10284,1745188674471934364
430816,-2844,304,-1000,2683,48,-10590,1745188674471934364
431008,-3350,287,-895,2823,265,-10647,1745188674471934364
431200,-3833,264,-834,2969,701,-10323,1745188674471934364
431392,-4313,240,-853,3188,1448,-10093,1745188674471934364
431584,-4667,201,-921,3218,2497,-9888,1745188674471934364
431776,-4912,209,-988,3226,3950,-9389,1745188674471934364
431968,-5103,241,-1035,3345,5438,-9015,1745188674471934364
432160,-5200,275,-1064,3525,6910,-8671,1745188674471934364
432352,-5172,276,-1076,3787,8357,-8242,1745188674513884398
432544,-5034,249,-1080,4015,9706,-7854,1745188674513884398
432736,-4824,217,-1073,4183,10901,-7651,1745188674513884398
432928,-4560,154,-1054,4313,11823,-7336,1745188674513884398
433120,-4228,89,-1009,4409,12270,-7179,1745188674513884398
433312,-3710,18,-933,4355,12383,-7616,1745188674513884398
433504,-3087,-77,-825,4191,12498,-8290,1745188674513884398
433696,-2597,-109,-720,3990,12356,-7869,1745188674513884398
433888,-2226,-97,-674,3954,11707,-8264,1745188674513884398
434080,-1903,-114,-676,3928,10737,-8716,1745188674513884398
434272,-1647,-143,-663,3800,9709,-8617,1745188674513884398
434464,-1443,-171,-610,3708,8671,-8792,1745188674513884398
434656,-1248,-223,-546,3697,7905,-9219,1745188674576051538
434848,-1088,-282,-491,3649,7456,-9584,1745188674576051538
435040,-960,-336,-444,3568,7235,-9818,1745188674576051538
435232,-825,-384,-399,3457,7118,-9995,1745188674576051538
435424,-682,-429,-359,3349,6993,-10318,1745188674576051538
435616,-524,-466,-317,3262,6723,-10870,1745188674576051538
435808,-359,-499,-263,3224,6292,-11444,1745188674576051538
436000,-204,-526,-188,3259,5734,-11977,1745188674576051538
436192,-90,-542,-86,3347,4998,-12533,1745188674576051538
436384,-31,-567,36,3505,4208,-13216,1745188674576051538
436576,-15,-609,166,3698,3469,-13840,1745188674576051538
436768,-33,-673,298,3907,2897,-14287,1745188674576051538
436960,-83,-756,427,4064,2510,-14633,1745188674639844966
437152,-155,-853,558,4268,2324,-14913,1745188674639844966
437344,-250,-974,692,4447,2232,-14977,1745188674639844966
437536,-353,-1103,820,4648,2280,-14752,1745188674639844966
437728,-468,-1252,938,4824,2366,-14166,1745188674639844966
437920,-573,-1408,1045,4953,2525,-13188,1745188674639844966
438112,-646,-1562,1144,5023,2763,-11895,1745188674639844966
438304,-666,-1733,1235,5040,2973,-10678,1745188674639844966
438496,-632,-1937,1319,5050,3177,-9688,1745188674639844966
438688,-562,-2181,1380,5071,3321,-8960,1745188674639844966
438880,-493,-2399,1455,5130,3301,-8612,1745188674639844966
439072,-438,-2563,1546,5255,3204,-8290,1745188674639844966
439264,-395,-2696,1642,5388,3115,-7782,1745188674690198464
439456,-356,-2845,1715,5575,2993,-7314,1745188674690198464
439648,-322,-3107,1662,5626,2966,-6731,1745188674690198464
439840,-328,-3293,1640,5852,3042,-6565,1745188674690198464
440032,-350,-3312,1714,6191,3148,-6359,1745188674690198464
440224,-414,-3354,1825,6623,3317,-5854,1745188674690198464
440416,-495,-3475,1904,7103,3495,-5427,1745188674690198464
440608,-589,-3615,1954,7583,3755,-5059,1745188674690198464
440800,-704,-3775,1972,8066,4021,-4742,1745188674690198464
440992,-827,-3944,1971,8527,4265,-4604,1745188674690198464
441184,-932,-4110,1975,8979,4553,-4367,1745188674690198464
441376,-1024,-4277,1990,9487,4848,-4099,1745188674690198464
441568,-1131,-4448,1990,10009,5081,-3739,1745188674752178054
441760,-1267,-4628,1956,10484,5262,-3202,1745188674752178054
441952,-1439,-4817,1892,10938,5289,-2589,1745188674752178054
442144,-1652,-5021,1809,11344,5215,-1886,1745188674752178054
442336,-1892,-5239,1705,11676,5027,-954,1745188674752178054
442528,-2157,-5470,1589,11926,4814,50,1745188674752178054
442720,-2452,-5714,1461,12115,4539,896,1745188674752178054
442912,-2783,-5959,1319,12206,4234,1616,1745188674752178054
443104,-3155,-6177,1156,12205,4023,2385,1745188674752178054
443296,-3569,-6372,961,12169,3972,3295,1745188674752178054
443488,-3981,-6547,715,12023,4067,4054,1745188674752178054
443680,-4383,-6704,446,11872,4213,4555,1745188674752178054
443872,-4755,-6838,159,11629,4403,5307,1745188674806205425
444064,-5055,-6943,-133,11232,4624,6252,1745188674806205425
444256,-5257,-7020,-415,10778,4880,7088,1745188674806205425
444448,-5374,-7073,-681,10277,5101,7820,1745188674806205425
444640,-5425,-7100,-925,9724,5137,8586,1745188674806205425
444832,-5390,-7102,-1150,9109,5008,9111,1745188674806205425
445024,-5286,-7067,-1361,8404,4743,9148,1745188674806205425
445216,-5142,-6984,-1545,7599,4512,8895,1745188674806205425
445408,-4925,-6848,-1674,6565,4588,8307,1745188674806205425
445600,-4623,-6620,-1742,5591,5148,8047,1745188674806205425
445792,-4281,-6401,-1781,4668,5991,7733,1745188674806205425
445984,-3900,-6203,-1782,3887,6916,7253,1745188674806205425
446176,-3498,-6024,-1760,3159,7594,6616,1745188674880236832
446368,-3062,-5853,-1748,2427,8085,6049,1745188674880236832
446560,-2589,-5667,-1741,1704,8611,5410,1745188674880236832
446752,-2102,-5450,-1715,1089,9047,4900,1745188674880236832
446944,-1596,-5197,-1641,608,9208,4708,1745188674880236832
447136,-1069,-4948,-1494,598,9054,4486,1745188674880236832
447328,-576,-4681,-1309,950,8556,4196,1745188674880236832
447520,-168,-4405,-1127,1603,7805,4129,1745188674880236832
447712,151,-4141,-949,2187,7008,4287,1745188674880236832
447904,380,-3904,-768,2527,6384,4492,1745188674880236832
448096,538,-3682,-592,2498,5914,4935,1745188674880236832
448288,677,-3458,-428,2087,5773,5374,1745188674880236832
448480,804,-3179,-284,1723,5960,5697,1745188674923203367
448672,911,-2887,-164,1542,6448,5905,1745188674923203367
448864,1000,-2626,-77,1574,6855,6034,1745188674923203367
449056,1081,-2408,-13,1797,6992,6219,1745188674923203367
449248,1115,-2249,34,1989,6630,6513,1745188674923203367
449440,1122,-2110,62,1907,6104,6823,1745188674923203367
449632,1089,-1977,77,1547,5700,7135,1745188674923203367
449824,1015,-1851,75,953,5443,7358,1745188674923203367
450016,920,-1729,67,396,5314,7510,1745188674923203367
450208,811,-1631,58,2,5243,7740,1745188674923203367
450400,728,-1518,67,-193,5380,7797,1745188674923203367
450592,656,-1402,89,-158,5827,7719,1745188674923203367
450784,574,-1325,85,-19,6303,7742,1745188674990353431
450976,497,-1285,35,-4,6596,7806,1745188674990353431
451168,446,-1247,-23,-129,6822,7795,1745188674990353431
451360,396,-1213,-61,-431,6962,7696,1745188674990353431
451552,356,-1187,-78,-795,7034,7612,1745188674990353431
451744,342,-1148,-89,-1028,7122,7518,1745188674990353431
451936,349,-1093,-98,-1138,7323,7235,1745188674990353431
452128,374,-1024,-99,-1039,7642,6798,1745188674990353431
452320,407,-970,-97,-791,8004,6500,1745188674990353431
452512,460,-943,-104,-645,8346,6137,1745188674990353431
452704,527,-929,-98,-648,8577,5814,1745188674990353431
452896,574,-927,-94,-758,8575,5613,1745188674990353431
453088,603,-909,-96,-844,8305,5453,1745188675040663857
453280,621,-870,-89,-896,8006,5292,1745188675040663857
453472,622,-840,-71,-975,7784,5122,1745188675040663857
453664,615,-812,-29,-984,7782,5052,1745188675040663857
453856,600,-795,4,-988,7844,5074,1745188675040663857
454048,591,-772,22,-985,7987,5173,1745188675040663857
454240,571,-731,36,-932,8180,5053,1745188675040663857
454432,541,-693,43,-926,8370,4822,1745188675040663857
454624,508,-672,48,-937,8407,4642,1745188675040663857
454816,488,-674,46,-965,8344,4636,1745188675040663857
455008,488,-685,37,-1093,8175,4706,1745188675040663857
455200,490,-694,30,-1300,7943,4721,1745188675040663857
455392,482,-689,28,-1497,7769,4688,1745188675101134085
455584,462,-674,32,-1600,7617,4596,1745188675101134085
455776,450,-655,40,-1574,7568,4508,1745188675101134085
455968,443,-639,38,-1454,7583,4504,1745188675101134085
456160,444,-624,28,-1376,7759,4500,1745188675101134085
456352,443,-605,29,-1371,7977,4451,1745188675101134085
456544,434,-591,31,-1374,8189,4330,1745188675101134085
456736,419,-575,31,-1340,8332,4194,1745188675101134085
456928,398,-565,29,-1241,8346,4155,1745188675101134085
457120,384,-561,20,-1182,8258,4157,1745188675101134085
457312,366,-558,6,-1188,8127,4126,1745188675101134085
457504,343,-548,-3,-1243,8021,4100,1745188675101134085
457696,311,-532,-11,-1315,8001,4071,1745188675158420802
457888,279,-514,-17,-1400,8064,4050,1745188675158420802
458080,250,-492,-16,-1501,8170,4014,1745188675158420802
458272,224,-476,-21,-1553,8184,3935,1745188675158420802
458464,204,-462,-35,-1604,8072,3933,1745188675158420802
458656,196,-436,-47,-1634,7990,3948,1745188675158420802
458848,188,-408,-52,-1684,7950,3949,1745188675158420802
459040,175,-381,-55,-1692,7943,3917,1745188675158420802
459232,165,-357,-62,-1659,7913,3817,1745188675158420802
459424,156,-334,-70,-1644,7861,3728,1745188675158420802
459616,146,-317,-73,-1613,7875,3674,1745188675158420802
459808,139,-301,-69,-1575,7991,3683,1745188675158420802
460000,134,-284,-68,-1550,8070,3664,1745188675217803436
460192,125,-275,-73,-1541,8124,3632,1745188675217803436
460384,125,-265,-78,-1551,8109,3608,1745188675217803436
460576,127,-259,-83,-1583,7976,3613,1745188675217803436
460768,127,-252,-89,-1605,7782,3642,1745188675217803436
460960,122,-238,-92,-1611,7618,3716,1745188675217803436
461152,108,-226,-90,-1577,7531,3808,1745188675217803436
461344,93,-212,-81,-1555,7546,3855,1745188675217803436
461536,84,-197,-72,-1531,7654,3908,1745188675217803436
461728,76,-184,-70,-1529,7792,3924,1745188675217803436
461920,72,-170,-76,-1538,7855,3875,1745188675217803436
462112,69,-152,-85,-1529,7821,3798,1745188675217803436
462304,61,-133,-88,-1526,7764,3723,1745188675276417172
462496,50,-121,-86,-1531,7685,3665,1745188675276417172
462688,40,-109,-79,-1546,7630,3610,1745188675276417172
462880,28,-95,-72,-1573,7619,3573,1745188675276417172
463072,14,-73,-68,-1577,7656,3600,1745188675276417172
463264,-1,-50,-63,-1550,7712,3625,1745188675276417172
463456,-6,-23,-59,-1537,7734,3617,1745188675276417172
463648,-9,7,-56,-1493,7751,3584,1745188675276417172
463840,-15,38,-52,-1402,7749,3539,1745188675276417172
464032,-21,58,-51,-1335,7710,3467,1745188675276417172
464224,-24,72,-52,-1314,7643,3383,1745188675276417172
464416,-25,89,-47,-1357,7577,3341,1745188675276417172
464608,-25,106,-43,-1416,7541,3333,1745188675334661483
464800,-18,125,-44,-1489,7506,3326,1745188675334661483
464992,-3,148,-41,-1514,7503,3321,1745188675334661483
465184,6,173,-38,-1518,7529,3351,1745188675334661483
465376,14,196,-38,-1493,7539,3349,1745188675334661483
465568,20,216,-39,-1481,7544,3385,1745188675334661483
465760,27,234,-37,-1484,7539,3405,1745188675334661483
465952,32,257,-30,-1484,7588,3411,1745188675334661483
466144,32,280,-25,-1484,7646,3404,1745188675334661483
466336,30,303,-25,-1465,7681,3327,1745188675334661483
466528,21,324,-28,-1458,7635,3231,1745188675334661483
466720,15,342,-29,-1417,7575,3133,1745188675334661483
466912,12,362,-22,-1385,7567,3027,1745188675397398931
467104,7,380,-13,-1337,7589,2900,1745188675397398931
467296,-2,399,-9,-1304,7569,2785,1745188675397398931
467488,-13,417,-13,-1283,7546,2645,1745188675397398931
467680,-18,429,-14,-1268,7542,2572,1745188675397398931
467872,-16,440,-7,-1272,7541,2531,1745188675397398931
468064,-14,447,-2,-1302,7492,2482,1745188675397398931
468256,-9,457,0,-1329,7447,2482,1745188675397398931
468448,-4,471,5,-1361,7422,2459,1745188675397398931
468640,0,484,12,-1364,7435,2476,1745188675397398931
468832,5,500,21,-1334,7491,2508,1745188675397398931
469024,16,517,29,-1309,7606,2504,1745188675397398931
469216,27,530,32,-1298,7679,2506,1745188675451285835
469408,39,540,31,-1302,7701,2511,1745188675451285835
469600,57,548,31,-1315,7706,2487,1745188675451285835
469792,76,556,34,-1357,7716,2484,1745188675451285835
469984,94,566,39,-1373,7732,2425,1745188675451285835
470176,110,578,41,-1414,7747,2356,1745188675451285835
470368,119,587,38,-1420,7728,2316,1745188675451285835
470560,125,596,35,-1430,7681,2285,1745188675451285835
470752,129,604,35,-1438,7637,2234,1745188675451285835
470944,132,609,37,-1435,7582,2190,1745188675451285835
471136,135,612,40,-1427,7572,2166,1745188675451285835
471328,140,616,41,-1466,7573,2157,1745188675451285835
471520,142,621,40,-1482,7560,2128,1745188675511445546
471712,133,624,38,-1505,7505,2083,1745188675511445546
471904,118,631,33,-1520,7467,2017,1745188675511445546
472096,93,640,34,-1504,7428,2007,1745188675511445546
472288,65,648,42,-1465,7419,2006,1745188675511445546
472480,47,651,51,-1441,7465,2024,1745188675511445546
472672,41,653,62,-1428,7504,2074,1745188675511445546
472864,50,653,73,-1439,7575,2099,1745188675511445546
473056,67,653,80,-1469,7619,2129,1745188675511445546
473248,87,652,83,-1503,7628,2162,1745188675511445546
473440,107,654,84,-1540,7608,2248,1745188675511445546
473632,129,659,88,-1542,7589,2355,1745188675511445546
473824,156,668,96,-1507,7584,2451,1745188675566081349
474016,192,675,106,-1445,7677,2553,1745188675566081349
474208,237,682,113,-1423,7865,2639,1745188675566081349
474400,286,688,114,-1377,8052,2686,1745188675566081349
474592,335,697,110,-1360,8222,2665,1745188675566081349
474784,378,710,104,-1312,8299,2572,1745188675566081349
474976,409,716,97,-1258,8264,2455,1745188675566081349
475168,431,714,90,-1246,8190,2376,1745188675566081349
475360,445,708,89,-1273,8088,2345,1745188675566081349
475552,453,707,96,-1306,8022,2343,1745188675566081349
475744,453,713,103,-1377,8040,2344,1745188675566081349
475936,444,728,105,-1423,8125,2342,1745188675566081349
476128,434,751,99,-1429,8275,2364,1745188675626496942
476320,434,776,92,-1422,8398,2388,1745188675626496942
476512,450,798,81,-1440,8482,2410,1745188675626496942
476704,480,814,73,-1463,8589,2461,1745188675626496942
476896,526,832,72,-1481,8707,2497,1745188675626496942
477088,583,855,74,-1491,8852,2532,1745188675626496942
477280,650,883,71,-1463,9057,2598,1745188675626496942
477472,731,915,62,-1439,9260,2660,1745188675626496942
477664,832,949,49,-1385,9507,2732,1745188675626496942
477856,949,979,33,-1333,9638,2842,1745188675626496942
478048,1069,1004,11,-1300,9612,2939,1745188675626496942
478240,1177,1021,-16,-1327,9497,2899,1745188675626496942
478432,1274,1038,-42,-1360,9444,2869,1745188675702126304
478624,1358,1063,-52,-1426,9492,2862,1745188675702126304
478816,1434,1089,-57,-1494,9651,2869,1745188675702126304
479008,1508,1120,-66,-1588,9909,2853,1745188675702126304
479200,1595,1155,-85,-1670,10223,2779,1745188675702126304
479392,1694,1200,-111,-1718,10521,2738,1745188675702126304
479584,1796,1244,-135,-1713,10727,2711,1745188675702126304
479776,1895,1281,-155,-1660,10768,2767,1745188675702126304
479968,1990,1313,-170,-1616,10686,2833,1745188675702126304
480160,2082,1329,-184,-1584,10651,2882,1745188675702126304
480352,2171,1375,-202,-1572,10667,2868,1745188675702126304
480544,2251,1416,-219,-1544,10720,2866,1745188675702126304
480736,2324,1456,-241,-1504,10849,2856,1745188675741437924
480928,2378,1490,-262,-1478,10856,2800,1745188675741437924
481120,2404,1522,-295,-1420,10737,2706,1745188675741437924
481312,2402,1553,-334,-1397,10483,2644,1745188675741437924
481504,2379,1584,-366,-1379,10219,2625,1745188675741437924
481696,2331,1622,-394,-1341,10082,2575,1745188675741437924
481888,2249,1670,-419,-1287,9996,2516,1745188675741437924
482080,2147,1722,-455,-1221,9975,2456,1745188675741437924
482272,2042,1776,-498,-1106,9965,2420,1745188675741437924
482464,1952,1829,-546,-966,9966,2398,1745188675741437924
482656,1879,1881,-595,-825,9913,2375,1745188675741437924
482848,1819,1929,-645,-663,9821,2364,1745188675741437924
483040,1775,1973,-691,-500,9655,2356,1745188675804446463
483232,1744,2019,-737,-341,9435,2310,1745188675804446463
483424,1724,2066,-790,-195,9269,2267,1745188675804446463
483616,1709,2119,-843,-45,9093,2169,1745188675804446463
483808,1695,2185,-894,190,9035,1985,1745188675804446463
484000,1687,2264,-947,519,9039,1756,1745188675804446463
484192,1682,2348,-1009,859,9086,1534,1745188675804446463
484384,1693,2425,-1073,1205,9116,1332,1745188675804446463
484576,1723,2480,-1134,1506,9062,1230,1745188675804446463
484768,1778,2515,-1195,1726,8994,1090,1745188675804446463
484960,1854,2537,-1258,1853,8901,911,1745188675804446463
485152,1931,2558,-1328,1908,8799,731,1745188675804446463
485344,2000,2584,-1407,1908,8651,540,1745188675862069374
485536,2058,2611,-1491,1899,8463,413,1745188675862069374
485728,2109,2645,-1581,1894,8194,371,1745188675862069374
485920,2160,2684,-1679,1902,7934,400,1745188675862069374
486112,2199,2730,-1778,1968,7672,532,1745188675862069374
486304,2223,2781,-1880,2054,7494,663,1745188675862069374
486496,2244,2838,-1982,2224,7336,753,1745188675862069374
486688,2254,2908,-2088,2453,7247,827,1745188675862069374
486880,2257,2969,-2189,2702,7158,872,1745188675862069374
487072,2266,3028,-2286,3038,7114,798,1745188675862069374
487264,2273,3079,-2380,3331,7129,629,1745188675862069374
487456,2281,3125,-2468,3646,7182,464,1745188675862069374
487648,2313,3167,-2540,3920,7311,357,1745188675916887988
487840,2380,3199,-2596,4169,7431,309,1745188675916887988
488032,2472,3209,-2645,4347,7519,284,1745188675916887988
488224,2582,3201,-2698,4469,7559,242,1745188675916887988
488416,2701,3185,-2759,4517,7534,238,1745188675916887988
488608,2821,3176,-2821,4557,7440,234,1745188675916887988
488800,2925,3178,-2883,4592,7276,234,1745188675916887988
488992,3008,3195,-2941,4668,7043,300,1745188675916887988
489184,3088,3217,-2990,4800,6752,484,1745188675916887988
489376,3169,3247,-3029,5028,6549,681,1745188675916887988
489568,3239,3282,-3063,5292,6439,806,1745188675916887988
489760,3289,3315,-3098,5656,6381,775,1745188675916887988
489952,3323,3334,-3135,6151,6370,640,1745188675986036575
490144,3361,3339,-3168,6733,6380,462,1745188675986036575
490336,3414,3325,-3189,7392,6423,72,1745188675986036575
490528,3486,3291,-3196,8072,6499,-752,1745188675986036575
490720,3564,3234,-3196,8734,6456,-1852,1745188675986036575
490912,3646,3155,-3197,9287,6260,-2671,1745188675986036575
491104,3747,3073,-3200,9584,5786,-3198,1745188675986036575
491296,3885,2980,-3203,9622,5078,-3439,1745188675986036575
491488,4060,2864,-3216,9353,4051,-3384,1745188675986036575
491680,4247,2724,-3247,8891,2814,-3365,1745188675986036575
491872,4425,2558,-3305,8352,1493,-3073,1745188675986036575
492064,4568,2356,-3373,7766,273,-2561,1745188675986036575
492256,4654,2147,-3438,7104,-860,-2143,1745188676035122585
492448,4654,1958,-3499,6390,-1843,-2011,1745188676035122585
492640,4557,1784,-3555,5616,-2740,-2094,1745188676035122585
492832,4390,1623,-3603,4871,-3433,-2164,1745188676035122585
493024,4166,1490,-3620,4267,-4120,-2177,1745188676035122585
493216,3893,1380,-3597,3696,-4712,-2512,1745188676035122585
493408,3578,1281,-3545,3229,-5231,-2967,1745188676035122585
493600,3226,1207,-3469,2844,-5617,-3552,1745188676035122585
493792,2854,1156,-3373,2516,-5887,-4393,1745188676035122585
493984,2503,1107,-3250,2291,-6043,-5237,1745188676035122585
494176,2209,1067,-3110,2151,-6069,-6191,1745188676035122585
494368,1988,1024,-2967,2075,-6006,-7029,1745188676035122585
494560,1816,996,-2835,1976,-5932,-7759,1745188676108660767
494752,1670,986,-2713,1877,-5948,-8658,1745188676108660767
494944,1530,1002,-2607,1877,-6124,-9515,1745188676108660767
495136,1382,1001,-2507,1961,-6403,-10101,1745188676108660767
495328,1224,998,-2398,2131,-6743,-10427,1745188676108660767
495520,1059,982,-2288,2293,-7024,-10556,1745188676108660767
495712,874,976,-2180,2315,-7194,-10614,1745188676108660767
495904,661,1007,-2080,2210,-7233,-10576,1745188676108660767
496096,427,1060,-1991,2063,-7137,-10504,1745188676108660767
496288,193,1114,-1916,1936,-6847,-10533,1745188676108660767
496480,-11,1161,-1821,1866,-6344,-10533,1745188676108660767
496672,-176,1205,-1696,1895,-5767,-10501,1745188676108660767
496864,-313,1251,-1556,1963,-5244,-10240,1745188676156980586
497056,-423,1298,-1414,2133,-4841,-10075,1745188676156980586
497248,-511,1337,-1274,2342,-4472,-10058,1745188676156980586
497440,-580,1355,-1140,2607,-4243,-10305,1745188676156980586
497632,-624,1364,-1004,2890,-4139,-10560,1745188676156980586
497824,-637,1392,-857,3230,-4177,-10706,1745188676156980586
498016,-628,1431,-711,3630,-4252,-10778,1745188676156980586
498208,-623,1467,-591,4109,-4340,-10741,1745188676156980586
498400,-643,1478,-513,4490,-4318,-10610,1745188676156980586
498592,-687,1475,-442,4809,-4183,-10382,1745188676156980586
498784,-749,1454,-375,5065,-4055,-10016,1745188676156980586
498976,-816,1438,-328,5224,-3909,-9606,1745188676156980586
499168,-885,1427,-307,5302,-3705,-9181,1745188676210299266
499360,-965,1417,-311,5360,-3591,-8692,1745188676210299266
499552,-1057,1408,-320,5304,-3550,-8218,1745188676210299266
499744,-1157,1405,-305,5218,-3481,-7743,1745188676210299266
499936,-1269,1413,-262,5102,-3230,-7207,1745188676210299266
500128,-1387,1443,-204,4988,-2759,-6677,1745188676210299266
500320,-1499,1477,-164,4932,-2259,-6321,1745188676210299266
500512,-1582,1511,-162,4928,-1657,-6211,1745188676210299266
500704,-1616,1558,-168,4999,-1005,-6180,1745188676210299266
500896,-1597,1615,-160,5145,-370,-6205,1745188676210299266
501088,-1557,1681,-132,5287,140,-7287,1745188676210299266
501280,-1344,1834,-181,5843,713,-3586,1745188676210299266
501472,-1052,1962,-377,5980,1467,-5690,1745188676278165781
501664,-1035,1895,-369,6706,234,-8930,1745188676278165781
501856,-1048,1855,-61,7310,-2002,-8718,1745188676278165781
502048,-1244,1727,369,7999,-4582,-21937,1745188676278165781
502240,-2166,1043,818,10469,-9467,-27486,1745188676278165781
502432,-3123,582,1176,14399,-13699,-29527,1745188676278165781
502624,-3758,195,1438,20090,-12005,-31423,1745188676278165781
502816,-3916,-339,1415,23862,-4264,-28315,1745188676278165781
503008,-3457,-1057,800,22006,3243,-19796,1745188676278165781
503200,-3015,-1892,-383,15681,7387,-11277,1745188676278165781
503392,-2451,-2407,-1593,8816,7904,-5615,1745188676278165781
503584,-1627,-2329,-2303,3362,7014,-2865,1745188676278165781
503776,-766,-1921,-2396,-272,6036,-2049,1745188676326390549
503968,-254,-1590,-2059,-2094,4501,-3029,1745188676326390549
504160,-134,-1300,-1465,-3268,2488,-3709,1745188676326390549
504352,-367,-939,-756,-3256,748,-4482,1745188676326390549
504544,-824,-555,-118,-1852,89,-5487,1745188676326390549
504736,-1341,-248,343,487,391,-6393,1745188676326390549
504928,-1598,-102,573,2976,1984,-7616,1745188676326390549
505120,-1506,-192,506,5176,3916,-9114,1745188676326390549
505312,-1434,-336,196,6298,5533,-8936,1745188676326390549
505504,-1247,-514,-133,6481,6299,-9345,1745188676326390549
505696,-898,-812,-326,4948,6976,-8476,1745188676326390549
505888,-691,-1018,-436,2588,7172,-7143,1745188676326390549
506080,-486,-963,-526,451,6831,-6851,1745188676386669113
506272,-223,-814,-519,-1125,6491,-6826,1745188676386669113
506464,25,-663,-377,-2058,6416,-7008,1745188676386669113
506656,237,-497,-175,-2425,6252,-7231,1745188676386669113
506848,403,-298,-12,-2248,5825,-7406,1745188676386669113
507040,525,-106,71,-1611,5151,-7633,1745188676386669113
507232,609,43,100,-709,4289,-7840,1745188676386669113
507424,643,147,106,228,3400,-7944,1745188676386669113
507616,633,209,105,1019,2631,-8014,1745188676386669113
507808,595,215,105,1569,2122,-7991,1745188676386669113
508000,544,185,99,1801,1814,-7867,1745188676386669113
508192,489,147,94,1799,1712,-7703,1745188676386669113
508384,438,120,101,1649,1806,-7605,1745188676447218508
508576,390,108,134,1472,1964,-7572,1745188676447218508
508768,345,115,174,1371,2137,-7504,1745188676447218508
508960,302,131,188,1405,2285,-7726,1745188676447218508
509152,286,131,160,1471,2393,-7656,1745188676447218508
509344,244,158,160,1672,2429,-7548,1745188676447218508
509536,181,185,155,1956,2395,-7427,1745188676447218508
509728,158,180,144,2189,2421,-7311,1745188676447218508
509920,163,142,115,2277,2565,-7284,1745188676447218508
510112,185,103,84,2233,2748,-7386,1745188676447218508
510304,196,66,47,2070,2862,-7417,1745188676447218508
510496,201,61,31,1980,2774,-7401,1745188676447218508
510688,190,63,24,1979,2693,-6995,1745188676502039205
510880,199,62,28,2090,2661,-7293,1745188676502039205
511072,209,54,41,2207,2780,-7181,1745188676502039205
511264,195,69,59,2400,2915,-7128,1745188676502039205
511456,215,47,61,2461,3089,-7230,1745188676502039205
511648,232,15,57,2456,3149,-7347,1745188676502039205
511840,244,-23,51,2306,2979,-7430,1745188676502039205
512032,264,-61,42,2074,2786,-7579,1745188676502039205
512224,273,-33,49,1907,2830,-7086,1745188676502039205
512416,233,-80,46,1711,2494,-7908,1745188676502039205
512608,270,-119,49,1425,2248,-7563,1745188676502039205
512800,264,-127,61,1107,2152,-7657,1745188676502039205
512992,283,-146,53,789,2236,-7612,1745188676561950064
513184,288,-116,68,623,2462,-7767,1745188676561950064
513376,308,-109,79,506,2701,-7713,1745188676561950064
513568,325,-58,95,511,2918,-7689,1745188676561950064
513760,368,-33,84,567,3066,-7821,1745188676561950064
513952,399,2,85,692,3083,-7749,1745188676561950064
514144,426,31,88,808,2926,-7801,1745188676561950064
514336,447,64,86,986,2699,-7784,1745188676561950064
514528,465,76,75,1128,2450,-7859,1745188676561950064
514720,468,90,68,1245,2217,-7795,1745188676561950064
514912,456,102,70,1372,1982,-7786,1745188676561950064
515104,440,112,68,1636,1582,-7975,1745188676561950064
515296,405,141,-16,1952,1220,-7416,1745188676620908119
515488,380,98,-16,1860,1661,-7696,1745188676620908119
515680,336,62,54,1732,2079,-7776,1745188676620908119
515872,312,67,46,1611,2342,-7621,1745188676620908119
516064,310,74,37,1576,2314,-7795,1745188676620908119
516256,316,65,22,1518,2341,-7605,1745188676620908119
516448,331,107,27,1563,2436,-7611,1745188676620908119
516640,351,87,30,1597,2426,-7707,1745188676620908119
516832,371,109,14,1652,2490,-7588,1745188676620908119
517024,385,114,6,1708,2368,-7775,1745188676620908119
517216,325,155,-43,2012,1821,-7572,1745188676620908119
517408,279,212,-103,2097,1668,-7568,1745188676620908119
517600,318,137,-92,2074,1956,-7647,1745188676689829833
517792,284,126,-51,1813,2096,-7835,1745188676689829833
517984,251,109,-10,1600,2116,-7870,1745188676689829833
518176,263,110,1,1446,2167,-7878,1745188676689829833
518368,250,170,-5,1574,2135,-7483,1745188676689829833
518560,221,208,-23,1661,2179,-7731,1745188676689829833
518752,223,172,-26,1777,1943,-8051,1745188676689829833
518944,244,183,2,1791,1832,-7695,1745188676689829833
519136,271,198,30,1733,2163,-7696,1745188676689829833
519328,304,191,27,1711,2542,-7801,1745188676689829833
519520,359,198,-3,1709,2878,-7803,1745188676689829833
519712,432,213,-40,1702,3071,-7649,1745188676689829833
519904,475,226,-78,1536,2580,-7497,1745188676735312855
520096,501,240,-104,1407,1922,-7496,1745188676735312855
520288,506,282,-89,1372,1663,-7509,1745188676735312855
520480,490,329,-49,1492,1616,-7627,1745188676735312855
520672,468,367,-28,1622,1704,-7572,1745188676735312855
520864,464,352,-7,2126,2236,-7655,1745188676735312855
521056,441,334,28,2402,2068,-7666,1745188676735312855
521248,419,290,56,2322,1879,-7524,1745188676735312855
521440,422,225,82,2144,1312,-7702,1745188676735312855
521632,406,210,92,1989,1384,-7756,1745188676735312855
521824,414,194,91,1857,1224,-8104,1745188676735312855
522016,384,189,81,2175,1619,-7938,1745188676735312855
522208,366,189,64,1863,1104,-7724,1745188676795720689
522400,349,196,24,2005,1637,-7805,1745188676795720689
522592,332,189,-10,1606,905,-7747,1745188676795720689
522784,294,229,-49,1475,1267,-7750,1745188676795720689
522976,327,220,-26,2076,2210,-7705,1745188676795720689
523168,308,209,19,2010,1585,-7734,1745188676795720689
523360,301,194,13,2041,1526,-7671,1745188676795720689
523552,356,137,27,2527,2009,-7789,1745188676795720689
523744,348,104,67,2401,1614,-7692,1745188676795720689
523936,333,76,73,2363,1556,-7592,1745188676795720689
524128,365,28,38,2617,1792,-7895,1745188676795720689
524320,346,7,-8,2066,1285,-7593,1745188676795720689
524512,417,-2,-18,1868,2138,-7364,1745188676852640637
524704,467,-53,43,2018,1378,-7819,1745188676852640637
524896,420,-38,21,1595,1706,-7428,1745188676852640637
525088,446,-42,40,1416,1139,-7791,1745188676852640637
525280,395,10,47,1825,683,-7746,1745188676852640637
525472,387,-3,5,2276,1022,-7731,1745188676852640637
525664,355,0,-31,2085,665,-7702,1745188676852640637
525856,338,-20,-49,2309,985,-7782,1745188676852640637
526048,290,-32,-59,1925,775,-7812,1745188676852640637
526240,228,-12,-90,1800,617,-7771,1745188676852640637
526432,203,-30,-109,1885,863,-7786,1745188676852640637
526624,183,-51,-80,1934,1171,-7803,1745188676852640637
526816,163,-57,-41,1804,1396,-7723,1745188676929588737
527008,161,-46,-19,1553,1450,-7741,1745188676929588737
527200,148,-61,-14,1442,1412,-7725,1745188676929588737
527392,144,-41,-1,1440,1251,-7831,1745188676929588737
527584,131,-27,32,1492,1085,-7869,1745188676929588737
527776,116,5,63,1506,1047,-7899,1745188676929588737
527968,113,21,86,1449,1127,-7926,1745188676929588737
528160,114,39,100,1468,1242,-7928,1745188676929588737
528352,116,51,109,1627,1264,-7917,1745188676929588737
528544,120,47,117,1887,1251,-7878,1745188676929588737
528736,130,36,114,2101,1217,-7847,1745188676929588737
528928,134,18,100,2099,1173,-7847,1745188676929588737
529120,137,8,90,2052,1177,-7869,1745188676970875703
529312,142,7,75,1957,1155,-7852,1745188676970875703
529504,142,12,68,1825,1121,-7858,1745188676970875703
529696,132,30,69,1868,1106,-7829,1745188676970875703
529888,120,45,70,1890,1097,-7814,1745188676970875703
530080,112,53,80,1942,1071,-7856,1745188676970875703
530272,107,60,88,2026,1065,-7897,1745188676970875703
530464,101,61,93,2105,1063,-7934,1745188676970875703
530656,99,59,93,2088,1072,-7921,1745188676970875703
530848,112,56,81,2025,1080,-7890,1745188676970875703
531040,119,55,59,1973,1141,-7843,1745188676970875703
531232,123,56,37,1932,1192,-7848,1745188676970875703
531424,134,57,25,1944,1215,-7930,1745188677033613203
531616,151,63,22,1966,1242,-7953,1745188677033613203
531808,171,66,25,1882,1288,-7932,1745188677033613203
532000,185,70,20,1869,1301,-7852,1745188677033613203
532192,191,77,20,1876,1215,-7801,1745188677033613203
532384,173,113,39,2036,1140,-7588,1745188677033613203
532576,169,166,49,2143,1149,-7869,1745188677033613203
532768,185,125,44,2014,1221,-7835,1745188677033613203
532960,197,121,49,2038,1306,-7768,1745188677033613203
533152,191,122,50,2038,1248,-7787,1745188677033613203
533344,184,107,58,2000,1011,-7760,1745188677033613203
533536,176,107,64,2030,960,-7768,1745188677033613203
533728,162,119,68,2177,973,-7754,1745188677086035849
533920,153,102,71,2241,983,-7802,1745188677086035849
534112,145,92,71,2209,981,-7788,1745188677086035849
534304,150,84,76,2165,1037,-7583,1745188677086035849
534496,162,70,89,2185,1177,-7669,1745188677086035849
534688,168,54,91,2232,1097,-7800,1745188677086035849
534880,175,54,75,2217,1018,-7754,1745188677086035849
535072,186,70,49,2185,1153,-7644,1745188677086035849
535264,207,77,30,2152,1310,-7685,1745188677086035849
535456,224,64,29,2170,1313,-7829,1745188677086035849
535648,226,61,24,2218,1219,-7841,1745188677086035849
535840,231,44,26,2274,1086,-7753,1745188677086035849
536032,234,22,35,2312,973,-7715,1745188677146946699
536224,237,1,43,2338,907,-7718,1745188677146946699
536416,241,-23,51,2343,961,-7733,1745188677146946699
536608,245,-51,62,2338,985,-7678,1745188677146946699
536800,257,-79,70,2315,997,-7727,1745188677146946699
536992,250,-85,61,2287,996,-7699,1745188677146946699
537184,254,-101,52,2158,851,-7716,1745188677146946699
537376,254,-101,49,1969,649,-7736,1745188677146946699
537568,257,-89,50,1786,583,-7770,1745188677146946699
537760,263,-79,55,1695,590,-7855,1745188677146946699
537952,261,-60,65,1755,639,-7905,1745188677146946699
538144,253,-41,67,1843,689,-7857,1745188677146946699
538336,255,-27,69,1832,827,-7859,1745188677205052939
538528,255,-16,75,1824,744,-7834,1745188677205052939
538720,257,-8,69,1920,631,-7851,1745188677205052939
538912,260,2,60,1955,560,-7823,1745188677205052939
539104,253,6,58,1920,529,-7857,1745188677205052939
539296,232,22,59,1863,530,-7878,1745188677205052939
539488,214,42,65,1811,565,-7909,1745188677205052939
539680,216,53,66,1775,583,-7895,1745188677205052939
539872,198,67,71,1869,574,-7948,1745188677205052939
540064,160,97,74,1994,548,-7903,1745188677205052939
540256,153,100,71,2090,544,-7887,1745188677205052939
540448,175,85,62,2075,614,-7597,1745188677205052939
540640,302,-7,1,1822,562,-8020,1745188677264038806
540832,275,7,-10,1897,490,-7894,1745188677264038806
541024,258,23,32,1931,258,-7882,1745188677264038806
541216,247,25,16,1916,189,-7901,1745188677264038806
541408,224,33,16,2016,203,-7864,1745188677264038806
541600,203,28,27,2132,255,-7859,1745188677264038806
541792,188,23,23,2193,394,-7854,1745188677264038806
541984,177,13,14,2161,494,-7866,1745188677264038806
542176,169,7,16,2021,478,-7882,1745188677264038806
542368,162,15,13,1866,436,-7857,1745188677264038806
542560,160,25,14,1874,511,-7841,1745188677264038806
542752,162,33,25,2011,620,-7873,1745188677264038806
542944,166,33,27,2182,660,-7853,1745188677327096616
543136,174,26,20,2154,578,-7900,1745188677327096616
543328,176,20,19,1924,478,-7874,1745188677327096616
543520,168,-36,150,951,231,-7999,1745188677327096616
543712,155,-4,357,1982,430,-7817,1745188677327096616
543904,177,43,278,2544,610,-7824,1745188677327096616
544096,169,13,144,2380,523,-7762,1745188677327096616
544288,170,-2,130,2360,341,-7728,1745188677327096616
544480,171,-25,118,2473,297,-7717,1745188677327096616
544672,165,-53,86,2413,327,-7653,1745188677327096616
544864,159,-72,64,2278,368,-7532,1745188677327096616
545056,147,-79,44,2036,350,-7699,1745188677327096616
661216,-232,-219,-64,1439,2758,-7639,1745188680331264016
661408,-308,-209,-81,623,2637,-7960,1745188680331264016
661600,-344,-203,-60,754,3086,-7833,1745188680331264016
661792,-356,-214,-65,509,3228,-7751,1745188680331264016
661984,-340,-153,-43,42,3141,-7284,1745188680331264016
662176,-313,-74,21,-337,2711,-7076,1745188680331264016
662368,-278,5,94,-294,2501,-7324,1745188680331264016
662560,-242,85,136,224,2840,-7489,1745188680331264016
662752,-176,118,136,758,3094,-7399,1745188680331264016
662944,-113,121,104,1141,3121,-7644,1745188680331264016
663136,-103,133,55,1546,3178,-7712,1745188680331264016
663328,-105,105,19,1542,3247,-7753,1745188680331264016
663520,-110,77,-8,1313,3286,-7732,1745188680398581527
663712,-99,64,-29,1016,3286,-7724,1745188680398581527
663904,-91,67,-31,822,3208,-7808,1745188680398581527
664096,-104,90,-34,751,3079,-7915,1745188680398581527
664288,-116,113,-30,856,3155,-7991,1745188680398581527
664480,-103,134,-24,1052,3447,-8036,1745188680398581527
664672,-65,158,-25,1109,3681,-8132,1745188680398581527
664864,-3,173,-40,1088,3902,-8293,1745188680398581527
665056,72,189,-57,1073,4081,-8425,1745188680398581527
665248,162,201,-73,1179,4141,-8476,1745188680398581527
665440,265,197,-79,1419,4185,-8547,1745188680398581527
665632,376,185,-70,1595,4229,-8524,1745188680398581527
665824,465,165,-51,1353,3262,-8797,1745188680446137186
666016,571,186,36,1821,4833,-8243,1745188680446137186
666208,732,157,152,1274,3665,-8319,1745188680446137186
666400,783,139,145,1175,3153,-7979,1745188680446137186
666592,844,132,71,1211,2989,-7578,1745188680446137186
666784,660,114,-6,1901,-4322,-8271,1745188680446137186
666976,-127,83,-207,2010,-6097,-7381,1745188680446137186
667168,-483,93,-176,1511,-2500,-7140,1745188680446137186
667360,-617,131,-23,1111,1433,-7042,1745188680446137186
667552,-593,167,11,678,4660,-6743,1745188680446137186
667744,-436,214,-82,678,6139,-6492,1745188680446137186
667936,-196,226,-199,1097,6038,-6548,1745188680446137186
668128,72,209,-273,1322,5151,-6811,1745188680518629961
668320,273,167,-232,1398,3899,-7076,1745188680518629961
668512,365,80,-72,1359,2895,-7348,1745188680518629961
668704,363,42,70,1196,2398,-7522,1745188680518629961
668896,305,44,118,1034,2403,-7632,1745188680518629961
669088,236,49,87,916,2599,-7606,1745188680518629961
669280,190,52,44,824,2876,-7598,1745188680518629961
669472,160,56,31,776,3075,-7600,1745188680518629961
669664,136,62,34,757,3145,-7568,1745188680518629961
669856,120,55,39,725,3165,-7533,1745188680518629961
670048,101,45,47,721,3172,-7473,1745188680518629961
670240,81,42,57,738,3168,-7384,1745188680518629961
670432,64,46,66,768,3177,-7309,1745188680563243929
670624,53,50,68,793,3180,-7200,1745188680563243929
670816,48,52,64,825,3109,-7095,1745188680563243929
671008,46,55,57,883,2989,-7027,1745188680563243929
671200,43,58,51,924,2858,-6984,1745188680563243929
671392,38,62,50,976,2803,-6988,1745188680563243929
671584,26,64,57,1022,2750,-6993,1745188680563243929
671776,16,63,73,1045,2723,-7029,1745188680563243929
671968,12,58,88,1056,2758,-7042,1745188680563243929
672160,9,52,91,1072,2767,-7050,1745188680563243929
672352,5,48,85,1079,2828,-7068,1745188680563243929
672544,2,45,75,1075,2863,-7116,1745188680563243929
672736,0,43,70,1116,2899,-7163,1745188680623878062
672928,-3,41,72,1184,2911,-7234,1745188680623878062
673120,-10,35,79,1240,2861,-7344,1745188680623878062
673312,-21,27,90,1291,2761,-7420,1745188680623878062
673504,-38,16,96,1302,2678,-7518,1745188680623878062
673696,-60,9,96,1280,2671,-7596,1745188680623878062
673888,-83,6,94,1225,2721,-7650,1745188680623878062
674080,-101,5,94,1228,2833,-7646,1745188680623878062
674272,-109,6,99,1225,2945,-7633,1745188680623878062
674464,-106,6,107,1267,3032,-7604,1745188680623878062
674656,-101,7,114,1300,3075,-7593,1745188680623878062
674848,-95,8,117,1350,3055,-7588,1745188680623878062
675040,-92,10,121,1380,2991,-7603,1745188680681621441
675232,-93,11,126,1401,2902,-7625,1745188680681621441
675424,-100,11,135,1423,2827,-7658,1745188680681621441
675616,-110,11,144,1447,2788,-7707,1745188680681621441
675808,-121,13,154,1432,2808,-7752,1745188680681621441
676000,-136,17,164,1441,2868,-7788,1745188680681621441
676192,-148,22,169,1423,2968,-7784,1745188680681621441
676384,-152,28,172,1390,3088,-7803,1745188680681621441
676576,-154,36,173,1389,3206,-7819,1745188680681621441
676768,-153,44,171,1371,3259,-7865,1745188680681621441
676960,-150,46,171,1335,3231,-7893,1745188680681621441
677152,-147,48,171,1299,3176,-7917,1745188680681621441
677344,-145,51,171,1268,3114,-7928,1745188680740789911
677536,-147,53,171,1204,3000,-7921,1745188680740789911
677728,-141,56,172,1158,2926,-7918,1745188680740789911
677920,-129,57,171,1104,2854,-7906,1745188680740789911
678112,-111,61,168,1061,2763,-7875,1745188680740789911
678304,-82,66,162,1022,2724,-7793,1745188680740789911
678496,-48,69,155,1015,2628,-7726,1745188680740789911
678688,-17,72,149,1030,2505,-7679,1745188680740789911
678880,14,73,145,1055,2357,-7648,1745188680740789911
679072,43,72,140,1061,2209,-7613,1745188680740789911
679264,68,70,134,1069,2082,-7570,1745188680740789911
679456,89,68,128,1072,1986,-7508,1745188680740789911
679648,107,66,124,1107,1913,-7466,1745188680819278256
679840,122,65,122,1163,1882,-7421,1745188680819278256
680032,135,66,122,1223,1877,-7396,1745188680819278256
680224,149,65,121,1304,1891,-7391,1745188680819278256
680416,161,64,116,1384,1939,-7379,1745188680819278256
680608,171,60,106,1505,2027,-7354,1745188680819278256
680800,173,55,96,1589,2106,-7382,1745188680819278256
680992,166,46,86,1681,2205,-7419,1745188680819278256
681184,154,34,78,1720,2310,-7487,1745188680819278256
681376,134,23,69,1734,2417,-7579,1745188680819278256
681568,107,13,62,1755,2539,-7652,1745188680819278256
681760,75,0,56,1743,2630,-7712,1745188680819278256
681952,34,-14,54,1764,2705,-7766,1745188680855923547
682144,-14,-27,54,1787,2771,-7807,1745188680855923547
682336,-70,-39,59,1853,2831,-7807,1745188680855923547
682528,-123,-46,71,1940,2882,-7772,1745188680855923547
682720,-167,-68,87,2020,2958,-7721,1745188680855923547
682912,-202,-92,102,2072,3036,-7724,1745188680855923547
683104,-240,-119,111,2094,3107,-7745,1745188680855923547
683296,-278,-149,116,2107,3196,-7712,1745188680855923547
683488,-318,-161,121,2103,3201,-7618,1745188680855923547
683680,-356,-199,130,2076,3113,-7542,1745188680855923547
683872,-381,-235,137,1983,3042,-7434,1745188680855923547
684064,-405,-258,141,1893,3016,-7235,1745188680855923547
684256,-431,-269,142,1767,3022,-6952,1745188680922364138
684448,-462,-279,140,1637,3098,-6336,1745188680922364138
684640,-488,-268,142,1483,3169,-5992,1745188680922364138
684832,-509,-263,145,1384,3240,-5884,1745188680922364138
685024,-534,-266,154,1234,3370,-5970,1745188680922364138
685216,-556,-265,168,1120,3474,-6077,1745188680922364138
685408,-568,-242,182,1060,3534,-6234,1745188680922364138
685600,-568,-239,192,1005,3564,-6325,1745188680922364138
685792,-555,-226,197,930,3608,-6384,1745188680922364138
685984,-540,-214,203,911,3669,-6320,1745188680922364138
686176,-523,-202,211,897,3709,-6400,1745188680922364138
686368,-509,-191,222,927,3750,-6773,1745188680922364138
686560,-507,-180,237,931,3773,-7291,1745188680974076165
686752,-511,-176,246,908,3830,-7493,1745188680974076165
686944,-504,-188,244,776,3944,-7644,1745188680974076165
687136,-489,-206,232,669,4121,-7792,1745188680974076165
687328,-478,-201,212,605,4212,-8028,1745188680974076165
687520,-477,-227,197,531,4179,-8092,1745188680974076165
687712,-477,-234,190,437,4070,-8099,1745188680974076165
687904,-475,-235,194,374,4010,-8116,1745188680974076165
688096,-469,-229,196,338,3963,-8091,1745188680974076165
688288,-463,-220,194,334,3916,-8086,1745188680974076165
688480,-452,-205,192,373,3814,-8044,1745188680974076165
688672,-441,-195,185,424,3618,-7974,1745188680974076165
688864,-431,-188,177,472,3377,-7902,1745188681032484902
689056,-418,-181,168,566,3125,-7813,1745188681032484902
689248,-395,-169,169,652,2931,-7659,1745188681032484902
689440,-368,-157,177,757,2833,-7557,1745188681032484902
689632,-344,-149,181,826,2791,-7501,1745188681032484902
689824,-321,-144,176,866,2785,-7471,1745188681032484902
690016,-290,-138,164,843,2788,-7429,1745188681032484902
690208,-250,-128,152,821,2752,-7418,1745188681032484902
690400,-208,-114,145,828,2660,-7441,1745188681032484902
690592,-164,-98,139,839,2594,-7439,1745188681032484902
690784,-123,-78,135,894,2535,-7471,1745188681032484902
690976,-86,-58,134,963,2495,-7514,1745188681032484902
691168,-51,-38,136,1074,2464,-7550,1745188681090587445
691360,-18,-18,136,1207,2452,-7615,1745188681090587445
691552,8,-4,136,1384,2441,-7684,1745188681090587445
691744,26,3,134,1567,2434,-7749,1745188681090587445
691936,43,-5,133,1645,2463,-7821,1745188681090587445
692128,59,5,134,1749,2560,-7849,1745188681090587445
692320,75,18,130,1802,2689,-7956,1745188681090587445
692512,91,-5,119,1825,2838,-8022,1745188681090587445
692704,109,-12,109,1782,2946,-8082,1745188681090587445
692896,131,-16,99,1722,3071,-8145,1745188681090587445
693088,151,-16,89,1655,3150,-8196,1745188681090587445
693280,166,-17,78,1598,3214,-8224,1745188681090587445
693472,175,-17,72,1542,3277,-8281,1745188681148764257
693664,177,-14,72,1492,3319,-8356,1745188681148764257
693856,180,-6,79,1464,3397,-8442,1745188681148764257
694048,184,2,84,1438,3447,-8518,1745188681148764257
694240,185,12,86,1419,3499,-8625,1745188681148764257
694432,186,24,82,1418,3538,-8739,1745188681148764257
694624,187,37,74,1434,3558,-8853,1745188681148764257
694816,192,50,71,1443,3619,-8968,1745188681148764257
695008,201,63,74,1480,3709,-9102,1745188681148764257
695200,214,75,85,1510,3798,-9260,1745188681148764257
695392,229,80,96,1521,3848,-9388,1745188681148764257
695584,248,78,110,1575,3830,-9331,1745188681148764257
695776,272,127,122,1722,3714,-9490,1745188681217037071
695968,282,128,138,1912,3508,-9768,1745188681217037071
696160,270,117,162,2116,3181,-9948,1745188681217037071
696352,233,115,191,2292,2816,-10078,1745188681217037071
696544,166,114,213,2450,2503,-10276,1745188681217037071
696736,67,119,221,2605,2324,-10442,1745188681217037071
696928,-61,113,211,2742,2188,-10417,1745188681217037071
697120,-211,98,187,2880,2013,-10358,1745188681217037071
697312,-381,68,153,3050,1804,-10422,1745188681217037071
697504,-573,29,107,3183,1623,-10433,1745188681217037071
697696,-790,0,58,3343,1531,-10375,1745188681217037071
697888,-1028,-21,14,3522,1538,-10213,1745188681217037071
698080,-1275,-48,-24,3680,1661,-10038,1745188681265283870
698272,-1512,-86,-55,3847,1921,-9914,1745188681265283870
698464,-1726,-139,-80,4036,2305,-9845,1745188681265283870
698656,-1919,-201,-103,4242,2661,-9733,1745188681265283870
698848,-2086,-267,-126,4401,3004,-9726,1745188681265283870
699040,-2220,-337,-148,4565,3303,-9744,1745188681265283870
699232,-2296,-395,-165,4671,3652,-9536,1745188681265283870
699424,-2291,-432,-165,4782,4154,-9215,1745188681265283870
699616,-2211,-460,-146,4958,4710,-9105,1745188681265283870
699808,-2089,-504,-125,5237,5143,-9224,1745188681265283870
700000,-1951,-568,-104,5625,5319,-9518,1745188681265283870
700192,-1811,-640,-72,6037,5239,-10000,1745188681265283870
700384,-1680,-726,-23,6435,4809,-10505,1745188681335169533
700576,-1579,-835,39,6784,4125,-10758,1745188681335169533
700768,-1526,-948,97,6986,3435,-11215,1745188681335169533
700960,-1534,-1048,142,7066,2792,-11631,1745188681335169533
701152,-1593,-1122,181,7079,2204,-12089,1745188681335169533
701344,-1666,-1161,213,6963,1884,-12065,1745188681335169533
701536,-1740,-1161,225,6729,1817,-11788,1745188681335169533
701728,-1793,-1128,211,6405,2126,-11580,1745188681335169533
701920,-1813,-1062,174,5982,2603,-11780,1745188681335169533
702112,-1793,-966,135,5713,3160,-11612,1745188681335169533
702304,-1694,-846,79,5541,4027,-10607,1745188681335169533
702496,-1607,-727,17,5442,4642,-9883,1745188681335169533
702688,-1481,-638,-18,5415,5059,-9213,1745188681381697806
702880,-1241,-582,6,5545,5563,-8574,1745188681381697806
703072,-905,-563,86,5788,6097,-8128,1745188681381697806
703264,-512,-606,189,6100,6517,-8093,1745188681381697806
703456,-134,-682,297,6420,6684,-8384,1745188681381697806
703648,170,-780,414,6726,6451,-8628,1745188681381697806
703840,402,-887,554,6974,5759,-8930,1745188681381697806
704032,571,-1002,723,7150,4739,-9283,1745188681381697806
704224,665,-1137,886,7252,3568,-9599,1745188681381697806
704416,674,-1293,1038,7233,2495,-10000,1745188681381697806
704608,593,-1436,1179,7217,1613,-10380,1745188681381697806
704800,448,-1570,1317,7172,973,-10581,1745188681381697806
704992,269,-1714,1457,7192,530,-10791,1745188681441771476
705184,91,-1830,1580,7066,406,-10884,1745188681441771476
705376,-57,-1951,1700,7051,514,-10868,1745188681441771476
705568,-163,-2084,1801,7027,853,-10768,1745188681441771476
705760,-229,-2203,1883,7025,1377,-10494,1745188681441771476
705952,-271,-2327,1949,6998,1912,-10338,1745188681441771476
706144,-303,-2439,2011,6973,2348,-10168,1745188681441771476
706336,-327,-2556,2079,6962,2559,-9938,1745188681441771476
706528,-347,-2664,2165,6889,2606,-9730,1745188681441771476
706720,-364,-2773,2266,6838,2529,-9497,1745188681441771476
706912,-377,-2885,2372,6852,2451,-9024,1745188681441771476
707104,-390,-2977,2474,6862,2449,-8408,1745188681441771476
707296,-425,-3067,2561,6917,2451,-7863,1745188681499077203
707488,-489,-3168,2631,6985,2405,-7292,1745188681499077203
707680,-571,-3276,2691,7065,2318,-6577,1745188681499077203
707872,-653,-3389,2753,7136,2220,-5904,1745188681499077203
708064,-726,-3516,2818,7230,2178,-5349,1745188681499077203
708256,-803,-3659,2875,7283,2172,-4904,1745188681499077203
708448,-896,-3804,2915,7327,2267,-4382,1745188681499077203
708640,-1004,-3948,2943,7339,2450,-3840,1745188681499077203
708832,-1123,-4091,2966,7339,2729,-3371,1745188681499077203
709024,-1251,-4232,2983,7364,3065,-2910,1745188681499077203
709216,-1377,-4370,2992,7315,3442,-2609,1745188681499077203
709408,-1489,-4502,2995,7231,3857,-2429,1745188681499077203
709600,-1586,-4621,2998,7156,4272,-2206,1745188681558909364
709792,-1666,-4725,3005,7074,4687,-1927,1745188681558909364
709984,-1727,-4824,3014,6969,5027,-1661,1745188681558909364
710176,-1770,-4918,3026,6877,5341,-1319,1745188681558909364
710368,-1795,-5000,3035,6787,5516,-1002,1745188681558909364
710560,-1805,-5077,3042,6693,5609,-744,1745188681558909364
710752,-1807,-5141,3045,6603,5675,-563,1745188681558909364
710944,-1806,-5195,3054,6493,5737,-460,1745188681558909364
711136,-1808,-5233,3071,6430,5780,-269,1745188681558909364
711328,-1814,-5254,3091,6421,5855,31,1745188681558909364
711520,-1816,-5257,3109,6456,5965,242,1745188681558909364
711712,-1815,-5250,3115,6510,6094,497,1745188681558909364
711904,-1833,-5229,3112,6664,6137,778,1745188681616503578
712096,-1852,-5212,3098,6865,6144,1150,1745188681616503578
712288,-1868,-5196,3077,7093,6212,1602,1745188681616503578
712480,-1871,-5196,3067,7512,6402,1464,1745188681616503578
712672,-1896,-5205,3078,7901,6495,1151,1745188681616503578
712864,-1935,-5196,3086,8042,6527,1336,1745188681616503578
713056,-1954,-5146,3067,7864,6653,1651,1745188681616503578
713248,-1985,-5055,3002,7504,6909,2074,1745188681616503578
713440,-2039,-4920,2878,7065,7327,2802,1745188681616503578
713632,-2101,-4749,2714,6696,7999,3646,1745188681616503578
713824,-2154,-4567,2535,6388,9044,4495,1745188681616503578
714016,-2183,-4395,2370,6157,10562,5363,1745188681616503578
714208,-2187,-4227,2231,5884,12648,6282,1745188681678123744
714400,-2198,-4063,2100,5540,15043,7833,1745188681678123744
714592,-2215,-3905,1944,4842,17540,11329,1745188681678123744
714784,-2336,-3753,1716,3880,19245,11324,1745188681678123744
714976,-2432,-3673,1468,2591,19589,11999,1745188681678123744
715168,-2273,-3567,1221,920,18671,10701,1745188681678123744
715360,-1825,-3394,962,-953,17206,8637,1745188681678123744
715552,-1170,-3098,697,-2807,15501,6975,1745188681678123744
715744,-474,-2750,432,-4132,13731,5864,1745188681678123744
715936,111,-2314,164,-4856,11798,5245,1745188681678123744
716128,581,-1845,-73,-4948,9949,5108,1745188681678123744
716320,954,-1433,-242,-4523,8491,5145,1745188681678123744
716512,1188,-1080,-343,-3791,7592,5240,1745188681743511324
716704,1261,-799,-406,-2855,7229,5346,1745188681743511324
716896,1214,-594,-467,-1906,7274,5488,1745188681743511324
717088,1101,-455,-523,-1082,7535,5721,1745188681743511324
717280,960,-394,-561,-411,7823,5849,1745188681743511324
717472,818,-398,-562,70,8055,5815,1745188681743511324
717664,674,-456,-523,420,8180,5696,1745188681743511324
717856,521,-542,-469,527,8212,5498,1745188681743511324
718048,365,-646,-410,367,8133,5182,1745188681743511324
718240,207,-764,-355,49,7867,4812,1745188681743511324
718432,61,-880,-307,-389,7541,4392,1745188681743511324
718624,-64,-967,-270,-865,7255,3890,1745188681743511324
718816,-173,-1014,-242,-1354,7099,3359,1745188681790581206
719008,-269,-1018,-214,-1769,7040,2944,1745188681790581206
719200,-353,-990,-187,-2132,7023,2685,1745188681790581206
719392,-418,-945,-157,-2399,7050,2548,1745188681790581206
719584,-459,-891,-117,-2559,7107,2516,1745188681790581206
719776,-484,-832,-72,-2578,7180,2505,1745188681790581206
719968,-493,-778,-24,-2475,7273,2521,1745188681790581206
720160,-486,-732,21,-2299,7379,2571,1745188681790581206
720352,-461,-702,65,-2076,7576,2626,1745188681790581206
720544,-414,-683,109,-1839,7808,2667,1745188681790581206
720736,-343,-674,145,-1708,8057,2672,1745188681790581206
720928,-261,-672,168,-1624,8320,2660,1745188681790581206
721120,-172,-677,185,-1679,8499,2652,1745188681852120436
721312,-77,-678,204,-1784,8640,2544,1745188681852120436
721504,22,-673,228,-1906,8666,2380,1745188681852120436
721696,112,-661,251,-2042,8527,2223,1745188681852120436
721888,180,-641,267,-2153,8282,2025,1745188681852120436
722080,222,-614,273,-2196,8000,1855,1745188681852120436
722272,238,-577,276,-2244,7790,1682,1745188681852120436
722464,236,-536,279,-2214,7629,1458,1745188681852120436
722656,219,-498,277,-2155,7518,1235,1745188681852120436
722848,194,-467,267,-2102,7430,1019,1745188681852120436
723040,168,-439,253,-2053,7343,801,1745188681852120436
723232,156,-409,242,-2013,7261,607,1745188681852120436
723424,149,-376,230,-1949,7161,435,1745188681912257022
723616,138,-344,209,-1901,7022,303,1745188681912257022
723808,130,-315,183,-1892,6863,209,1745188681912257022
724000,112,-288,156,-1893,6736,125,1745188681912257022
724192,75,-261,129,-1910,6682,-40,1745188681912257022
724384,30,-225,102,-1914,6736,-172,1745188681912257022
724576,-15,-182,81,-1924,6915,-278,1745188681912257022
724768,-52,-135,66,-1915,7159,-369,1745188681912257022
724960,-73,-94,56,-1911,7468,-422,1745188681912257022
725152,-75,-58,44,-1900,7711,-486,1745188681912257022
725344,-56,-27,30,-1880,7934,-606,1745188681912257022
725536,-24,1,16,-1851,8052,-714,1745188681912257022
725728,13,27,4,-1838,8095,-793,1745188681966177832
725920,55,50,1,-1810,8078,-861,1745188681966177832
726112,91,71,2,-1820,8014,-897,1745188681966177832
726304,118,89,3,-1830,7921,-886,1745188681966177832
726496,133,108,1,-1808,7853,-898,1745188681966177832
726688,143,127,-2,-1777,7808,-908,1745188681966177832
726880,152,144,-2,-1734,7856,-960,1745188681966177832
727072,158,158,-2,-1703,7871,-1042,1745188681966177832
727264,163,168,0,-1671,7897,-1113,1745188681966177832
727456,168,176,4,-1601,7931,-1194,1745188681966177832
727648,167,182,7,-1564,7950,-1232,1745188681966177832
727840,160,183,8,-1524,7939,-1255,1745188681966177832
728032,149,184,12,-1483,7910,-1322,1745188682035498917
728224,135,182,16,-1470,7907,-1362,1745188682035498917
728416,119,182,20,-1509,7924,-1362,1745188682035498917
728608,105,183,25,-1538,7931,-1377,1745188682035498917
728800,93,183,27,-1547,7914,-1420,1745188682035498917
728992,85,187,25,-1552,7880,-1458,1745188682035498917
729184,80,194,20,-1545,7861,-1490,1745188682035498917
729376,80,201,19,-1508,7828,-1536,1745188682035498917
729568,84,207,19,-1493,7802,-1644,1745188682035498917
729760,89,212,18,-1443,7802,-1772,1745188682035498917
729952,97,214,14,-1419,7814,-1874,1745188682035498917
730144,108,212,13,-1407,7826,-1940,1745188682035498917
730336,121,209,17,-1390,7850,-1969,1745188682098941827
730528,135,208,21,-1414,7850,-2003,1745188682098941827
730720,152,206,25,-1463,7892,-2030,1745188682098941827
730912,174,206,30,-1487,7982,-2089,1745188682098941827
731104,197,209,37,-1512,8084,-2158,1745188682098941827
731296,217,214,48,-1543,8181,-2226,1745188682098941827
731488,241,220,59,-1543,8203,-2277,1745188682098941827
731680,265,221,68,-1536,8217,-2295,1745188682098941827
731872,282,223,74,-1517,8186,-2337,1745188682098941827
732064,289,223,77,-1507,8133,-2368,1745188682098941827
732256,287,224,80,-1540,8085,-2425,1745188682098941827
732448,281,226,83,-1557,8039,-2495,1745188682098941827
732640,272,229,85,-1565,8037,-2579,1745188682141641281
732832,258,235,83,-1562,8046,-2645,1745188682141641281
733024,244,242,77,-1550,8048,-2683,1745188682141641281
733216,235,246,71,-1515,8098,-2689,1745188682141641281
733408,229,247,65,-1520,8153,-2687,1745188682141641281
733600,230,247,55,-1503,8232,-2666,1745188682141641281
733792,235,250,42,-1482,8267,-2650,1745188682141641281
733984,243,251,28,-1488,8271,-2655,1745188682141641281
734176,252,251,15,-1477,8197,-2690,1745188682141641281
734368,254,252,3,-1460,8104,-2753,1745188682141641281
734560,251,251,-7,-1430,8001,-2817,1745188682141641281
734752,244,252,-16,-1391,7926,-2836,1745188682141641281
734944,231,253,-25,-1399,7877,-2860,1745188682200946729
735136,217,249,-33,-1400,7879,-2879,1745188682200946729
735328,204,247,-40,-1419,7864,-2926,1745188682200946729
735520,199,245,-48,-1459,7850,-2929,1745188682200946729
735712,196,243,-57,-1478,7826,-2950,1745188682200946729
735904,190,242,-66,-1500,7793,-2934,1745188682200946729
736096,181,241,-71,-1547,7758,-2938,1745188682200946729
736288,170,241,-70,-1553,7730,-2955,1745188682200946729
736480,154,239,-69,-1539,7704,-2967,1745188682200946729
736672,139,238,-68,-1519,7748,-2957,1745188682200946729
736864,127,237,-68,-1503,7797,-2988,1745188682200946729
737056,119,235,-67,-1513,7888,-3026,1745188682200946729
737248,114,230,-65,-1524,7992,-3026,1745188682265555722
737440,114,225,-61,-1530,8091,-3030,1745188682265555722
737632,123,220,-58,-1516,8164,-3027,1745188682265555722
737824,138,216,-55,-1540,8210,-3073,1745188682265555722
738016,156,213,-54,-1544,8208,-3116,1745188682265555722
738208,176,210,-51,-1547,8202,-3168,1745188682265555722
738400,195,207,-51,-1568,8153,-3166,1745188682265555722
738592,217,203,-54,-1596,8125,-3132,1745188682265555722
738784,237,202,-61,-1633,8090,-3105,1745188682265555722
738976,255,201,-69,-1686,8059,-3088,1745188682265555722
739168,263,203,-75,-1703,8008,-3112,1745188682265555722
739360,260,206,-84,-1725,7900,-3161,1745188682265555722
739552,248,210,-96,-1680,7813,-3190,1745188682317998263
739744,233,214,-108,-1635,7759,-3197,1745188682317998263
739936,213,214,-118,-1618,7721,-3216,1745188682317998263
740128,190,212,-125,-1601,7727,-3213,1745188682317998263
740320,169,210,-133,-1588,7754,-3193,1745188682317998263
740512,152,209,-138,-1586,7825,-3179,1745188682317998263
740704,138,208,-143,-1604,7843,-3120,1745188682317998263
740896,129,206,-148,-1629,7841,-3055,1745188682317998263
741088,121,202,-151,-1623,7836,-3026,1745188682317998263
741280,114,199,-156,-1638,7839,-2968,1745188682317998263
741472,108,200,-160,-1633,7866,-2910,1745188682317998263
741664,102,203,-165,-1643,7894,-2878,1745188682317998263
741856,98,205,-169,-1646,7937,-2831,1745188682377524126
742048,96,207,-172,-1621,7958,-2807,1745188682377524126
742240,96,208,-176,-1604,7970,-2775,1745188682377524126
742432,95,212,-184,-1577,7970,-2760,1745188682377524126
742624,95,217,-191,-1546,7946,-2733,1745188682377524126
742816,96,221,-198,-1527,7938,-2665,1745188682377524126
743008,98,224,-203,-1517,7921,-2609,1745188682377524126
743200,101,229,-210,-1507,7930,-2545,1745188682377524126
743392,109,235,-221,-1517,7916,-2520,1745188682377524126
743584,122,244,-232,-1523,7913,-2504,1745188682377524126
743776,136,251,-243,-1545,7898,-2484,1745188682377524126
743968,151,256,-252,-1572,7879,-2459,1745188682377524126
744160,167,262,-260,-1607,7845,-2498,1745188682441092452
744352,181,272,-268,-1637,7811,-2511,1745188682441092452
744544,189,283,-276,-1652,7766,-2466,1745188682441092452
744736,197,296,-284,-1686,7682,-2361,1745188682441092452
744928,206,310,-292,-1685,7587,-2237,1745188682441092452
745120,216,323,-301,-1677,7508,-2125,1745188682441092452
745312,221,339,-311,-1667,7501,-2056,1745188682441092452
745504,219,354,-321,-1687,7511,-2031,1745188682441092452
745696,214,372,-328,-1638,7572,-2092,1745188682441092452
745888,207,389,-335,-1622,7706,-2144,1745188682441092452
746080,200,401,-340,-1581,7852,-2123,1745188682441092452
746272,199,410,-345,-1552,7953,-2055,1745188682441092452
746464,208,415,-352,-1560,8004,-2003,1745188682491978185
746656,223,419,-361,-1585,8028,-1950,1745188682491978185
746848,238,424,-375,-1649,8013,-1933,1745188682491978185
747040,249,431,-390,-1713,7978,-1899,1745188682491978185
747232,252,441,-405,-1774,7936,-1842,1745188682491978185
747424,250,454,-419,-1842,7909,-1790,1745188682491978185
747616,241,468,-430,-1883,7906,-1709,1745188682491978185
747808,223,485,-443,-1923,7879,-1629,1745188682491978185
748000,201,503,-459,-1957,7856,-1547,1745188682491978185
748192,177,521,-476,-1978,7816,-1479,1745188682491978185
748384,150,541,-493,-1987,7795,-1466,1745188682491978185
748576,119,561,-511,-1961,7782,-1482,1745188682491978185
748768,84,586,-530,-1955,7769,-1485,1745188682563863465
748960,44,608,-545,-1919,7754,-1482,1745188682563863465
749152,3,630,-555,-1895,7757,-1459,1745188682563863465
749344,-40,648,-566,-1856,7771,-1396,1745188682563863465
749536,-89,666,-584,-1838,7744,-1335,1745188682563863465
749728,-133,685,-601,-1854,7722,-1306,1745188682563863465
749920,-177,704,-613,-1890,7749,-1267,1745188682563863465
750112,-222,724,-622,-1965,7775,-1234,1745188682563863465
750304,-267,748,-631,-2049,7846,-1200,1745188682563863465
750496,-304,775,-638,-2115,7946,-1162,1745188682563863465
750688,-329,807,-647,-2187,8066,-1147,1745188682563863465
750880,-344,838,-656,-2248,8179,-1156,1745188682563863465
751072,-355,869,-664,-2267,8261,-1141,1745188682608897637
751264,-361,902,-672,-2270,8274,-1104,1745188682608897637
751456,-361,936,-679,-2258,8264,-1062,1745188682608897637
751648,-358,969,-687,-2200,8209,-1033,1745188682608897637
751840,-355,1002,-698,-2148,8130,-988,1745188682608897637
752032,-351,1034,-709,-2099,8089,-916,1745188682608897637
752224,-348,1068,-718,-2060,8071,-874,1745188682608897637
752416,-347,1098,-728,-2021,8065,-824,1745188682608897637
752608,-345,1126,-736,-2018,8041,-749,1745188682608897637
752800,-337,1152,-747,-2013,8034,-685,1745188682608897637
752992,-326,1177,-758,-2027,8024,-669,1745188682608897637
753184,-314,1205,-770,-2044,8048,-650,1745188682608897637
753376,-301,1235,-782,-2065,8081,-622,1745188682670927800
753568,-278,1268,-795,-2099,8131,-600,1745188682670927800
753760,-246,1303,-808,-2088,8254,-559,1745188682670927800
753952,-210,1339,-824,-2031,8379,-502,1745188682670927800
754144,-169,1379,-841,-1977,8519,-432,1745188682670927800
754336,-105,1424,-861,-1905,8671,-299,1745188682670927800
754528,-16,1468,-883,-1769,8853,-180,1745188682670927800
