timestamp,gyr_x,gyr_y,gyr_z,acc_x,acc_y,acc_z,pkt_time_ns
103458,-141,17,42,948,1679,-7666,1745174075358905583
103650,-144,-38,28,792,756,-8358,1745174075358905583
103842,-8,-24,61,966,1089,-7950,1745174075358905583
104034,2,-73,65,718,1392,-7848,1745174075358905583
104226,-41,-38,58,882,1372,-8056,1745174075358905583
104418,-24,-44,50,973,1344,-8056,1745174075358905583
104610,-34,-46,40,948,1237,-8043,1745174075358905583
104802,-69,-24,27,885,1076,-8076,1745174075358905583
104994,-80,-23,22,836,1025,-8072,1745174075358905583
105186,-106,-16,24,767,1046,-8082,1745174075358905583
105378,-125,2,25,805,1130,-8074,1745174075358905583
105570,-142,0,25,863,1185,-8076,1745174075358905583
105762,-171,3,25,894,1180,-8085,1745174075413670448
105954,-191,16,26,810,1167,-8192,1745174075413670448
106146,-212,28,20,659,1114,-8197,1745174075413670448
106338,-238,50,13,630,1144,-8153,1745174075413670448
106530,-250,66,14,681,1272,-8119,1745174075413670448
106722,-255,74,17,789,1528,-8120,1745174075413670448
106914,-244,85,19,793,1798,-8177,1745174075413670448
107106,-220,105,8,625,1989,-8114,1745174075413670448
107298,-206,132,-19,469,2041,-7989,1745174075413670448
107490,-182,162,-33,477,2003,-7957,1745174075413670448
107682,-106,143,-33,45,1546,-8129,1745174075413670448
107874,-11,237,9,1288,2734,-7958,1745174075413670448
108066,-70,132,-7,903,2488,-7412,1745174075474570100
108258,-34,215,5,1375,2353,-8027,1745174075474570100
108450,68,126,-12,1420,2409,-7859,1745174075474570100
108642,136,84,-63,1357,2241,-7599,1745174075474570100
108834,150,93,-127,774,1501,-7368,1745174075474570100
109026,142,176,-145,14,840,-7566,1745174075474570100
109218,138,175,-97,774,587,-8051,1745174075474570100
109410,102,146,-4,1377,596,-7944,1745174075474570100
109602,-1,117,62,1700,746,-7816,1745174075474570100
109794,-54,72,90,1689,1070,-7857,1745174075474570100
109986,-65,22,71,1493,1399,-7835,1745174075474570100
110178,-75,-2,28,1261,1618,-7876,1745174075474570100
110370,-69,-10,-5,1069,1711,-7901,1745174075526322804
110562,-51,-21,-21,983,1735,-7881,1745174075526322804
110754,-40,-22,-23,973,1682,-7872,1745174075526322804
110946,-30,-23,-22,997,1607,-7897,1745174075526322804
111138,-23,-28,-22,1037,1593,-7882,1745174075526322804
111330,-17,-34,-22,1060,1612,-7856,1745174075526322804
111522,-12,-39,-21,1056,1616,-7866,1745174075526322804
111714,-4,-47,-20,1054,1618,-7885,1745174075526322804
111906,3,-53,-19,1015,1616,-7898,1745174075526322804
112098,7,-57,-19,998,1590,-7901,1745174075526322804
112290,11,-59,-16,971,1567,-7905,1745174075526322804
112482,14,-62,-15,977,1542,-7917,1745174075526322804
112674,15,-65,-12,963,1516,-7906,1745174075585655699
112866,13,-67,-11,973,1491,-7931,1745174075585655699
113058,7,-69,-8,965,1476,-7925,1745174075585655699
113250,1,-72,-6,956,1485,-7934,1745174075585655699
113442,-1,-74,-5,951,1492,-7927,1745174075585655699
113634,-5,-75,-5,936,1503,-7933,1745174075585655699
113826,-5,-77,-7,936,1517,-7941,1745174075585655699
114018,-4,-78,-7,899,1519,-7960,1745174075585655699
114210,-3,-76,-7,889,1523,-7967,1745174075585655699
114402,0,-73,-8,874,1514,-7959,1745174075585655699
114594,1,-69,-11,858,1517,-7955,1745174075585655699
114786,2,-65,-11,859,1493,-7953,1745174075585655699
114978,3,-61,-9,865,1489,-7945,1745174075643087883
115170,2,-59,-9,881,1505,-7954,1745174075643087883
115362,1,-59,-9,867,1521,-7964,1745174075643087883
115554,-1,-55,-9,850,1519,-7974,1745174075643087883
115746,-3,-49,-12,818,1506,-7967,1745174075643087883
115938,-4,-44,-15,801,1455,-7967,1745174075643087883
116130,-9,-36,-17,794,1433,-7973,1745174075643087883
116322,-14,-31,-16,812,1414,-7989,1745174075643087883
116514,-22,-26,-13,799,1413,-7968,1745174075643087883
116706,-29,-20,-9,787,1434,-7959,1745174075643087883
116898,-34,-16,-6,811,1475,-7971,1745174075643087883
117090,-39,-10,-3,789,1491,-7973,1745174075643087883
117282,-43,-5,0,783,1514,-7972,1745174075698173213
117474,-46,1,4,784,1515,-7979,1745174075698173213
117666,-48,8,8,782,1528,-7965,1745174075698173213
117858,-49,13,11,795,1546,-7967,1745174075698173213
118050,-50,19,14,815,1551,-7950,1745174075698173213
118242,-49,25,17,825,1561,-7942,1745174075698173213
118434,-48,29,19,848,1572,-7943,1745174075698173213
118626,-46,31,18,855,1561,-7934,1745174075698173213
118818,-44,33,17,897,1566,-7930,1745174075698173213
119010,-42,34,17,891,1574,-7924,1745174075698173213
119202,-39,34,18,896,1583,-7937,1745174075698173213
119394,-37,32,17,910,1587,-7934,1745174075698173213
119586,-36,31,17,913,1557,-7923,1745174075759343488
119778,-35,31,17,897,1571,-7896,1745174075759343488
119970,-33,30,18,894,1562,-7907,1745174075759343488
120162,-30,31,18,898,1571,-7956,1745174075759343488
120354,-31,30,17,906,1590,-7951,1745174075759343488
120546,-32,29,18,898,1601,-7937,1745174075759343488
120738,-31,30,20,901,1574,-7912,1745174075759343488
120930,-30,29,21,913,1563,-7924,1745174075759343488
121122,-31,29,21,918,1567,-7919,1745174075759343488
121314,-32,28,24,900,1580,-7946,1745174075759343488
121506,-33,27,26,914,1574,-7946,1745174075759343488
121698,-33,27,29,891,1590,-7918,1745174075759343488
121890,-32,26,32,895,1608,-7872,1745174075821195214
122082,-29,28,36,903,1634,-7891,1745174075821195214
122274,-23,27,41,893,1645,-7912,1745174075821195214
122466,-31,30,57,908,1624,-7920,1745174075821195214
122658,-28,22,82,930,1660,-7965,1745174075821195214
122850,-21,20,82,903,1655,-7911,1745174075821195214
123042,-15,24,71,873,1641,-7920,1745174075821195214
123234,-4,30,65,874,1631,-7927,1745174075821195214
123426,1,32,63,882,1635,-7924,1745174075821195214
123618,2,33,65,901,1620,-7933,1745174075821195214
123810,-1,33,71,898,1597,-7927,1745174075821195214
124002,-3,34,76,867,1568,-7921,1745174075821195214
124194,-2,36,78,886,1561,-7941,1745174075881763151
124386,-4,40,80,887,1557,-7979,1745174075881763151
124578,-9,42,84,914,1529,-7983,1745174075881763151
124770,-15,42,86,915,1503,-7946,1745174075881763151
124962,-18,44,83,919,1486,-7909,1745174075881763151
125154,-18,47,80,925,1497,-7911,1745174075881763151
125346,-18,48,78,940,1542,-7934,1745174075881763151
125538,-21,48,78,962,1582,-7938,1745174075881763151
125730,-24,48,78,952,1599,-7919,1745174075881763151
125922,-22,47,77,961,1621,-7917,1745174075881763151
126114,-16,47,75,990,1642,-7907,1745174075881763151
126306,-8,46,73,1013,1655,-7911,1745174075881763151
126498,-6,42,68,1014,1656,-7948,1745174075937578683
126690,-27,34,52,1008,1657,-7886,1745174075937578683
126882,-20,31,54,1025,1621,-7871,1745174075937578683
127074,14,35,64,1010,1633,-7884,1745174075937578683
127266,29,32,71,1004,1630,-7892,1745174075937578683
127458,30,27,72,1023,1601,-7930,1745174075937578683
127650,31,26,66,1026,1598,-7920,1745174075937578683
127842,33,26,63,1007,1585,-7905,1745174075937578683
128034,35,24,62,1012,1568,-7912,1745174075937578683
128226,41,25,62,999,1566,-7924,1745174075937578683
128418,47,26,63,977,1566,-7938,1745174075937578683
128610,48,27,62,981,1540,-7948,1745174075937578683
128802,44,29,59,962,1522,-7956,1745174075996514186
128994,40,31,55,967,1488,-7939,1745174075996514186
129186,38,34,54,967,1480,-7944,1745174075996514186
129378,37,38,54,979,1483,-7933,1745174075996514186
129570,32,41,53,976,1492,-7959,1745174075996514186
129762,24,44,50,972,1477,-7945,1745174075996514186
129954,23,44,50,992,1474,-7930,1745174075996514186
130146,28,46,50,986,1495,-7940,1745174075996514186
130338,31,48,51,987,1494,-7941,1745174075996514186
130530,29,50,50,995,1476,-7947,1745174075996514186
130722,24,51,47,1006,1469,-7950,1745174075996514186
130914,19,52,45,992,1454,-7940,1745174075996514186
131106,16,55,44,991,1454,-7938,1745174076056364941
131298,10,56,45,974,1468,-7945,1745174076056364941
131490,8,62,45,1004,1498,-7962,1745174076056364941
131682,11,57,48,966,1555,-7925,1745174076056364941
131874,13,58,50,984,1541,-7901,1745174076056364941
132066,17,61,49,1001,1528,-7949,1745174076056364941
132258,19,63,50,1013,1521,-7946,1745174076056364941
132450,17,64,51,1046,1482,-7931,1745174076056364941
132642,14,66,51,1071,1450,-7940,1745174076056364941
132834,13,66,50,1077,1436,-7936,1745174076056364941
133026,10,62,49,1049,1441,-7918,1745174076056364941
133218,5,62,50,1055,1435,-7895,1745174076056364941
133410,5,63,53,1053,1467,-7913,1745174076110496218
133602,3,59,54,1032,1493,-7893,1745174076110496218
133794,-2,59,54,1081,1497,-7918,1745174076110496218
133986,-2,57,52,1102,1491,-7904,1745174076110496218
134178,0,52,51,1134,1520,-7879,1745174076110496218
134370,0,49,48,1135,1517,-7894,1745174076110496218
134562,3,44,46,1152,1532,-7908,1745174076110496218
134754,4,40,43,1144,1560,-7896,1745174076110496218
134946,8,32,40,1110,1567,-7867,1745174076110496218
135138,13,30,38,1109,1559,-7909,1745174076110496218
135330,21,25,38,1117,1557,-7926,1745174076110496218
135522,27,22,36,1131,1559,-7921,1745174076110496218
135714,31,14,34,1070,1555,-7895,1745174076175195939
135906,32,14,34,1077,1509,-7894,1745174076175195939
136098,35,15,35,1080,1469,-7935,1745174076175195939
136290,34,20,36,1095,1409,-7941,1745174076175195939
136482,26,21,37,1098,1388,-7929,1745174076175195939
136674,20,21,40,1096,1398,-7893,1745174076175195939
136866,17,25,41,1080,1432,-7902,1745174076175195939
137058,11,25,42,1088,1460,-7933,1745174076175195939
137250,7,26,41,1106,1483,-7943,1745174076175195939
137442,12,27,38,1131,1502,-7934,1745174076175195939
137634,18,28,31,1138,1505,-7932,1745174076175195939
137826,21,30,21,1140,1488,-7928,1745174076175195939
138018,25,29,14,1145,1461,-7922,1745174076233500406
138210,25,27,8,1129,1458,-7935,1745174076233500406
138402,20,29,4,1133,1410,-7920,1745174076233500406
138594,16,34,5,1115,1387,-7929,1745174076233500406
138786,12,35,6,1096,1386,-7940,1745174076233500406
138978,4,35,6,1064,1377,-7926,1745174076233500406
139170,-2,37,3,1058,1399,-7937,1745174076233500406
139362,-11,40,1,1062,1400,-7947,1745174076233500406
139554,-16,43,0,1054,1433,-7933,1745174076233500406
139746,-19,45,-1,1050,1440,-7948,1745174076233500406
139938,-23,47,-2,1053,1468,-7947,1745174076233500406
140130,-25,48,-2,1057,1491,-7932,1745174076233500406
140322,-23,49,1,1090,1501,-7930,1745174076290091296
140514,-22,49,3,1106,1512,-7921,1745174076290091296
140706,-21,48,5,1120,1521,-7926,1745174076290091296
140898,-17,46,7,1130,1499,-7920,1745174076290091296
141090,-12,45,7,1148,1459,-7923,1745174076290091296
141282,-6,44,7,1140,1450,-7933,1745174076290091296
141474,-4,44,7,1125,1421,-7897,1745174076290091296
141666,-1,46,5,1120,1417,-7897,1745174076290091296
141858,0,46,5,1149,1429,-7935,1745174076290091296
142050,-3,43,6,1164,1417,-7933,1745174076290091296
142242,-5,41,8,1155,1418,-7932,1745174076290091296
142434,-6,44,9,1149,1400,-7924,1745174076290091296
142626,-6,46,7,1137,1403,-7921,1745174076347323794
142818,-7,48,5,1118,1407,-7924,1745174076347323794
143010,-11,48,2,1112,1426,-7937,1745174076347323794
143202,-15,51,0,1105,1442,-7951,1745174076347323794
143394,-18,55,-2,1100,1456,-7947,1745174076347323794
143586,-19,58,-7,1095,1467,-7946,1745174076347323794
143778,-20,61,-13,1090,1451,-7937,1745174076347323794
143970,-21,64,-19,1084,1471,-7943,1745174076347323794
144162,-24,67,-22,1092,1455,-7956,1745174076347323794
144354,-26,69,-27,1090,1445,-7958,1745174076347323794
144546,-28,73,-31,1103,1435,-7955,1745174076347323794
144738,-31,76,-33,1106,1425,-7956,1745174076347323794
144930,-33,81,-35,1094,1402,-7968,1745174076465874169
145122,-38,84,-37,1101,1388,-7961,1745174076465874169
145314,-42,88,-40,1121,1392,-7938,1745174076465874169
145506,-47,92,-42,1139,1375,-7946,1745174076465874169
145698,-53,98,-44,1158,1382,-7952,1745174076465874169
145890,-57,102,-48,1181,1396,-7968,1745174076465874169
146082,-60,105,-53,1217,1382,-7971,1745174076465874169
146274,-64,111,-60,1211,1389,-7987,1745174076465874169
146466,-68,118,-69,1202,1383,-8011,1745174076465874169
146658,-72,131,-79,1189,1389,-8050,1745174076465874169
146850,-74,146,-92,1230,1350,-8087,1745174076465874169
147042,-56,159,-106,1236,1343,-8200,1745174076465874169
147234,-54,173,-121,1213,1320,-8281,1745174076473880554
147426,-73,194,-142,1147,1252,-8346,1745174076473880554
147618,-83,228,-167,1155,1152,-8440,1745174076473880554
147810,-79,263,-192,1142,1096,-8556,1745174076473880554
148002,-69,303,-218,1143,1075,-8705,1745174076473880554
148194,-54,350,-244,1180,1044,-8749,1745174076473880554
148386,-27,399,-267,1218,1002,-8735,1745174076473880554
148578,9,455,-289,1290,921,-8867,1745174076473880554
148770,51,511,-312,1398,802,-8956,1745174076473880554
148962,99,566,-336,1583,649,-8991,1745174076473880554
149154,146,609,-353,1862,369,-8969,1745174076473880554
149346,183,629,-356,2245,-95,-9009,1745174076473880554
149538,195,603,-335,2815,-722,-9133,1745174076521913866
149730,161,527,-290,3366,-1369,-9347,1745174076521913866
149922,87,446,-224,3782,-1848,-9755,1745174076521913866
150114,-16,377,-158,3907,-2107,-10129,1745174076521913866
150306,-145,340,-108,3744,-2094,-10483,1745174076521913866
150498,-280,341,-84,3471,-1834,-10811,1745174076521913866
150690,-415,359,-88,3321,-1368,-11092,1745174076521913866
150882,-554,434,-166,3577,-792,-12611,1745174076521913866
151074,-624,515,-307,3747,-307,-12787,1745174076521913866
151266,-599,584,-410,4559,-201,-14206,1745174076521913866
151458,-438,581,-463,5322,-828,-13029,1745174076521913866
151650,-168,497,-392,5253,-986,-12267,1745174076521913866
151842,353,775,-13,5816,270,-15390,1745174076580796140
152034,1039,1017,615,7301,1369,-13398,1745174076580796140
152226,1227,963,993,8018,1069,-15358,1745174076580796140
152418,1384,733,1130,7318,113,-14746,1745174076580796140
152610,1678,414,1133,6769,-1667,-13410,1745174076580796140
152802,2146,237,1166,7746,-4627,-12487,1745174076580796140
152994,2693,71,1330,8870,-7528,-11785,1745174076580796140
153186,3123,-17,1684,9108,-9488,-11252,1745174076580796140
153378,3288,-96,2176,8792,-10803,-10865,1745174076580796140
153570,3173,-230,2638,8190,-11572,-10574,1745174076580796140
153762,2787,-383,2908,7191,-11747,-10603,1745174076580796140
153954,2110,-417,3059,6446,-12615,-9980,1745174076580796140
154146,1566,-456,3238,6871,-13384,-9839,1745174076643335048
154338,1042,-464,3264,6030,-12458,-10127,1745174076643335048
154530,414,-339,3393,5951,-11811,-10107,1745174076643335048
154722,-127,-399,3564,6342,-11306,-9770,1745174076643335048
154914,-566,-457,3726,7018,-10286,-10377,1745174076643335048
155106,-825,-604,3841,7461,-9193,-9994,1745174076643335048
155298,-1095,-704,3894,7943,-8322,-10037,1745174076643335048
155490,-1293,-817,3854,8300,-7295,-10182,1745174076643335048
155682,-1373,-933,3784,8191,-5851,-9589,1745174076643335048
155874,-1404,-969,3773,8094,-4746,-9680,1745174076643335048
156066,-1323,-1008,3804,7793,-3505,-9356,1745174076643335048
156258,-1173,-1030,3888,7444,-2390,-9115,1745174076643335048
156450,-949,-1049,4042,7272,-1436,-8915,1745174076697796842
156642,-685,-1103,4221,7263,-737,-8748,1745174076697796842
156834,-399,-1210,4231,7237,-348,-8639,1745174076697796842
157026,-126,-1181,4300,7719,-416,-8368,1745174076697796842
157218,115,-1168,4468,8020,-528,-7964,1745174076697796842
157410,296,-1130,4619,8028,-545,-7990,1745174076697796842
157602,449,-1098,4689,7614,-367,-7917,1745174076697796842
157794,564,-1029,4684,7147,-99,-7900,1745174076697796842
157986,641,-946,4672,6902,-2,-7845,1745174076697796842
158178,715,-860,4671,6905,224,-7677,1745174076697796842
158370,745,-782,4649,6982,307,-7404,1745174076697796842
158562,745,-692,4655,7116,493,-7172,1745174076697796842
158754,707,-620,4689,7257,739,-6796,1745174076769848059
158946,652,-538,4731,7393,1018,-6551,1745174076769848059
159138,583,-447,4767,7477,1311,-6261,1745174076769848059
159330,515,-376,4800,7732,1559,-6238,1745174076769848059
159522,453,-330,4825,7909,1809,-6052,1745174076769848059
159714,396,-285,4845,8193,1917,-5979,1745174076769848059
159906,359,-263,4851,8392,1989,-5876,1745174076769848059
160098,343,-243,4839,8496,2049,-5750,1745174076769848059
160290,337,-217,4805,8468,2145,-5747,1745174076769848059
160482,333,-184,4759,8360,2362,-5695,1745174076769848059
160674,328,-140,4715,8248,2657,-5703,1745174076769848059
160866,312,-93,4668,8198,2997,-5705,1745174076769848059
161058,279,-41,4620,8181,3325,-5709,1745174076816254562
161250,234,12,4575,8159,3593,-5692,1745174076816254562
161442,188,61,4539,8120,3805,-5658,1745174076816254562
161634,141,108,4513,8005,4023,-5483,1745174076816254562
161826,76,154,4495,7863,4120,-5429,1745174076816254562
162018,-8,203,4490,7630,4172,-5305,1745174076816254562
162210,-86,261,4487,7371,4229,-5137,1745174076816254562
162402,-157,333,4478,7063,4354,-5050,1745174076816254562
162594,-221,415,4458,6746,4547,-5033,1745174076816254562
162786,-272,485,4427,6528,4700,-5039,1745174076816254562
162978,-304,537,4386,6386,4788,-5008,1745174076816254562
163170,-322,570,4339,6334,4751,-4991,1745174076816254562
163362,-322,582,4289,6248,4684,-4825,1745174076873023262
163554,-317,585,4235,6207,4617,-4791,1745174076873023262
163746,-321,576,4169,6164,4450,-4859,1745174076873023262
163938,-325,566,4090,6016,4377,-4948,1745174076873023262
164130,-339,548,4009,5813,4305,-4961,1745174076873023262
164322,-371,532,3929,5504,4267,-4937,1745174076873023262
164514,-420,524,3852,5149,4349,-4936,1745174076873023262
164706,-482,515,3779,4764,4509,-4818,1745174076873023262
164898,-551,496,3708,4427,4688,-4850,1745174076873023262
165090,-622,468,3642,4162,4839,-4964,1745174076873023262
165282,-682,431,3578,3843,4976,-5065,1745174076873023262
165474,-721,392,3507,3523,5107,-5287,1745174076873023262
165666,-735,351,3429,3169,5181,-5474,1745174076951436244
165858,-735,312,3343,2888,5196,-5598,1745174076951436244
166050,-726,275,3240,2591,5186,-5634,1745174076951436244
166242,-708,248,3132,2266,5148,-5673,1745174076951436244
166434,-678,231,3024,1929,5151,-5716,1745174076951436244
166626,-634,217,2906,1632,5175,-5750,1745174076951436244
166818,-583,212,2777,1308,5263,-5867,1745174076951436244
167010,-527,209,2648,1071,5301,-5992,1745174076951436244
167202,-474,199,2512,855,5276,-6140,1745174076951436244
167394,-419,196,2373,626,5275,-6303,1745174076951436244
167586,-368,192,2233,389,5240,-6441,1745174076951436244
167778,-320,189,2093,237,5141,-6628,1745174076951436244
167970,-270,188,1956,83,4999,-6692,1745174076992159049
168162,-216,188,1826,-18,4844,-6719,1745174076992159049
168354,-165,189,1696,-120,4697,-6776,1745174076992159049
168546,-119,190,1568,-223,4570,-6890,1745174076992159049
168738,-77,190,1444,-310,4384,-6976,1745174076992159049
168930,-34,189,1330,-407,4187,-7057,1745174076992159049
169122,16,181,1231,-430,3993,-7091,1745174076992159049
169314,61,183,1142,-418,3735,-7148,1745174076992159049
169506,98,192,1061,-372,3475,-7246,1745174076992159049
169698,125,200,990,-235,3218,-7306,1745174076992159049
169890,139,209,928,-104,2930,-7367,1745174076992159049
170082,143,211,876,15,2658,-7364,1745174076992159049
170274,137,213,834,100,2414,-7322,1745174077047931717
170466,125,216,798,173,2145,-7293,1745174077047931717
170658,101,218,766,243,1918,-7311,1745174077047931717
170850,69,219,736,302,1688,-7300,1745174077047931717
171042,34,212,705,321,1548,-7272,1745174077047931717
171234,7,206,676,284,1504,-7167,1745174077047931717
171426,-11,199,644,270,1526,-7281,1745174077047931717
171618,-19,186,606,313,1587,-7388,1745174077047931717
171810,-23,160,563,422,1635,-7461,1745174077047931717
172002,-34,129,496,584,1553,-7558,1745174077047931717
172194,-57,98,392,456,1511,-7576,1745174077047931717
172386,-84,85,299,178,1505,-7619,1745174077047931717
172578,-99,107,278,-248,1638,-7694,1745174077109319802
172770,-96,154,345,-297,1623,-7786,1745174077109319802
172962,-99,148,416,129,1561,-7807,1745174077109319802
173154,-109,105,437,494,1514,-7809,1745174077109319802
173346,-117,76,417,529,1551,-7823,1745174077109319802
173538,-112,72,389,363,1587,-7875,1745174077109319802
173730,-98,83,371,132,1639,-8002,1745174077109319802
173922,-84,87,352,-45,1602,-8075,1745174077109319802
174114,-67,98,319,-131,1468,-8066,1745174077109319802
174306,-46,115,282,-111,1327,-8081,1745174077109319802
174498,-26,130,256,-13,1259,-8094,1745174077109319802
174690,-14,141,244,84,1220,-8028,1745174077109319802
174882,-7,147,230,172,1236,-7983,1745174077160786519
175074,5,153,205,164,1242,-7941,1745174077160786519
175266,22,157,174,159,1243,-7883,1745174077160786519
175458,40,159,147,208,1172,-7883,1745174077160786519
175650,55,161,123,273,1030,-7932,1745174077160786519
175842,72,162,109,331,895,-7985,1745174077160786519
176034,86,159,103,382,779,-8004,1745174077160786519
176226,94,153,92,411,684,-8034,1745174077160786519
176418,96,149,78,362,644,-8086,1745174077160786519
176610,100,149,66,314,622,-8125,1745174077160786519
176802,106,152,54,279,575,-8148,1745174077160786519
176994,110,157,53,287,520,-8183,1745174077160786519
177186,114,161,60,282,487,-8176,1745174077229862138
177378,116,161,66,307,411,-8137,1745174077229862138
177570,115,161,65,367,333,-8097,1745174077229862138
177762,112,161,52,428,272,-8089,1745174077229862138
177954,108,164,32,492,205,-8088,1745174077229862138
178146,101,163,10,533,140,-8047,1745174077229862138
178338,94,162,-8,557,80,-8088,1745174077229862138
178530,82,163,-24,563,5,-8082,1745174077229862138
178722,70,166,-42,570,-49,-8046,1745174077229862138
178914,58,172,-61,561,-57,-8048,1745174077229862138
179106,48,177,-79,543,-110,-8079,1745174077229862138
179298,43,179,-89,503,-128,-8079,1745174077229862138
179490,45,181,-90,498,-147,-8067,1745174077281094482
179682,45,186,-87,487,-154,-8046,1745174077281094482
179874,42,193,-79,513,-172,-8061,1745174077281094482
180066,39,200,-71,529,-192,-8063,1745174077281094482
180258,42,216,-67,551,-161,-8094,1745174077281094482
180450,46,234,-69,583,-136,-8131,1745174077281094482
180642,50,252,-75,597,-96,-8126,1745174077281094482
180834,54,268,-84,647,-102,-8074,1745174077281094482
181026,62,282,-94,697,-149,-8015,1745174077281094482
181218,74,294,-103,728,-228,-7933,1745174077281094482
181410,89,301,-114,824,-318,-7909,1745174077281094482
181602,109,303,-127,873,-406,-7893,1745174077281094482
181794,128,305,-142,875,-470,-7877,1745174077341539816
181986,141,305,-155,838,-510,-7923,1745174077341539816
182178,148,303,-170,856,-525,-7949,1745174077341539816
182370,152,298,-186,844,-523,-7967,1745174077341539816
182562,157,294,-197,823,-478,-8012,1745174077341539816
182754,168,294,-195,861,-429,-8019,1745174077341539816
182946,180,294,-179,919,-372,-8030,1745174077341539816
183138,190,292,-158,978,-343,-8060,1745174077341539816
183330,203,283,-138,1053,-348,-8065,1745174077341539816
183522,218,271,-124,1141,-427,-8097,1745174077341539816
183714,231,258,-116,1195,-549,-8103,1745174077341539816
183906,236,243,-117,1221,-701,-8110,1745174077341539816
184098,230,228,-125,1224,-877,-8115,1745174077398408150
184290,219,213,-133,1171,-992,-8111,1745174077398408150
184482,202,204,-140,1107,-1083,-8181,1745174077398408150
184674,178,201,-142,1073,-1109,-8215,1745174077398408150
184866,153,203,-140,1114,-1127,-8251,1745174077398408150
185058,127,204,-138,1141,-1106,-8265,1745174077398408150
185250,107,198,-133,1180,-1077,-8263,1745174077398408150
185442,97,190,-127,1200,-1029,-8262,1745174077398408150
185634,91,180,-118,1207,-979,-8275,1745174077398408150
185826,86,170,-111,1231,-961,-8229,1745174077398408150
186018,88,160,-108,1261,-980,-8244,1745174077398408150
186210,105,149,-107,1323,-1030,-8243,1745174077398408150
186402,122,133,-110,1373,-1084,-8223,1745174077468182930
186594,135,115,-115,1396,-1122,-8271,1745174077468182930
186786,140,97,-122,1373,-1128,-8297,1745174077468182930
186978,138,83,-130,1331,-1131,-8269,1745174077468182930
187170,135,74,-132,1292,-1162,-8258,1745174077468182930
187362,130,67,-130,1280,-1220,-8246,1745174077468182930
187554,121,62,-128,1302,-1253,-8255,1745174077468182930
187746,109,59,-121,1324,-1285,-8255,1745174077468182930
187938,95,57,-112,1331,-1288,-8248,1745174077468182930
188130,79,55,-104,1343,-1290,-8258,1745174077468182930
188322,64,54,-98,1351,-1275,-8277,1745174077468182930
188514,54,54,-95,1360,-1267,-8262,1745174077468182930
188706,48,52,-93,1340,-1231,-8247,1745174077518463043
188898,46,51,-91,1349,-1225,-8261,1745174077518463043
189090,49,52,-88,1340,-1213,-8240,1745174077518463043
189282,54,53,-82,1333,-1172,-8220,1745174077518463043
189474,61,51,-77,1325,-1155,-8207,1745174077518463043
189666,69,47,-72,1329,-1137,-8162,1745174077518463043
189858,80,43,-67,1361,-1136,-8135,1745174077518463043
190050,91,40,-59,1376,-1129,-8129,1745174077518463043
190242,100,35,-49,1402,-1145,-8120,1745174077518463043
190434,105,24,-42,1417,-1180,-8103,1745174077518463043
190626,105,13,-39,1397,-1229,-8094,1745174077518463043
190818,102,6,-37,1341,-1245,-8089,1745174077518463043
191010,97,5,-36,1275,-1254,-8125,1745174077587771056
191202,85,6,-34,1243,-1262,-8124,1745174077587771056
191394,70,8,-31,1231,-1247,-8149,1745174077587771056
191586,58,10,-28,1230,-1243,-8145,1745174077587771056
191778,46,9,-27,1261,-1247,-8169,1745174077587771056
191970,39,10,-29,1264,-1216,-8187,1745174077587771056
192162,38,12,-33,1275,-1167,-8186,1745174077587771056
192354,39,15,-36,1252,-1112,-8189,1745174077587771056
192546,41,14,-42,1265,-1070,-8195,1745174077587771056
192738,45,13,-46,1272,-1065,-8163,1745174077587771056
192930,47,12,-49,1301,-1071,-8109,1745174077587771056
193122,50,11,-50,1321,-1109,-8077,1745174077587771056
193314,51,6,-48,1330,-1138,-8045,1745174077635490516
193506,48,-2,-48,1291,-1146,-8039,1745174077635490516
193698,43,-9,-48,1275,-1140,-8008,1745174077635490516
193890,36,-14,-49,1247,-1158,-8014,1745174077635490516
194082,28,-17,-50,1214,-1141,-8017,1745174077635490516
194274,23,-20,-49,1210,-1106,-8021,1745174077635490516
194466,19,-20,-46,1180,-1058,-8026,1745174077635490516
194658,18,-19,-43,1179,-1040,-8036,1745174077635490516
194850,21,-19,-39,1210,-1013,-8042,1745174077635490516
195042,24,-19,-37,1261,-1034,-8069,1745174077635490516
195234,32,-18,-38,1296,-1051,-8078,1745174077635490516
195426,42,-20,-41,1290,-1093,-8063,1745174077635490516
195618,49,-27,-45,1269,-1100,-8062,1745174077691137664
195810,55,-31,-51,1230,-1130,-8046,1745174077691137664
196002,57,-27,-54,1187,-1153,-8013,1745174077691137664
196194,54,-22,-54,1196,-1202,-7975,1745174077691137664
196386,50,-21,-53,1202,-1255,-7940,1745174077691137664
196578,43,-18,-53,1208,-1287,-7929,1745174077691137664
196770,32,-16,-51,1200,-1304,-7913,1745174077691137664
196962,23,-13,-46,1195,-1295,-7899,1745174077691137664
197154,16,-8,-42,1186,-1267,-7920,1745174077691137664
197346,13,-2,-38,1184,-1230,-7927,1745174077691137664
197538,12,2,-34,1196,-1198,-7918,1745174077691137664
197730,17,8,-30,1198,-1136,-7916,1745174077691137664
197922,25,13,-25,1230,-1106,-7930,1745174077748669065
198114,33,14,-23,1242,-1095,-7939,1745174077748669065
198306,40,12,-23,1254,-1084,-7958,1745174077748669065
198498,48,9,-24,1213,-1082,-7968,1745174077748669065
198690,56,7,-27,1147,-1088,-7964,1745174077748669065
198882,61,6,-31,1108,-1091,-7934,1745174077748669065
199074,61,8,-35,1120,-1132,-7932,1745174077748669065
199266,60,13,-35,1152,-1191,-7917,1745174077748669065
199458,56,16,-33,1231,-1252,-7874,1745174077748669065
199650,50,16,-30,1281,-1293,-7842,1745174077748669065
199842,42,13,-27,1312,-1328,-7822,1745174077748669065
200034,33,9,-26,1290,-1328,-7835,1745174077748669065
200226,21,6,-27,1248,-1307,-7855,1745174077871869294
200418,8,6,-30,1218,-1278,-7841,1745174077871869294
200610,0,4,-29,1203,-1263,-7800,1745174077871869294
200802,-3,1,-24,1219,-1263,-7804,1745174077871869294
200994,-3,1,-19,1230,-1263,-7827,1745174077871869294
201186,-2,2,-14,1239,-1224,-7848,1745174077871869294
201378,-5,2,-11,1248,-1184,-7900,1745174077871869294
201570,-6,0,-12,1218,-1136,-7900,1745174077871869294
201762,-2,-2,-13,1185,-1101,-7887,1745174077871869294
201954,1,-4,-13,1184,-1109,-7883,1745174077871869294
202146,2,-5,-13,1181,-1139,-7873,1745174077871869294
202338,4,-4,-11,1190,-1176,-7881,1745174077871869294
202530,2,-5,-10,1209,-1194,-7891,1745174077890694539
202722,-5,-5,-8,1204,-1193,-7882,1745174077890694539
202914,-11,-4,-5,1227,-1193,-7870,1745174077890694539
203106,-15,-2,-2,1229,-1179,-7858,1745174077890694539
203298,-19,0,0,1233,-1150,-7851,1745174077890694539
203490,-24,1,1,1236,-1148,-7866,1745174077890694539
203682,-26,3,1,1222,-1150,-7883,1745174077890694539
203874,-20,5,0,1200,-1138,-7899,1745174077890694539
204066,-17,8,-3,1188,-1103,-7913,1745174077890694539
204258,-15,13,-6,1159,-1050,-7940,1745174077890694539
204450,-12,19,-10,1162,-1018,-7932,1745174077890694539
204642,-7,21,-11,1176,-1006,-7933,1745174077890694539
204834,3,22,-12,1197,-985,-7947,1745174077926675043
205026,13,22,-15,1193,-952,-7948,1745174077926675043
205218,19,22,-18,1210,-918,-7951,1745174077926675043
205410,25,21,-21,1231,-930,-7937,1745174077926675043
205602,28,19,-23,1252,-961,-7916,1745174077926675043
205794,33,15,-24,1265,-1001,-7909,1745174077926675043
205986,37,10,-25,1258,-1027,-7904,1745174077926675043
206178,37,8,-25,1230,-1033,-7904,1745174077926675043
206370,33,8,-28,1210,-1033,-7905,1745174077926675043
206562,30,7,-31,1201,-1040,-7888,1745174077926675043
206754,24,3,-33,1218,-1090,-7866,1745174077926675043
206946,17,1,-36,1226,-1124,-7864,1745174077926675043
207138,10,2,-37,1219,-1161,-7893,1745174077982342868
207330,4,5,-37,1219,-1153,-7921,1745174077982342868
207522,-1,8,-36,1196,-1124,-7914,1745174077982342868
207714,-6,12,-34,1197,-1084,-7896,1745174077982342868
207906,-8,15,-31,1218,-1067,-7882,1745174077982342868
208098,-8,14,-29,1252,-1093,-7881,1745174077982342868
208290,-6,14,-26,1280,-1113,-7884,1745174077982342868
208482,-3,15,-26,1275,-1143,-7888,1745174077982342868
208674,-5,18,-25,1273,-1150,-7919,1745174077982342868
208866,-6,21,-24,1238,-1145,-7931,1745174077982342868
209058,-7,24,-24,1218,-1142,-7931,1745174077982342868
209250,-9,28,-25,1197,-1122,-7934,1745174077982342868
209442,-11,32,-26,1201,-1112,-7919,1745174078044629174
209634,-10,35,-26,1217,-1127,-7927,1745174078044629174
209826,-7,37,-25,1248,-1104,-7936,1745174078044629174
210018,-5,39,-23,1276,-1077,-7935,1745174078044629174
210210,-4,39,-21,1295,-1069,-7953,1745174078044629174
210402,1,38,-19,1303,-1041,-7956,1745174078044629174
210594,8,35,-16,1283,-1030,-7963,1745174078044629174
210786,17,34,-14,1245,-1007,-7962,1745174078044629174
210978,24,34,-12,1227,-1007,-7944,1745174078044629174
211170,31,32,-12,1253,-1036,-7957,1745174078044629174
211362,38,31,-11,1255,-1058,-7971,1745174078044629174
211554,43,28,-12,1269,-1087,-7980,1745174078044629174
211746,44,26,-14,1270,-1106,-7973,1745174078098070509
211938,41,26,-17,1260,-1118,-7995,1745174078098070509
212130,37,25,-21,1250,-1100,-8013,1745174078098070509
212322,32,24,-24,1221,-1079,-8000,1745174078098070509
212514,27,23,-26,1197,-1069,-7971,1745174078098070509
212706,25,23,-27,1209,-1082,-7968,1745174078098070509
212898,24,25,-27,1226,-1092,-7995,1745174078098070509
213090,25,28,-27,1259,-1094,-8031,1745174078098070509
213282,24,31,-27,1302,-1105,-8045,1745174078098070509
213474,23,30,-29,1321,-1103,-8038,1745174078098070509
213666,25,28,-30,1342,-1110,-8026,1745174078098070509
213858,30,24,-33,1349,-1142,-8010,1745174078098070509
214050,33,21,-35,1350,-1176,-7989,1745174078156509611
214242,33,19,-36,1345,-1207,-7982,1745174078156509611
214434,28,16,-37,1316,-1225,-7992,1745174078156509611
214626,26,16,-37,1295,-1223,-7996,1745174078156509611
214818,25,18,-35,1284,-1218,-8009,1745174078156509611
215010,20,18,-31,1323,-1211,-8000,1745174078156509611
215202,17,16,-26,1347,-1236,-8010,1745174078156509611
215394,18,12,-21,1375,-1277,-8042,1745174078156509611
215586,21,9,-18,1343,-1251,-8059,1745174078156509611
215778,21,7,-17,1299,-1223,-8073,1745174078156509611
215970,19,7,-15,1266,-1195,-8066,1745174078156509611
216162,20,10,-11,1237,-1193,-8063,1745174078156509611
216354,22,12,-6,1244,-1187,-8043,1745174078217784624
216546,22,13,-3,1278,-1180,-8025,1745174078217784624
216738,20,13,0,1311,-1186,-8019,1745174078217784624
216930,20,12,0,1318,-1177,-7999,1745174078217784624
217122,20,11,-3,1303,-1130,-8002,1745174078217784624
217314,18,7,-10,1276,-1114,-7991,1745174078217784624
217506,14,5,-15,1241,-1128,-7976,1745174078217784624
217698,14,4,-19,1258,-1152,-7963,1745174078217784624
217890,13,3,-20,1276,-1174,-7940,1745174078217784624
218082,11,0,-23,1304,-1234,-7922,1745174078217784624
218274,8,-3,-25,1321,-1273,-7915,1745174078217784624
218466,4,-4,-26,1312,-1273,-7923,1745174078217784624
218658,-3,-4,-26,1289,-1250,-7944,1745174078281952423
218850,-14,-1,-27,1292,-1226,-7944,1745174078281952423
219042,-19,1,-25,1288,-1218,-7927,1745174078281952423
219234,-17,2,-21,1315,-1198,-7921,1745174078281952423
219426,-14,4,-16,1315,-1179,-7930,1745174078281952423
219618,-10,3,-13,1317,-1150,-7953,1745174078281952423
219810,-6,1,-10,1293,-1154,-7969,1745174078281952423
220002,-1,-1,-11,1268,-1137,-7985,1745174078281952423
220194,7,3,-12,1228,-1117,-7977,1745174078281952423
220386,16,8,-10,1236,-1129,-7986,1745174078281952423
220578,20,10,-9,1272,-1153,-7972,1745174078281952423
220770,23,11,-7,1321,-1190,-7935,1745174078281952423
220962,26,11,-5,1353,-1230,-7918,1745174078338289929
221154,29,11,-4,1363,-1236,-7926,1745174078338289929
221346,28,8,-5,1353,-1233,-7919,1745174078338289929
221538,23,4,-7,1321,-1241,-7909,1745174078338289929
221730,17,0,-9,1281,-1279,-7909,1745174078338289929
221922,14,0,-10,1254,-1299,-7934,1745174078338289929
222114,11,3,-9,1230,-1272,-7963,1745174078338289929
222306,4,7,-8,1216,-1242,-7982,1745174078338289929
222498,-3,9,-7,1243,-1233,-7961,1745174078338289929
222690,-7,9,-4,1288,-1240,-7949,1745174078338289929
222882,-6,8,-2,1325,-1246,-7931,1745174078338289929
223074,-6,7,-1,1334,-1207,-7938,1745174078338289929
223266,-8,6,-3,1327,-1183,-7931,1745174078456662962
223458,-8,3,-5,1304,-1176,-7928,1745174078456662962
223650,-4,2,-5,1267,-1160,-7944,1745174078456662962
223842,1,4,-5,1248,-1159,-7964,1745174078456662962
224034,6,9,-5,1238,-1161,-7969,1745174078456662962
224226,8,13,-4,1266,-1163,-7956,1745174078456662962
224418,13,15,-3,1298,-1184,-7919,1745174078456662962
224610,17,16,-1,1320,-1188,-7917,1745174078456662962
224802,21,14,0,1319,-1195,-7912,1745174078456662962
224994,27,14,0,1309,-1214,-7904,1745174078456662962
225186,30,15,1,1311,-1200,-7922,1745174078456662962
225378,30,16,4,1316,-1213,-7910,1745174078456662962
225570,27,17,6,1308,-1237,-7905,1745174078469007068
225762,25,18,11,1296,-1256,-7906,1745174078469007068
225954,22,17,14,1301,-1250,-7929,1745174078469007068
226146,17,16,14,1296,-1226,-7945,1745174078469007068
226338,12,15,13,1276,-1198,-7927,1745174078469007068
226530,6,16,12,1265,-1191,-7932,1745174078469007068
226914,6,16,9,1306,-1158,-7929,1745174078469007068
227106,9,14,6,1294,-1139,-7958,1745174078469007068
227298,13,12,3,1295,-1107,-7962,1745174078469007068
227490,17,11,-1,1291,-1124,-7993,1745174078469007068
227682,21,12,-4,1276,-1118,-8009,1745174078469007068
227874,25,13,-5,1259,-1113,-7994,1745174078469007068
228258,31,17,-9,1279,-1159,-7975,1745174078518016621
228450,35,19,-8,1292,-1194,-7953,1745174078518016621
228642,37,21,-8,1332,-1224,-7961,1745174078518016621
228834,34,20,-9,1366,-1236,-7948,1745174078518016621
229026,30,16,-11,1346,-1239,-7937,1745174078518016621
229218,24,14,-13,1309,-1236,-7952,1745174078518016621
229410,20,11,-15,1269,-1214,-7950,1745174078518016621
229602,18,10,-15,1246,-1203,-7951,1745174078518016621
229794,13,9,-14,1258,-1202,-7972,1745174078518016621
229986,8,9,-12,1279,-1211,-7976,1745174078518016621
230178,7,11,-8,1289,-1205,-7984,1745174078518016621
230370,8,12,-5,1313,-1160,-7993,1745174078518016621
230562,7,11,-3,1317,-1120,-8001,1745174078578449194
230754,8,10,-4,1340,-1115,-7978,1745174078578449194
230946,12,6,-5,1370,-1162,-7972,1745174078578449194
231138,21,1,-7,1390,-1206,-7947,1745174078578449194
231330,29,-2,-9,1377,-1208,-7950,1745174078578449194
231522,29,-8,-12,1334,-1233,-7956,1745174078578449194
231714,26,-12,-14,1291,-1244,-7967,1745174078578449194
231906,23,-13,-15,1242,-1250,-7971,1745174078578449194
232098,18,-12,-14,1212,-1246,-7985,1745174078578449194
232290,13,-9,-13,1196,-1247,-8024,1745174078578449194
232482,8,-4,-13,1231,-1212,-8021,1745174078578449194
232674,6,-2,-12,1267,-1182,-8016,1745174078578449194
232866,7,-1,-10,1312,-1179,-7985,1745174078637489436
233058,8,-1,-11,1355,-1173,-7962,1745174078637489436
233250,12,-2,-11,1358,-1174,-7970,1745174078637489436
233442,18,-5,-12,1340,-1175,-7980,1745174078637489436
233634,23,-7,-15,1324,-1171,-8007,1745174078637489436
233826,29,-10,-16,1321,-1186,-8005,1745174078637489436
234018,30,-10,-18,1285,-1217,-8006,1745174078637489436
234210,30,-9,-19,1288,-1235,-7993,1745174078637489436
234402,25,-8,-21,1287,-1271,-7964,1745174078637489436
234594,19,-8,-23,1283,-1319,-7945,1745174078637489436
234786,12,-9,-23,1278,-1322,-7932,1745174078637489436
234978,4,-7,-23,1252,-1299,-7933,1745174078637489436
235170,-7,-6,-22,1269,-1289,-7934,1745174078693313665
235362,-17,-6,-19,1260,-1256,-7901,1745174078693313665
235554,-24,-6,-16,1278,-1260,-7882,1745174078693313665
235746,-26,-8,-14,1274,-1240,-7879,1745174078693313665
235938,-25,-10,-13,1263,-1200,-7856,1745174078693313665
236130,-24,-9,-13,1268,-1188,-7843,1745174078693313665
236322,-21,-8,-13,1301,-1201,-7851,1745174078693313665
236514,-16,-9,-12,1301,-1222,-7844,1745174078693313665
236706,-10,-11,-13,1298,-1238,-7851,1745174078693313665
236898,-7,-11,-14,1278,-1235,-7847,1745174078693313665
237090,-8,-8,-15,1262,-1210,-7851,1745174078693313665
237282,-7,-4,-17,1246,-1197,-7857,1745174078693313665
237474,-1,-1,-19,1264,-1218,-7849,1745174078758585621
237666,6,2,-21,1274,-1223,-7847,1745174078758585621
237858,9,5,-22,1276,-1234,-7862,1745174078758585621
238050,10,9,-23,1295,-1240,-7890,1745174078758585621
238242,11,13,-22,1308,-1242,-7897,1745174078758585621
238434,12,16,-22,1306,-1254,-7886,1745174078758585621
238626,14,16,-22,1303,-1266,-7877,1745174078758585621
238818,15,14,-22,1270,-1282,-7836,1745174078758585621
239010,13,14,-20,1221,-1305,-7836,1745174078758585621
239202,11,18,-19,1204,-1307,-7854,1745174078758585621
239394,8,23,-16,1194,-1306,-7888,1745174078758585621
239586,5,29,-14,1214,-1302,-7906,1745174078758585621
239778,1,32,-10,1248,-1279,-7890,1745174078817555447
239970,-1,32,-7,1269,-1264,-7861,1745174078817555447
240162,1,33,-4,1281,-1245,-7876,1745174078817555447
240354,6,34,-2,1276,-1215,-7881,1745174078817555447
240546,11,34,-2,1288,-1190,-7868,1745174078817555447
240738,19,32,-2,1295,-1160,-7842,1745174078817555447
240930,26,31,-3,1273,-1151,-7828,1745174078817555447
241122,32,29,-3,1275,-1148,-7850,1745174078817555447
241314,37,27,-5,1307,-1154,-7850,1745174078817555447
241506,40,24,-7,1302,-1195,-7845,1745174078817555447
241698,42,22,-11,1312,-1228,-7861,1745174078817555447
241890,42,20,-15,1331,-1232,-7886,1745174078817555447
242082,40,16,-18,1299,-1244,-7893,1745174078868916905
242274,38,13,-22,1275,-1272,-7879,1745174078868916905
242466,35,11,-24,1248,-1274,-7879,1745174078868916905
242658,31,13,-24,1221,-1317,-7869,1745174078868916905
242850,27,15,-21,1239,-1372,-7867,1745174078868916905
243042,23,18,-16,1244,-1398,-7889,1745174078868916905
243234,17,24,-12,1245,-1381,-7873,1745174078868916905
243426,9,29,-7,1262,-1349,-7888,1745174078868916905
243618,3,33,-3,1259,-1307,-7868,1745174078868916905
243810,2,36,0,1274,-1265,-7861,1745174078868916905
244002,4,38,3,1306,-1243,-7875,1745174078868916905
244194,10,37,5,1353,-1255,-7901,1745174078868916905
244386,16,37,5,1376,-1250,-7910,1745174078929261249
244578,23,35,4,1378,-1258,-7938,1745174078929261249
244770,30,33,2,1360,-1231,-7976,1745174078929261249
244962,34,31,-2,1319,-1213,-7983,1745174078929261249
245154,38,29,-7,1274,-1207,-7981,1745174078929261249
245346,42,27,-10,1258,-1212,-7958,1745174078929261249
245538,45,27,-13,1265,-1239,-7944,1745174078929261249
245730,45,26,-14,1266,-1259,-7921,1745174078929261249
245922,41,24,-14,1310,-1301,-7931,1745174078929261249
246114,37,23,-13,1302,-1305,-7951,1745174078929261249
246306,34,22,-13,1294,-1286,-7955,1745174078929261249
246498,30,21,-13,1313,-1281,-7961,1745174078929261249
246690,27,20,-13,1328,-1297,-7956,1745174078999244673
246882,26,17,-12,1338,-1335,-7943,1745174078999244673
247074,24,15,-13,1347,-1341,-7943,1745174078999244673
247266,19,14,-12,1333,-1354,-7942,1745174078999244673
247458,14,12,-13,1349,-1368,-7932,1745174078999244673
247650,12,11,-14,1349,-1374,-7903,1745174078999244673
247842,9,9,-14,1328,-1377,-7896,1745174078999244673
248034,3,7,-13,1311,-1387,-7915,1745174078999244673
248226,-6,9,-13,1287,-1362,-7913,1745174078999244673
248418,-11,11,-12,1277,-1342,-7926,1745174078999244673
248610,-15,14,-10,1277,-1326,-7928,1745174078999244673
248802,-16,16,-10,1303,-1327,-7919,1745174078999244673
248994,-14,18,-8,1317,-1307,-7909,1745174079055018069
249378,-7,18,-8,1352,-1290,-7934,1745174079055018069
249570,-2,18,-10,1356,-1293,-7960,1745174079055018069
249762,4,17,-13,1347,-1310,-7941,1745174079055018069
249954,8,15,-14,1361,-1346,-7938,1745174079055018069
250146,12,14,-16,1329,-1367,-7945,1745174079055018069
250338,14,16,-17,1324,-1356,-7956,1745174079055018069
250530,12,20,-16,1326,-1326,-7945,1745174079055018069
250722,7,24,-16,1358,-1312,-7962,1745174079055018069
250914,6,27,-14,1402,-1369,-7949,1745174079055018069
251106,9,25,-12,1409,-1371,-7955,1745174079055018069
251298,14,20,-10,1395,-1348,-7956,1745174079055018069
251490,15,16,-10,1345,-1329,-7937,1745174079111599323
251682,14,14,-10,1304,-1348,-7918,1745174079111599323
251874,14,13,-8,1287,-1403,-7878,1745174079111599323
252066,15,15,-7,1333,-1455,-7898,1745174079111599323
252258,15,19,-5,1345,-1455,-7940,1745174079111599323
252450,12,22,-3,1367,-1451,-7940,1745174079111599323
252642,7,24,-2,1377,-1425,-7938,1745174079111599323
252834,3,24,-2,1397,-1415,-7942,1745174079111599323
253026,3,23,-3,1394,-1393,-7939,1745174079111599323
253218,5,21,-4,1363,-1388,-7985,1745174079111599323
253410,9,20,-5,1324,-1342,-7989,1745174079111599323
253602,14,20,-6,1318,-1349,-7992,1745174079111599323
253794,21,21,-5,1322,-1371,-7990,1745174079172421476
253986,28,20,-3,1345,-1389,-7993,1745174079172421476
254178,31,20,0,1363,-1384,-8001,1745174079172421476
254370,32,17,3,1384,-1378,-7977,1745174079172421476
254562,33,13,5,1392,-1390,-7940,1745174079172421476
254754,34,7,7,1409,-1427,-7916,1745174079172421476
254946,33,1,7,1412,-1444,-7881,1745174079172421476
255138,25,-2,6,1412,-1454,-7898,1745174079172421476
255330,15,-7,6,1402,-1477,-7899,1745174079172421476
255522,5,-11,5,1360,-1462,-7929,1745174079172421476
255714,-5,-13,4,1325,-1439,-7929,1745174079172421476
255906,-14,-13,4,1307,-1410,-7925,1745174079172421476
256098,-20,-14,5,1310,-1375,-7919,1745174079234369452
256290,-23,-12,4,1331,-1374,-7921,1745174079234369452
256482,-21,-11,5,1366,-1361,-7906,1745174079234369452
256674,-19,-9,6,1410,-1375,-7895,1745174079234369452
256866,-15,-10,6,1406,-1354,-7883,1745174079234369452
257058,-11,-12,6,1384,-1329,-7863,1745174079234369452
257250,-7,-12,5,1355,-1311,-7841,1745174079234369452
257442,-3,-10,7,1340,-1310,-7833,1745174079234369452
257634,1,-7,8,1293,-1334,-7822,1745174079234369452
257826,4,-6,10,1310,-1341,-7797,1745174079234369452
258018,2,-6,10,1313,-1343,-7787,1745174079234369452
258210,-1,-1,11,1319,-1344,-7803,1745174079234369452
258402,0,6,11,1339,-1347,-7840,1745174079288319063
258594,2,9,11,1348,-1327,-7860,1745174079288319063
258786,3,8,9,1334,-1294,-7868,1745174079288319063
258978,6,8,7,1299,-1258,-7856,1745174079288319063
259170,11,8,6,1270,-1203,-7861,1745174079288319063
259362,16,11,5,1264,-1196,-7874,1745174079288319063
259554,21,13,4,1275,-1222,-7869,1745174079288319063
259746,28,15,5,1314,-1235,-7867,1745174079288319063
259938,32,15,6,1344,-1256,-7860,1745174079288319063
260130,34,15,5,1342,-1237,-7850,1745174079288319063
260322,33,14,4,1342,-1231,-7855,1745174079288319063
260514,34,11,1,1329,-1212,-7852,1745174079288319063
260706,34,9,-4,1317,-1202,-7858,1745174079348465441
260898,33,7,-10,1315,-1195,-7865,1745174079348465441
261090,30,6,-14,1298,-1182,-7866,1745174079348465441
261282,28,6,-19,1297,-1146,-7857,1745174079348465441
261474,27,5,-23,1290,-1115,-7855,1745174079348465441
261666,28,5,-28,1288,-1106,-7841,1745174079348465441
261858,30,2,-31,1294,-1099,-7832,1745174079348465441
262050,35,0,-36,1283,-1111,-7850,1745174079348465441
262242,42,-1,-38,1239,-1081,-7862,1745174079348465441
262434,47,0,-42,1194,-1024,-7870,1745174079348465441
262626,51,3,-46,1178,-972,-7861,1745174079348465441
262818,56,8,-49,1202,-936,-7819,1745174079348465441
263010,62,11,-50,1217,-925,-7788,1745174079408339529
263202,69,12,-54,1260,-889,-7765,1745174079408339529
263394,75,10,-60,1273,-856,-7753,1745174079408339529
263586,81,6,-69,1250,-807,-7753,1745174079408339529
263778,84,3,-80,1185,-758,-7740,1745174079408339529
263970,87,2,-94,1113,-692,-7740,1745174079408339529
264162,89,3,-107,1073,-614,-7714,1745174079408339529
264354,91,3,-119,1065,-539,-7681,1745174079408339529
264546,94,5,-131,1062,-473,-7645,1745174079408339529
264738,97,4,-143,1053,-390,-7604,1745174079408339529
264930,99,1,-156,1016,-299,-7512,1745174079408339529
265122,99,-3,-172,1000,-204,-7437,1745174079408339529
265314,98,-7,-191,944,-107,-7344,1745174079463664180
265506,93,-8,-213,919,-1,-7254,1745174079463664180
265698,85,-5,-236,885,96,-7215,1745174079463664180
265890,78,4,-261,893,199,-7191,1745174079463664180
266082,73,16,-289,947,290,-7190,1745174079463664180
266274,71,27,-321,1009,361,-7193,1745174079463664180
266466,73,34,-356,1100,406,-7187,1745174079463664180
266658,78,38,-395,1168,452,-7170,1745174079463664180
266850,85,39,-441,1180,519,-7131,1745174079463664180
267042,92,46,-491,1135,595,-7097,1745174079463664180
267234,101,56,-541,1113,655,-7028,1745174079463664180
267426,112,65,-589,1088,685,-6871,1745174079463664180
267618,127,75,-635,1076,723,-6761,1745174079588106585
267810,151,85,-677,1083,771,-6773,1745174079588106585
268002,174,91,-721,1148,799,-6943,1745174079588106585
268194,195,91,-769,1235,763,-7098,1745174079588106585
268386,216,84,-815,1252,765,-7245,1745174079588106585
268578,241,72,-858,1203,836,-7396,1745174079588106585
268770,263,59,-900,1070,1023,-7502,1745174079588106585
268962,280,49,-940,888,1291,-7598,1745174079588106585
269154,291,47,-977,757,1584,-7641,1745174079588106585
269346,306,48,-1009,670,1899,-7681,1745174079588106585
269538,324,49,-1040,646,2220,-7669,1745174079588106585
269730,342,42,-1076,658,2562,-7607,1745174079588106585
269922,356,27,-1121,723,2918,-7498,1745174079610308101
270114,362,4,-1179,821,3287,-7366,1745174079610308101
270306,357,-23,-1254,900,3676,-7209,1745174079610308101
270498,343,-48,-1343,1051,4010,-7150,1745174079610308101
270690,328,-71,-1454,1241,4366,-7344,1745174079610308101
270882,324,-79,-1583,1581,4555,-7552,1745174079610308101
271074,340,-96,-1718,2053,4600,-7707,1745174079610308101
271266,370,-139,-1847,2711,4452,-7885,1745174079610308101
271458,404,-217,-1983,3379,4310,-8140,1745174079610308101
271650,427,-325,-2142,3891,4270,-8322,1745174079610308101
271842,444,-445,-2315,4269,4318,-8264,1745174079610308101
272034,449,-541,-2493,4465,4432,-8039,1745174079610308101
272226,442,-603,-2667,4463,4576,-7879,1745174079636905150
272226,442,-603,-2667,4463,4576,-7879,1745174079636905150
272418,434,-657,-2826,4383,4667,-7670,1745174079636905150
272610,427,-712,-2969,4346,4727,-7474,1745174079636905150
272802,422,-756,-3103,4364,4771,-7346,1745174079636905150
272994,405,-796,-3236,4457,4831,-7181,1745174079636905150
273186,372,-828,-3368,4639,4861,-7034,1745174079636905150
273378,322,-847,-3502,4921,4888,-7016,1745174079636905150
273570,264,-859,-3634,5263,4880,-6897,1745174079636905150
273762,206,-868,-3754,5607,4856,-6731,1745174079636905150
273954,160,-878,-3860,5910,4818,-6582,1745174079636905150
274146,132,-887,-3948,6138,4788,-6496,1745174079636905150
274338,122,-891,-4021,6290,4725,-6525,1745174079691838346
274530,135,-894,-4079,6368,4631,-6496,1745174079691838346
274722,173,-899,-4128,6347,4531,-6442,1745174079691838346
274914,229,-896,-4173,6236,4401,-6390,1745174079691838346
275106,291,-890,-4214,6035,4228,-6349,1745174079691838346
275298,358,-880,-4248,5871,3978,-6301,1745174079691838346
275490,422,-874,-4283,5659,3651,-6173,1745174079691838346
275682,481,-862,-4319,5435,3264,-6012,1745174079691838346
275874,527,-850,-4348,5235,2832,-5861,1745174079691838346
276066,553,-830,-4369,5036,2416,-5811,1745174079691838346
276258,557,-802,-4375,4904,2084,-5740,1745174079691838346
276450,534,-761,-4374,4725,1850,-5657,1745174079691838346
276642,486,-698,-4365,4564,1712,-5535,1745174079747385182
276834,425,-624,-4344,4471,1621,-5603,1745174079747385182
277026,367,-542,-4321,4433,1594,-5782,1745174079747385182
277218,319,-459,-4303,4375,1627,-5885,1745174079747385182
277410,293,-377,-4291,4343,1701,-6036,1745174079747385182
277602,297,-296,-4281,4363,1743,-6159,1745174079747385182
277794,327,-224,-4270,4441,1745,-6229,1745174079747385182
277986,374,-165,-4259,4547,1629,-6244,1745174079747385182
278178,433,-119,-4246,4656,1453,-6242,1745174079747385182
278370,498,-86,-4227,4729,1201,-6298,1745174079747385182
278562,567,-62,-4205,4791,883,-6205,1745174079747385182
278754,628,-38,-4186,4857,507,-6000,1745174079747385182
278946,663,-47,-4169,4846,141,-5676,1745174079805679962
279138,675,-62,-4152,4758,-214,-5326,1745174079805679962
279330,668,-63,-4139,4669,-537,-5275,1745174079805679962
279522,643,-46,-4123,4623,-825,-5451,1745174079805679962
279714,609,-10,-4096,4553,-1015,-5674,1745174079805679962
279906,580,38,-4048,4532,-1127,-6051,1745174079805679962
280098,567,93,-3981,4548,-1166,-6501,1745174079805679962
280290,575,145,-3906,4618,-1146,-6850,1745174079805679962
280482,595,184,-3833,4771,-1170,-7066,1745174079805679962
280674,624,204,-3770,4986,-1307,-7189,1745174079805679962
280866,661,207,-3718,5149,-1511,-7204,1745174079805679962
281058,700,201,-3673,5289,-1795,-7184,1745174079805679962
281250,736,190,-3631,5367,-2147,-7153,1745174079869107039
281442,761,171,-3594,5416,-2520,-7139,1745174079869107039
281634,761,153,-3571,5415,-2888,-7034,1745174079869107039
281826,731,134,-3574,5283,-3185,-6883,1745174079869107039
282018,664,129,-3598,5109,-3443,-6927,1745174079869107039
282210,565,142,-3604,4908,-3598,-7033,1745174079869107039
282402,448,178,-3532,4781,-3689,-7179,1745174079869107039
282594,342,211,-3382,4910,-3820,-7345,1745174079869107039
282786,253,240,-3202,5227,-3885,-7605,1745174079869107039
282978,146,257,-3012,5480,-3831,-7777,1745174079869107039
283170,50,270,-2836,5682,-3748,-7897,1745174079869107039
283362,-22,271,-2692,5927,-3768,-8002,1745174079869107039
283554,-67,254,-2606,6186,-3802,-8268,1745174079926176518
283746,-97,234,-2570,6312,-3813,-8532,1745174079926176518
283938,-121,215,-2556,6354,-3753,-8633,1745174079926176518
284130,-147,196,-2528,6400,-3716,-8628,1745174079926176518
284322,-188,166,-2469,6446,-3680,-8618,1745174079926176518
284514,-249,123,-2383,6431,-3699,-8536,1745174079926176518
284706,-327,72,-2278,6389,-3676,-8458,1745174079926176518
284898,-413,22,-2173,6289,-3663,-8433,1745174079926176518
285090,-509,-13,-2082,6221,-3652,-8514,1745174079926176518
285282,-616,-33,-2007,6170,-3619,-8630,1745174079926176518
285474,-730,-43,-1939,6139,-3585,-8740,1745174079926176518
285666,-841,-49,-1876,6119,-3518,-8863,1745174079926176518
285858,-942,-51,-1819,6072,-3385,-8931,1745174079984766243
286050,-1030,-53,-1766,6038,-3211,-8927,1745174079984766243
286242,-1107,-50,-1720,5995,-2999,-8979,1745174079984766243
286434,-1169,-43,-1683,5929,-2775,-9082,1745174079984766243
286626,-1211,-33,-1654,5831,-2506,-9176,1745174079984766243
286818,-1227,-20,-1632,5762,-2203,-9259,1745174079984766243
287010,-1223,-8,-1612,5695,-1928,-9311,1745174079984766243
287202,-1205,-1,-1593,5654,-1670,-9361,1745174079984766243
287394,-1177,1,-1569,5614,-1426,-9364,1745174079984766243
287586,-1142,-9,-1540,5656,-1304,-9221,1745174079984766243
287778,-1121,-79,-1513,5894,-1381,-9043,1745174079984766243
287970,-1096,-194,-1486,6276,-1448,-9523,1745174079984766243
288162,-1110,-338,-1452,6394,-1277,-9947,1745174080102831987
288354,-1131,-422,-1420,6217,-937,-10013,1745174080102831987
288546,-1099,-471,-1389,5856,-469,-10291,1745174080102831987
288738,-998,-513,-1342,5604,-175,-10445,1745174080102831987
288930,-849,-563,-1282,5495,-121,-10583,1745174080102831987
289122,-704,-623,-1213,5392,-307,-10640,1745174080102831987
289314,-597,-671,-1143,5186,-631,-10566,1745174080102831987
289506,-532,-691,-1081,4827,-1008,-10443,1745174080102831987
289698,-499,-673,-1024,4376,-1303,-10260,1745174080102831987
289890,-484,-628,-968,3921,-1505,-10061,1745174080102831987
290082,-484,-571,-907,3526,-1601,-9835,1745174080102831987
290274,-492,-514,-836,3201,-1586,-9595,1745174080102831987
290466,-497,-463,-759,2951,-1511,-9346,1745174080114054489
290658,-487,-419,-685,2787,-1361,-9170,1745174080114054489
290850,-451,-381,-619,2689,-1155,-8997,1745174080114054489
291042,-387,-355,-555,2752,-972,-8810,1745174080114054489
291234,-302,-350,-490,2904,-822,-8607,1745174080114054489
291426,-212,-363,-429,3010,-724,-8404,1745174080114054489
291618,-132,-387,-377,3018,-674,-8206,1745174080114054489
291810,-71,-411,-335,2927,-659,-8052,1745174080114054489
292002,-36,-423,-303,2715,-698,-7922,1745174080114054489
292194,-24,-421,-274,2473,-698,-7797,1745174080114054489
292386,-32,-402,-242,2230,-736,-7670,1745174080114054489
292578,-48,-374,-200,2025,-770,-7593,1745174080114054489
292770,-67,-343,-148,1861,-738,-7525,1745174080158385646
292962,-11,-301,-61,1813,-756,-7299,1745174080158385646
293154,134,-252,72,1929,-513,-7529,1745174080158385646
293346,169,-183,205,2169,-405,-7562,1745174080158385646
293538,203,-168,311,2324,-240,-7574,1745174080158385646
293730,208,-198,390,2422,-208,-7514,1745174080158385646
293922,170,-171,412,2779,-315,-7576,1745174080158385646
294114,128,-150,344,2778,-325,-8003,1745174080158385646
294306,92,-153,289,2723,-281,-8323,1745174080158385646
294498,16,-85,260,2640,-166,-8795,1745174080158385646
294690,-75,6,213,2568,62,-9260,1745174080158385646
294882,-202,113,227,2870,423,-10411,1745174080158385646
295074,-346,148,235,2715,892,-12338,1745174080227500848
295266,-377,55,141,1823,1791,-12847,1745174080227500848
295458,-373,-82,-10,897,2699,-12517,1745174080227500848
295650,-417,-166,-106,365,3054,-11117,1745174080227500848
295842,-386,-212,-160,188,3020,-9462,1745174080227500848
296034,-333,-182,-191,257,2727,-8045,1745174080227500848
296226,-303,-111,-194,522,2213,-7200,1745174080227500848
296418,-235,-39,-161,886,1723,-6995,1745174080227500848
296610,-214,-6,-111,1247,1384,-6994,1745174080227500848
296802,-215,13,-40,1527,1235,-7120,1745174080227500848
296994,-233,10,11,1593,1395,-7239,1745174080227500848
297186,-229,22,22,1500,1730,-7425,1745174080227500848
297378,-216,25,9,1352,2087,-7559,1745174080273147723
297570,-186,28,3,1291,2345,-7660,1745174080273147723
297762,-144,24,-4,1295,2496,-7677,1745174080273147723
297954,-91,18,-11,1381,2537,-7699,1745174080273147723
298146,-37,8,-17,1448,2537,-7728,1745174080273147723
298338,20,-2,-17,1525,2474,-7733,1745174080273147723
298530,72,-20,-9,1583,2405,-7780,1745174080273147723
298722,91,-48,-30,1528,2286,-7739,1745174080273147723
298914,146,-55,-54,1491,2115,-7880,1745174080273147723
299106,173,-72,-57,1559,1892,-7913,1745174080273147723
299298,155,-70,-30,1448,1658,-7959,1745174080273147723
299490,152,-89,-14,1359,1459,-8015,1745174080273147723
299682,132,-97,-19,1292,1265,-8017,1745174080336546050
299874,89,-101,-35,1224,1100,-8046,1745174080336546050
300066,27,-102,-81,1121,982,-7961,1745174080336546050
300258,13,-78,-75,1140,931,-8063,1745174080336546050
300450,-42,-87,-50,1114,984,-7976,1745174080336546050
300642,-113,-70,-53,1103,1053,-7881,1745174080336546050
300834,-128,-72,-29,1209,1165,-7932,1745174080336546050
301026,-184,-72,-34,1173,1343,-7837,1745174080336546050
301218,-210,-54,-46,1207,1444,-7873,1745174080336546050
301410,-226,-59,-44,1248,1549,-7916,1745174080336546050
301602,-245,-57,-33,1338,1621,-7946,1745174080336546050
301794,-256,-61,-31,1385,1667,-7972,1745174080336546050
301986,-260,-67,-31,1436,1733,-7937,1745174080404393503
302178,-257,-80,-19,1456,1779,-7872,1745174080404393503
302370,-261,-95,-21,1439,1844,-7843,1745174080404393503
302562,-274,-113,-47,1341,1918,-7792,1745174080404393503
302754,-242,-111,-53,1357,1929,-7901,1745174080404393503
302946,-224,-128,-25,1327,2070,-7885,1745174080404393503
303138,-223,-127,-19,1257,2154,-7849,1745174080404393503
303330,-200,-132,-33,1199,2214,-7833,1745174080404393503
303522,-174,-137,-35,1170,2248,-7810,1745174080404393503
303714,-149,-133,-34,1143,2259,-7820,1745174080404393503
303906,-123,-130,-41,1119,2237,-7829,1745174080404393503
304098,-98,-125,-48,1127,2197,-7871,1745174080404393503
304290,-78,-122,-53,1103,2146,-7877,1745174080455418089
304482,-59,-118,-54,1057,2109,-7870,1745174080455418089
304674,-44,-111,-52,1028,2050,-7844,1745174080455418089
304866,-34,-103,-48,996,1982,-7831,1745174080455418089
305058,-27,-94,-46,977,1934,-7828,1745174080455418089
305250,-24,-82,-43,965,1894,-7837,1745174080455418089
305442,-23,-73,-43,978,1869,-7868,1745174080455418089
305634,-26,-63,-44,979,1822,-7892,1745174080455418089
305826,-30,-55,-43,986,1800,-7900,1745174080455418089
306018,-35,-47,-41,982,1780,-7889,1745174080455418089
306210,-42,-39,-39,979,1759,-7868,1745174080455418089
306402,-50,-31,-35,988,1746,-7869,1745174080455418089
306594,-57,-21,-30,991,1770,-7865,1745174080510156652
306786,-62,-14,-25,1003,1825,-7862,1745174080510156652
306978,-66,-6,-22,1044,1863,-7837,1745174080510156652
307170,-65,3,-21,1047,1925,-7827,1745174080510156652
307362,-63,8,-19,1062,2014,-7815,1745174080510156652
307554,-56,12,-16,1096,2054,-7820,1745174080510156652
307746,-46,14,-15,1118,2084,-7832,1745174080510156652
307938,-35,14,-16,1147,2098,-7812,1745174080510156652
308130,-23,13,-18,1152,2129,-7803,1745174080510156652
308322,-9,11,-17,1145,2131,-7814,1745174080510156652
308514,6,9,-16,1145,2140,-7825,1745174080510156652
308706,20,6,-15,1125,2135,-7816,1745174080510156652
308898,34,5,-15,1119,2103,-7803,1745174080569200019
309090,45,7,-16,1102,2069,-7794,1745174080569200019
309282,55,7,-13,1082,2046,-7807,1745174080569200019
309474,65,8,-11,1076,1997,-7843,1745174080569200019
309666,71,10,-9,1095,1979,-7861,1745174080569200019
309858,73,11,-9,1111,1951,-7862,1745174080569200019
310050,43,-20,-56,934,1985,-7689,1745174080569200019
310242,60,31,-68,1069,1725,-7825,1745174080569200019
310434,80,24,10,1150,1814,-7964,1745174080569200019
310626,61,29,25,1199,1845,-7837,1745174080569200019
310818,56,18,-15,1232,1861,-7807,1745174080569200019
311010,57,7,-6,1258,1856,-7822,1745174080569200019
311202,58,1,5,1231,1918,-7817,1745174080628893692
311394,61,-9,-2,1215,1922,-7810,1745174080628893692
311586,62,-18,-9,1218,1912,-7799,1745174080628893692
311778,64,-22,-3,1192,1902,-7812,1745174080628893692
311970,65,-30,-1,1212,1894,-7824,1745174080628893692
312162,67,-35,-7,1183,1863,-7854,1745174080628893692
312354,66,-41,-8,1171,1853,-7855,1745174080628893692
312546,64,-42,-7,1151,1836,-7847,1745174080628893692
312738,61,-44,-8,1146,1814,-7845,1745174080628893692
312930,57,-45,-9,1133,1784,-7840,1745174080628893692
313122,53,-45,-8,1135,1790,-7886,1745174080628893692
313314,49,-44,-7,1100,1790,-7896,1745174080628893692
313506,46,-44,-8,1109,1795,-7887,1745174080748261872
313698,42,-43,-9,1085,1810,-7881,1745174080748261872
313890,40,-40,-10,1076,1816,-7877,1745174080748261872
314082,37,-38,-9,1051,1804,-7864,1745174080748261872
314274,33,-37,-8,1048,1812,-7865,1745174080748261872
314466,31,-33,-8,1038,1805,-7875,1745174080748261872
314658,28,-31,-7,1039,1797,-7875,1745174080748261872
314850,26,-28,-8,1035,1787,-7858,1745174080748261872
315042,23,-26,-8,1032,1792,-7852,1745174080748261872
315234,20,-23,-7,1033,1785,-7866,1745174080748261872
315426,18,-20,-6,1036,1790,-7860,1745174080748261872
315618,15,-20,-7,1029,1799,-7862,1745174080748261872
315810,12,-20,-7,1039,1793,-7859,1745174080758650684
316002,10,-19,-7,1063,1779,-7851,1745174080758650684
316194,8,-18,-7,1060,1801,-7863,1745174080758650684
316386,8,-18,-8,1062,1808,-7869,1745174080758650684
316578,8,-18,-8,1065,1812,-7858,1745174080758650684
316770,6,-19,-7,1062,1815,-7844,1745174080758650684
316962,6,-18,-7,1091,1823,-7825,1745174080758650684
317154,7,-18,-8,1099,1827,-7839,1745174080758650684
317346,6,-20,-7,1132,1823,-7844,1745174080758650684
317538,6,-24,-8,1134,1843,-7839,1745174080758650684
317730,7,-27,-9,1139,1840,-7857,1745174080758650684
317922,10,-31,-8,1132,1858,-7871,1745174080758650684
318114,11,-35,-9,1146,1871,-15532,1745174080802744708
318306,14,-40,-10,1140,1857,-7836,1745174080802744708
318498,17,-44,-9,1125,1853,-7836,1745174080802744708
318690,19,-48,-8,1120,1831,-7828,1745174080802744708
318882,20,-52,-8,1114,1851,-7833,1745174080802744708
319074,22,-56,-9,1092,1854,-7845,1745174080802744708
319266,23,-60,-9,1067,1848,-7831,1745174080802744708
319458,24,-63,-10,1056,1835,-7834,1745174080802744708
319650,25,-66,-11,1055,1813,-7844,1745174080802744708
319842,26,-66,-10,1031,1821,-7844,1745174080802744708
320034,26,-66,-9,1014,1808,-7852,1745174080802744708
320226,27,-68,-10,1015,1817,-7864,1745174080802744708
320418,28,-68,-9,1020,1807,-7841,1745174080865935954
320610,31,-67,-7,1023,1820,-7832,1745174080865935954
320802,36,-68,-8,1017,1848,-7836,1745174080865935954
320994,42,-69,-9,1010,1880,-7854,1745174080865935954
321186,48,-70,-8,1000,1910,-7868,1745174080865935954
321378,54,-72,-9,993,1905,-7868,1745174080865935954
321570,61,-71,-10,992,1879,-7860,1745174080865935954
321762,67,-72,-9,986,1855,-7869,1745174080865935954
321954,72,-72,-9,965,1826,-7865,1745174080865935954
322146,73,-72,-9,955,1794,-7836,1745174080865935954
322338,75,-68,-6,958,1749,-7856,1745174080865935954
322530,75,-67,-6,935,1738,-7893,1745174080865935954
322722,71,-64,-6,964,1702,-7915,1745174080919861763
322914,68,-62,-6,942,1672,-7963,1745174080919861763
323106,58,-63,-6,950,1670,-7889,1745174080919861763
323298,50,-59,-6,940,1634,-7818,1745174080919861763
323490,46,-53,-6,936,1639,-7898,1745174080919861763
323682,40,-50,-6,943,1623,-7976,1745174080919861763
323874,30,-49,-7,951,1652,-7934,1745174080919861763
324066,20,-46,-7,948,1675,-7851,1745174080919861763
324258,16,-46,-6,951,1701,-7834,1745174080919861763
324450,14,-43,-8,945,1692,-7891,1745174080919861763
324642,10,-43,-9,960,1703,-7942,1745174080919861763
324834,6,-44,-9,951,1706,-7945,1745174080919861763
325026,2,-47,-9,956,1729,-7895,1745174081043562612
325218,0,-49,-10,952,1734,-7870,1745174081043562612
325410,2,-48,-10,919,1739,-7886,1745174081043562612
325602,3,-47,-10,910,1742,-7910,1745174081043562612
325794,3,-47,-11,898,1755,-7920,1745174081043562612
325986,2,-48,-10,890,1729,-7876,1745174081043562612
326178,1,-47,-11,875,1708,-7834,1745174081043562612
326370,1,-44,-11,863,1683,-7863,1745174081043562612
326562,0,-39,-10,879,1661,-7907,1745174081043562612
326754,-6,-36,-10,883,1673,-7940,1745174081043562612
326946,-11,-33,-10,874,1676,-7931,1745174081043562612
327138,-17,-32,-10,900,1673,-7887,1745174081043562612
327330,-21,-30,-9,904,1692,-7869,1745174081052774455
327522,-25,-26,-7,882,1690,-7902,1745174081052774455
327714,-31,-24,-7,904,1693,-7916,1745174081052774455
327906,-35,-22,-7,908,1714,-7921,1745174081052774455
328098,-39,-20,-6,898,1705,-7888,1745174081052774455
328290,-44,-19,-7,886,1727,-7818,1745174081052774455
328482,-45,-12,-6,881,1729,-7855,1745174081052774455
328674,-44,-5,-6,867,1745,-7926,1745174081052774455
328866,-45,0,-7,899,1756,-7949,1745174081052774455
329058,-45,6,-8,909,1795,-8010,1745174081052774455
329250,-44,5,-7,911,1831,-7957,1745174081052774455
329442,-40,4,-7,911,1856,-7799,1745174081052774455
329634,-33,10,-7,889,1826,-7836,1745174081091216760
329826,-26,11,-7,905,1804,-7946,1745174081091216760
330018,-26,9,-7,902,1785,-7949,1745174081091216760
330210,-27,8,-8,884,1742,-7858,1745174081091216760
330402,-27,10,-6,858,1751,-7814,1745174081091216760
330594,-25,15,-5,820,1721,-7864,1745174081091216760
330786,-27,20,-5,833,1713,-7939,1745174081091216760
330978,-32,25,-3,823,1708,-7978,1745174081091216760
331170,-36,27,-3,854,1730,-7933,1745174081091216760
331362,-40,31,-2,856,1757,-7854,1745174081091216760
331554,-41,36,-1,855,1766,-7857,1745174081091216760
331746,-41,40,0,861,1781,-7896,1745174081091216760
331938,-42,41,1,889,1788,-7920,1745174081182937850
332130,-43,42,1,917,1788,-7895,1745174081182937850
332322,-44,42,2,927,1781,-7828,1745174081182937850
332514,-43,44,2,923,1785,-7835,1745174081182937850
332706,-41,46,2,931,1776,-7895,1745174081182937850
332898,-41,46,3,942,1793,-7934,1745174081182937850
333090,-43,44,3,978,1817,-7921,1745174081182937850
333282,-41,41,2,973,1830,-7898,1745174081182937850
333474,-40,37,2,963,1851,-7852,1745174081182937850
333666,-38,35,2,973,1862,-7768,1745174081182937850
333858,-33,35,2,964,1826,-7815,1745174081182937850
334050,-29,33,3,940,1802,-7877,1745174081182937850
334242,-30,34,3,961,1791,-7862,1745174081212349300
334434,-26,35,2,950,1798,-7933,1745174081212349300
334626,-28,32,2,950,1805,-7881,1745174081212349300
334818,-29,33,3,963,1807,-7820,1745174081212349300
335010,-25,34,2,955,1801,-7892,1745174081212349300
335202,-25,32,4,979,1797,-7928,1745174081212349300
335394,-28,28,4,988,1809,-7888,1745174081212349300
335586,-28,23,4,975,1805,-7805,1745174081212349300
335778,-28,20,4,981,1814,-7761,1745174081212349300
335970,-24,19,2,957,1793,-7812,1745174081212349300
336162,-21,16,3,974,1827,-7885,1745174081212349300
336354,-19,13,3,966,1830,-7913,1745174081212349300
336546,-18,8,1,981,1871,-7878,1745174081272701977
336738,-15,6,1,970,1893,-7835,1745174081272701977
336930,-8,4,0,953,1902,-7841,1745174081272701977
337122,-1,3,-1,955,1910,-7877,1745174081272701977
337314,5,1,0,957,1894,-7900,1745174081272701977
337506,10,-3,-1,956,1877,-7847,1745174081272701977
337698,13,-4,-1,941,1834,-7789,1745174081272701977
337890,18,-1,-1,939,1819,-7811,1745174081272701977
338082,19,1,-1,934,1764,-7863,1745174081272701977
338274,17,3,0,940,1731,-7904,1745174081272701977
338466,12,3,0,941,1727,-7936,1745174081272701977
338658,5,4,1,953,1719,-7896,1745174081272701977
338850,-2,3,0,962,1730,-7843,1745174081330987070
339042,-6,4,0,979,1727,-7850,1745174081330987070
339234,-8,3,0,997,1752,-7888,1745174081330987070
339426,-11,0,0,1015,1769,-7884,1745174081330987070
339618,-13,-4,0,1005,1805,-7833,1745174081330987070
339810,-12,-8,-2,1023,1832,-7805,1745174081330987070
340002,-8,-10,-2,1000,1860,-7830,1745174081330987070
340194,-1,-13,-4,1002,1863,-7914,1745174081330987070
340386,2,-19,-6,997,1874,-7937,1745174081330987070
340578,4,-25,-7,990,1885,-7883,1745174081330987070
340770,10,-30,-8,966,1862,-7838,1745174081330987070
340962,15,-32,-7,938,1853,-7836,1745174081330987070
341154,19,-34,-8,926,1806,-7876,1745174081392992493
341346,19,-35,-9,920,1771,-7882,1745174081392992493
341538,17,-36,-9,895,1732,-7856,1745174081392992493
341730,13,-33,-9,872,1694,-7831,1745174081392992493
341922,9,-28,-9,873,1687,-7844,1745174081392992493
342114,5,-22,-8,873,1696,-7902,1745174081392992493
342306,-2,-18,-7,868,1720,-7948,1745174081392992493
342498,-9,-14,-7,896,1745,-7919,1745174081392992493
342690,-16,-12,-7,885,1763,-7868,1745174081392992493
342882,-18,-7,-5,907,1778,-7844,1745174081392992493
343074,-19,-4,-5,932,1776,-7875,1745174081392992493
343266,-21,-3,-4,947,1787,-7892,1745174081392992493
343458,-23,-3,-4,969,1798,-7873,1745174081457511123
343650,-24,-3,-5,970,1801,-7858,1745174081457511123
343842,-23,-6,-5,983,1813,-7869,1745174081457511123
344034,-22,-8,-7,976,1805,-7867,1745174081457511123
344226,-20,-12,-7,977,1821,-7874,1745174081457511123
344418,-19,-16,-8,981,1801,-7875,1745174081457511123
344610,-17,-19,-11,953,1797,-7869,1745174081457511123
344802,-14,-21,-12,925,1800,-7890,1745174081457511123
344994,-13,-23,-15,883,1803,-7899,1745174081457511123
345186,-13,-22,-16,861,1794,-7894,1745174081457511123
345378,-13,-19,-18,845,1786,-7888,1745174081457511123
345570,-13,-14,-18,833,1778,-7865,1745174081457511123
345762,-15,-10,-16,836,1780,-7869,1745174081503079300
345954,-16,-6,-13,851,1787,-7882,1745174081503079300
346146,-19,-4,-13,856,1777,-7898,1745174081503079300
346338,-22,-3,-13,881,1790,-7905,1745174081503079300
346530,-25,-2,-12,897,1784,-7860,1745174081503079300
346722,-25,0,-13,900,1795,-7770,1745174081503079300
346914,-16,1,-13,934,1832,-7808,1745174081503079300
347106,-21,3,-12,954,1854,-7926,1745174081503079300
347298,-21,-1,-12,990,1850,-7951,1745174081503079300
347490,-19,-9,-11,993,1854,-7874,1745174081503079300
347682,-19,-13,-11,980,1829,-7817,1745174081503079300
347874,-14,-16,-11,964,1816,-7832,1745174081503079300
348066,-11,-19,-11,967,1809,-7856,1745174081568545681
348258,-11,-22,-11,931,1783,-7874,1745174081568545681
348450,-11,-25,-12,927,1784,-7886,1745174081568545681
348642,-12,-27,-12,923,1776,-7867,1745174081568545681
348834,-13,-26,-11,889,1798,-7861,1745174081568545681
349026,-12,-25,-9,895,1815,-7853,1745174081568545681
349218,-11,-24,-9,916,1832,-7856,1745174081568545681
349410,-10,-26,-10,928,1831,-7883,1745174081568545681
349602,-10,-30,-11,964,1830,-7873,1745174081568545681
349794,-9,-35,-11,969,1851,-7874,1745174081568545681
349986,-7,-42,-10,972,1863,-7864,1745174081568545681
350178,-6,-48,-13,945,1871,-7872,1745174081568545681
350370,-3,-54,-13,935,1869,-7867,1745174081626868221
350562,0,-59,-14,914,1872,-7875,1745174081626868221
350754,3,-63,-15,900,1875,-7864,1745174081626868221
350946,5,-65,-17,862,1859,-7826,1745174081626868221
351138,11,-65,-17,882,1843,-7772,1745174081626868221
351330,17,-64,-17,864,1869,-7826,1745174081626868221
351522,22,-66,-18,856,1885,-7895,1745174081626868221
351714,28,-69,-17,867,1875,-7904,1745174081626868221
351906,32,-72,-16,846,1843,-7900,1745174081626868221
352098,34,-72,-16,820,1800,-7863,1745174081626868221
352290,36,-69,-17,829,1750,-7838,1745174081626868221
352482,36,-66,-16,810,1734,-7863,1745174081626868221
352674,35,-62,-14,828,1738,-7886,1745174081743864288
352866,33,-61,-14,837,1762,-7907,1745174081743864288
353058,31,-60,-14,831,1756,-7902,1745174081743864288
353250,30,-60,-14,842,1780,-7886,1745174081743864288
353442,30,-58,-13,860,1797,-7897,1745174081743864288
353634,30,-61,-13,858,1806,-7893,1745174081743864288
353826,28,-62,-14,861,1800,-7859,1745174081743864288
354018,31,-62,-14,862,1784,-7888,1745174081743864288
354210,33,-64,-12,857,1766,-7924,1745174081743864288
354402,30,-69,-14,837,1784,-7936,1745174081743864288
354594,28,-74,-16,824,1792,-7908,1745174081743864288
354786,29,-75,-16,794,1789,-7870,1745174081743864288
354978,29,-75,-16,774,1772,-7873,1745174081752637750
355170,29,-74,-19,754,1747,-7896,1745174081752637750
355362,27,-71,-18,737,1756,-7890,1745174081752637750
355554,26,-69,-17,714,1741,-7883,1745174081752637750
355746,25,-65,-17,711,1755,-7884,1745174081752637750
355938,24,-59,-17,717,1743,-7898,1745174081752637750
356130,23,-55,-18,719,1745,-7930,1745174081752637750
356322,18,-53,-17,724,1736,-7936,1745174081752637750
356514,13,-51,-18,727,1710,-7912,1745174081752637750
356706,5,-51,-21,675,1725,-7893,1745174081752637750
356898,-46,-63,-65,602,1595,-7697,1745174081752637750
357090,-3,-17,-39,729,1506,-8018,1745174081752637750
357282,-1,-25,13,747,1694,-8066,1745174081800543562
357474,-37,-19,-15,770,1723,-7899,1745174081800543562
357666,-31,-29,-33,831,1713,-7875,1745174081800543562
357858,-31,-25,-7,832,1767,-7886,1745174081800543562
358050,-33,-28,-12,812,1810,-7914,1745174081800543562
358242,-32,-35,-25,794,1812,-7921,1745174081800543562
358434,-30,-35,-19,780,1823,-7928,1745174081800543562
358626,-26,-35,-18,729,1819,-7889,1745174081800543562
358818,-23,-35,-22,714,1807,-7870,1745174081800543562
359010,-20,-31,-20,690,1795,-7881,1745174081800543562
359202,-19,-25,-18,687,1782,-7920,1745174081800543562
359394,-17,-21,-18,694,1759,-7915,1745174081800543562
359586,-16,-18,-17,701,1784,-7903,1745174081865899423
359778,-15,-14,-17,717,1789,-7888,1745174081865899423
359970,-16,-12,-15,732,1777,-7903,1745174081865899423
360162,-16,-11,-14,721,1764,-7933,1745174081865899423
360354,-19,-12,-15,747,1751,-7927,1745174081865899423
360546,-22,-13,-17,733,1743,-7917,1745174081865899423
360738,-25,-15,-15,746,1744,-7898,1745174081865899423
360930,-31,-14,-15,710,1738,-7900,1745174081865899423
361122,-35,-14,-16,707,1734,-7913,1745174081865899423
361314,-40,-12,-15,712,1738,-7915,1745174081865899423
361506,-46,-9,-16,700,1745,-7894,1745174081865899423
361698,-49,-7,-14,696,1759,-7881,1745174081865899423
361890,-52,-5,-14,712,1778,-7889,1745174081917429473
362082,-61,-7,-21,670,1809,-7902,1745174081917429473
362274,-88,-8,-60,653,1740,-7801,1745174081917429473
362466,-46,14,-33,752,1712,-8011,1745174081917429473
362658,-53,8,-7,764,1827,-7938,1745174081917429473
362850,-66,6,-20,790,1840,-7838,1745174081917429473
363042,-49,-3,-24,807,1882,-7868,1745174081917429473
363234,-46,-7,-21,774,1918,-7905,1745174081917429473
363426,-39,-12,-26,756,1923,-7892,1745174081917429473
363618,-33,-17,-27,749,1904,-7859,1745174081917429473
363810,-24,-14,-28,704,1903,-7826,1745174081917429473
364002,-14,-12,-29,692,1898,-7870,1745174081917429473
364194,-9,-12,-31,712,1899,-7932,1745174081977653142
364386,-5,-13,-32,711,1891,-7910,1745174081977653142
364578,-3,-13,-30,690,1872,-7861,1745174081977653142
364770,0,-12,-29,690,1834,-7883,1745174081977653142
364962,-1,-9,-27,687,1793,-7934,1745174081977653142
365154,-4,-8,-24,694,1780,-7923,1745174081977653142
365346,-10,-6,-23,670,1756,-7898,1745174081977653142
365538,-16,-4,-22,687,1756,-7874,1745174081977653142
365730,-25,-2,-23,677,1638,-7856,1745174081977653142
365922,-44,2,-23,695,1518,-7878,1745174081977653142
366114,-55,-3,-18,787,1533,-7892,1745174081977653142
366306,-77,-10,-15,841,1511,-7869,1745174081977653142
366498,-108,-15,-18,773,1409,-7844,1745174082037527491
366690,-126,-20,-16,700,1427,-7873,1745174082037527491
366882,-140,-21,-8,648,1575,-7891,1745174082037527491
367074,-156,-15,-7,640,1771,-7880,1745174082037527491
367266,-155,-13,-8,662,1960,-7872,1745174082037527491
367458,-151,-11,-10,712,2099,-7844,1745174082037527491
367650,-136,-14,-10,752,2170,-7845,1745174082037527491
367842,-113,-20,-12,792,2276,-7782,1745174082037527491
368034,-83,-27,-13,725,2372,-7719,1745174082037527491
368226,-49,-21,-16,584,2424,-7733,1745174082037527491
368418,-17,-4,-22,431,2385,-7762,1745174082037527491
368610,14,24,-20,369,2267,-7766,1745174082037527491
368802,38,54,-12,361,2088,-7771,1745174082090608152
368994,47,84,-6,398,1904,-7765,1745174082090608152
369186,56,107,1,551,1889,-7864,1745174082090608152
369378,66,111,7,684,2026,-7908,1745174082090608152
369570,52,102,-28,793,2105,-7835,1745174082090608152
369762,97,109,-3,917,2016,-7995,1745174082090608152
369954,104,91,25,899,2090,-7934,1745174082090608152
370146,105,80,8,830,2046,-7861,1745174082090608152
370338,114,64,-1,766,1909,-7817,1745174082090608152
370530,113,61,10,688,1773,-7777,1745174082090608152
370722,110,61,10,653,1690,-7765,1745174082090608152
370914,105,59,10,683,1682,-7776,1745174082090608152
371106,103,65,7,628,1840,-7803,1745174082153954865
371298,122,73,10,635,2042,-7851,1745174082153954865
371490,136,77,15,645,2148,-7869,1745174082153954865
371682,146,85,13,696,2071,-7896,1745174082153954865
371874,151,88,10,743,1881,-7908,1745174082153954865
372066,156,91,15,798,1755,-7953,1745174082153954865
372258,159,88,22,828,1724,-7984,1745174082153954865
372450,158,86,23,821,1772,-7941,1745174082153954865
372642,158,83,20,823,1798,-7924,1745174082153954865
372834,158,81,19,842,1796,-7932,1745174082153954865
373026,157,81,18,834,1746,-7951,1745174082153954865
373218,154,78,18,862,1708,-7963,1745174082153954865
375138,14,-22,-4,866,1579,-7968,1745174093295522461
810018,-81,37,9,371,1806,-7913,1745174093295522461
810210,-85,-35,1,23,1371,-7979,1745174093295522461
810402,-52,-18,19,191,1403,-8144,1745174093295522461
810594,-49,-10,20,135,1375,-7903,1745174093295522461
810786,-59,-14,10,109,1453,-7972,1745174093295522461
810978,-72,3,14,200,1603,-7979,1745174093295522461
811170,-59,5,18,238,1716,-8005,1745174093295522461
811362,-58,-11,15,269,1692,-8003,1745174093295522461
811554,-60,-2,13,249,1697,-7959,1745174093295522461
811746,-48,-9,14,226,1706,-7951,1745174093295522461
811938,-47,-13,14,257,1714,-7976,1745174093295522461
812130,-48,-9,12,265,1636,-7975,1745174093358523761
812322,-47,-18,12,232,1605,-8134,1745174093358523761
812514,-36,-19,15,171,1700,-8120,1745174093358523761
812706,-32,-11,17,148,1688,-8102,1745174093358523761
812898,-34,-7,12,173,1622,-8109,1745174093358523761
813090,-23,1,9,281,1751,-8164,1745174093358523761
813282,-2,9,7,213,2089,-8176,1745174093358523761
813474,30,20,1,81,2415,-8178,1745174093358523761
813666,69,37,4,13,2531,-8043,1745174093358523761
813858,87,36,5,-48,1830,-7367,1745174093358523761
814050,120,116,14,-94,3023,-8627,1745174093358523761
814242,259,75,8,-131,2575,-7631,1745174093358523761
814434,202,156,22,-382,2059,-7704,1745174093416401670
814626,281,185,34,-398,1906,-7834,1745174093416401670
814818,313,236,52,-309,1838,-7645,1745174093416401670
815010,302,287,59,84,1545,-8017,1745174093416401670
815202,147,299,2,502,1115,-8399,1745174093416401670
815394,159,219,27,925,667,-7070,1745174093416401670
815586,131,168,50,939,-277,-7336,1745174093416401670
815778,48,137,96,618,149,-8235,1745174093416401670
815970,45,50,92,473,799,-8273,1745174093416401670
816162,-35,58,98,285,1246,-7951,1745174093416401670
816354,-48,71,99,131,1572,-7897,1745174093416401670
816546,-31,74,103,189,1845,-7905,1745174093416401670
816738,-35,89,91,258,1901,-7968,1745174093472662302
816930,-22,91,101,353,1795,-8029,1745174093472662302
817122,-10,78,128,446,1667,-8025,1745174093472662302
817314,-13,58,154,499,1530,-7990,1745174093472662302
817506,-13,39,161,617,1440,-7901,1745174093472662302
817698,-8,36,132,612,1472,-7885,1745174093472662302
817890,-7,23,112,572,1510,-7894,1745174093472662302
818082,3,5,110,569,1420,-7934,1745174093472662302
818274,5,-1,101,476,1369,-8076,1745174093472662302
818466,-17,-10,87,437,1409,-8000,1745174093472662302
818658,-21,-13,72,443,1571,-7864,1745174093472662302
818850,-19,-6,55,431,1719,-7835,1745174093472662302
819042,-10,-5,38,433,1699,-7941,1745174093539884656
819234,-1,-12,27,448,1604,-8023,1745174093539884656
819426,-1,-20,23,457,1525,-8013,1745174093539884656
819618,-4,-27,23,447,1492,-7989,1745174093539884656
819810,-7,-35,20,432,1503,-7963,1745174093539884656
820002,-9,-42,18,412,1497,-7941,1745174093539884656
820194,-12,-45,14,372,1468,-7942,1745174093539884656
820386,-16,-46,9,324,1442,-7967,1745174093539884656
820578,-22,-44,5,280,1412,-7981,1745174093539884656
820770,-29,-40,2,246,1402,-7980,1745174093539884656
820962,-37,-33,2,221,1388,-7974,1745174093539884656
821154,-45,-23,2,188,1424,-7945,1745174093539884656
821346,-50,-11,4,184,1460,-7950,1745174093586090328
821538,-53,0,5,193,1491,-7955,1745174093586090328
821730,-56,10,4,212,1539,-7970,1745174093586090328
821922,-57,18,4,253,1562,-7967,1745174093586090328
822114,-55,25,2,271,1595,-7965,1745174093586090328
822306,-53,27,2,312,1597,-7966,1745174093586090328
822498,-51,28,1,333,1598,-7967,1745174093586090328
822690,-50,27,0,368,1589,-7965,1745174093586090328
822882,-47,26,-1,360,1590,-7961,1745174093586090328
823074,-47,24,-2,341,1580,-7968,1745174093586090328
823266,-47,24,-2,329,1567,-7963,1745174093586090328
823458,-48,26,-2,294,1548,-7949,1745174093586090328
823650,-50,30,-2,265,1544,-7954,1745174093646430089
823842,-51,36,-1,260,1537,-7959,1745174093646430089
824034,-53,45,0,232,1563,-7959,1745174093646430089
824226,-55,55,2,226,1570,-7964,1745174093646430089
824418,-55,63,4,244,1601,-7963,1745174093646430089
824610,-55,72,6,272,1605,-7965,1745174093646430089
824802,-55,79,7,295,1618,-7965,1745174093646430089
824994,-54,83,7,332,1623,-7951,1745174093646430089
825186,-53,85,7,347,1608,-7950,1745174093646430089
825378,-52,86,7,356,1608,-7953,1745174093646430089
825570,-52,86,8,390,1608,-7965,1745174093646430089
825762,-52,84,9,397,1610,-7949,1745174093646430089
825954,-52,82,9,406,1622,-7955,1745174093710606586
826146,-51,80,9,411,1635,-7946,1745174093710606586
826338,-50,77,9,411,1638,-7941,1745174093710606586
826530,-48,74,8,426,1644,-7945,1745174093710606586
826722,-46,72,8,420,1650,-7943,1745174093710606586
826914,-47,68,8,429,1650,-7931,1745174093710606586
827106,-43,66,8,429,1671,-7930,1745174093710606586
827298,-41,63,8,432,1676,-7936,1745174093710606586
827490,-38,61,9,416,1687,-7940,1745174093710606586
827682,-35,60,10,410,1704,-7924,1745174093710606586
827874,-31,61,10,400,1719,-7946,1745174093710606586
828066,-26,62,10,387,1711,-7938,1745174093710606586
828258,-20,64,12,383,1718,-7944,1745174093768989386
828450,-15,67,13,374,1709,-7922,1745174093768989386
828642,-9,71,14,372,1695,-7935,1745174093768989386
828834,-4,74,16,391,1686,-7945,1745174093768989386
829026,1,76,17,402,1685,-7930,1745174093768989386
829218,5,76,17,421,1681,-7933,1745174093768989386
829410,10,76,18,427,1673,-7925,1745174093768989386
829602,13,76,19,440,1658,-7932,1745174093768989386
829794,16,72,22,422,1654,-7956,1745174093768989386
829986,20,61,36,452,1639,-7941,1745174093768989386
830178,19,66,43,442,1639,-7930,1745174093768989386
830370,19,66,45,437,1650,-7929,1745174093768989386
830562,23,63,46,467,1667,-7928,1745174093816736294
830754,25,64,47,465,1671,-7922,1745174093816736294
830946,30,64,50,459,1693,-7938,1745174093816736294
831138,35,59,52,502,1688,-7941,1745174093816736294
831330,41,59,54,514,1694,-7922,1745174093816736294
831522,48,55,57,526,1715,-7905,1745174093816736294
831714,55,50,61,528,1722,-7903,1745174093816736294
831906,63,44,68,533,1733,-7916,1745174093816736294
832098,72,37,73,567,1745,-7941,1745174093816736294
832290,81,31,75,556,1746,-7950,1745174093816736294
832482,91,25,73,536,1730,-7915,1745174093816736294
832674,101,20,78,533,1710,-7906,1745174093816736294
832866,110,14,83,517,1686,-7953,1745174093886070348
833058,116,9,85,524,1659,-7967,1745174093886070348
833250,120,4,97,503,1593,-7941,1745174093886070348
833442,125,1,107,484,1588,-7936,1745174093886070348
833634,127,1,109,464,1567,-7952,1745174093886070348
833826,115,-19,100,229,1560,-8067,1745174093886070348
834018,76,-89,140,376,1395,-7710,1745174093886070348
834210,123,-12,158,417,1485,-7903,1745174093886070348
834402,128,54,125,369,1637,-7988,1745174093886070348
834594,125,39,115,555,1640,-8006,1745174093886070348
834786,120,3,122,540,1594,-8020,1745174093886070348
834978,124,0,155,711,1542,-7912,1745174093886070348
835170,154,7,145,660,1606,-8009,1745174093937411181
835362,150,-2,126,646,1568,-7961,1745174093937411181
835554,147,-26,137,593,1487,-8028,1745174093937411181
835746,131,-62,173,563,1390,-7954,1745174093937411181
835938,130,-71,205,491,1364,-7952,1745174093937411181
836130,135,-55,191,461,1405,-7958,1745174093937411181
836322,138,-27,168,438,1460,-7980,1745174093937411181
836514,144,-17,149,443,1512,-7996,1745174093937411181
836706,147,-7,122,464,1529,-7978,1745174093937411181
836898,146,-4,122,511,1462,-7972,1745174093937411181
837090,146,-5,154,544,1379,-7972,1745174093937411181
837282,144,-11,177,600,1378,-7988,1745174093937411181
837474,138,-15,167,563,1378,-8035,1745174094060751721
837666,125,-20,163,528,1308,-8051,1745174094060751721
837858,82,-24,215,506,1138,-7958,1745174094060751721
838050,37,-43,303,543,1068,-7954,1745174094060751721
838242,30,-47,300,443,1166,-7995,1745174094060751721
838434,18,-36,243,360,1285,-7987,1745174094060751721
838626,15,-18,202,329,1360,-7991,1745174094060751721
838818,23,0,178,322,1416,-7996,1745174094060751721
839010,21,14,160,362,1423,-7993,1745174094060751721
839202,22,22,145,433,1367,-8011,1745174094060751721
839394,28,29,129,473,1361,-8027,1745174094060751721
839586,40,38,109,530,1377,-8034,1745174094060751721
839778,50,43,85,533,1390,-8062,1745174094070291582
839970,50,41,78,548,1368,-8040,1745174094070291582
840162,55,39,75,544,1342,-8030,1745174094070291582
840354,57,39,65,507,1297,-8019,1745174094070291582
840546,47,39,65,483,1225,-7994,1745174094070291582
840738,35,42,73,460,1171,-7979,1745174094070291582
840930,26,48,74,439,1176,-7989,1745174094070291582
841122,20,58,67,455,1207,-7984,1745174094070291582
841314,26,72,51,462,1262,-8005,1745174094070291582
841506,31,83,32,487,1326,-8014,1745174094070291582
841698,33,90,21,528,1336,-8007,1745174094070291582
841890,32,91,19,585,1319,-7999,1745174094070291582
842082,29,89,18,606,1295,-8006,1745174094123637397
842274,25,86,17,600,1300,-8003,1745174094123637397
842466,20,82,19,614,1284,-8006,1745174094123637397
842658,16,80,19,595,1309,-7998,1745174094123637397
842850,14,80,18,560,1309,-7992,1745174094123637397
843042,13,79,17,542,1333,-7997,1745174094123637397
843234,11,81,17,529,1331,-7995,1745174094123637397
843426,11,82,16,563,1316,-7977,1745174094123637397
843618,11,84,15,563,1303,-7977,1745174094123637397
843810,9,85,14,585,1303,-7978,1745174094123637397
844002,7,83,14,607,1293,-7982,1745174094123637397
844194,5,80,14,635,1290,-7986,1745174094123637397
844386,3,77,14,622,1298,-7986,1745174094177155033
844578,2,74,14,621,1293,-7995,1745174094177155033
844770,1,73,12,629,1307,-7999,1745174094177155033
844962,-1,70,13,620,1297,-7989,1745174094177155033
845154,-4,67,12,624,1297,-7982,1745174094177155033
845346,-7,66,12,634,1281,-7951,1745174094177155033
845538,-9,64,12,642,1293,-7959,1745174094177155033
845730,-13,62,12,629,1282,-7988,1745174094177155033
845922,-17,59,11,651,1276,-7983,1745174094177155033
846114,-20,56,11,661,1290,-7963,1745174094177155033
846306,-21,52,10,662,1319,-7959,1745174094177155033
846498,-22,49,10,663,1325,-7959,1745174094177155033
846690,-23,46,10,670,1346,-7969,1745174094233864619
846882,-21,41,7,669,1366,-7975,1745174094233864619
847074,-19,37,7,665,1381,-7974,1745174094233864619
847266,-16,33,7,665,1397,-7966,1745174094233864619
847458,-12,30,7,672,1410,-7969,1745174094233864619
847650,-8,26,6,652,1405,-7967,1745174094233864619
847842,-4,24,6,647,1402,-7964,1745174094233864619
848034,-2,23,6,647,1396,-7970,1745174094233864619
848226,2,22,6,643,1392,-7972,1745174094233864619
848418,5,21,6,633,1370,-7971,1745174094233864619
848610,6,22,6,635,1358,-7981,1745174094233864619
848802,7,22,6,646,1340,-7991,1745174094233864619
848994,8,21,6,640,1337,-7990,1745174094294592345
849186,8,21,6,621,1319,-7979,1745174094294592345
849378,8,21,6,637,1325,-7971,1745174094294592345
849570,9,21,6,675,1328,-7963,1745174094294592345
849762,10,20,6,655,1336,-7973,1745174094294592345
849954,10,19,7,666,1326,-7980,1745174094294592345
850146,11,18,6,660,1327,-7984,1745174094294592345
850338,11,16,5,669,1324,-7972,1745174094294592345
850530,11,14,5,662,1305,-7977,1745174094294592345
850722,12,12,4,666,1314,-7996,1745174094294592345
850914,12,9,4,677,1304,-7997,1745174094294592345
851106,10,7,4,664,1297,-7995,1745174094294592345
851298,9,6,3,647,1286,-7991,1745174094364561133
851490,6,6,3,642,1272,-7996,1745174094364561133
851682,4,5,3,625,1275,-7979,1745174094364561133
851874,1,6,2,634,1280,-7985,1745174094364561133
852066,-2,9,2,617,1268,-7990,1745174094364561133
852258,-5,11,2,628,1282,-7990,1745174094364561133
852450,-8,12,1,632,1298,-7979,1745174094364561133
852642,-10,14,2,636,1300,-7973,1745174094364561133
852834,-11,15,1,664,1314,-7978,1745174094364561133
853026,-11,14,0,665,1328,-7969,1745174094364561133
853218,-12,14,-1,678,1344,-7984,1745174094364561133
853410,-12,13,0,685,1345,-7982,1745174094364561133
853602,-10,11,-1,695,1347,-7991,1745174094410531703
853794,-9,9,-1,683,1357,-7993,1745174094410531703
853986,-8,8,-1,681,1334,-7989,1745174094410531703
854178,-8,6,-2,699,1322,-7994,1745174094410531703
854370,-7,4,-2,699,1319,-7979,1745174094410531703
854562,-8,3,-2,684,1311,-7985,1745174094410531703
854754,-7,1,-2,689,1314,-7986,1745174094410531703
854946,-6,-1,-2,688,1313,-7996,1745174094410531703
855138,-7,-3,-2,680,1307,-7999,1745174094410531703
855330,-7,-5,-3,674,1305,-7987,1745174094410531703
855522,-9,-7,-3,660,1291,-7993,1745174094410531703
855714,-11,-8,-3,647,1293,-7988,1745174094410531703
855906,-12,-10,-3,644,1290,-7982,1745174094469384186
856098,-14,-10,-3,632,1292,-7983,1745174094469384186
856290,-16,-10,-3,629,1296,-7977,1745174094469384186
856482,-17,-9,-2,629,1306,-7972,1745174094469384186
856674,-19,-8,-3,612,1302,-7974,1745174094469384186
856866,-20,-7,-2,626,1319,-7980,1745174094469384186
857058,-21,-5,-2,644,1333,-7976,1745174094469384186
857250,-20,-5,-2,661,1369,-7987,1745174094469384186
857442,-18,-6,-1,666,1391,-7996,1745174094469384186
857634,-15,-7,-2,663,1402,-7991,1745174094469384186
857826,-12,-8,-2,671,1413,-7990,1745174094469384186
858018,-7,-10,-2,691,1421,-7971,1745174094469384186
858210,-3,-12,-1,678,1397,-7967,1745174094530454514
858402,1,-14,-2,669,1395,-7983,1745174094530454514
858594,6,-14,-2,665,1385,-7991,1745174094530454514
858786,10,-14,-1,639,1362,-7966,1745174094530454514
858978,12,-14,-1,644,1353,-7977,1745174094530454514
859170,12,-13,0,642,1322,-7987,1745174094530454514
859362,13,-12,1,643,1312,-7994,1745174094530454514
859554,13,-13,1,650,1299,-7988,1745174094530454514
859746,12,-14,1,642,1285,-7994,1745174094530454514
859938,11,-14,1,642,1275,-8015,1745174094530454514
860130,9,-15,1,644,1260,-7992,1745174094530454514
860322,6,-15,0,644,1261,-7981,1745174094530454514
860514,2,-15,1,616,1255,-7987,1745174094587648418
860706,-2,-14,0,614,1259,-7990,1745174094587648418
860898,-5,-13,0,620,1264,-7997,1745174094587648418
861090,-10,-12,0,603,1276,-7984,1745174094587648418
861282,-13,-10,0,605,1291,-7990,1745174094587648418
861474,-14,-8,0,594,1311,-7988,1745174094587648418
861666,-17,-6,-1,613,1323,-7995,1745174094587648418
861858,-17,-4,-1,622,1329,-7988,1745174094587648418
862050,-17,-3,0,621,1349,-7998,1745174094587648418
862242,-17,-2,0,630,1365,-7990,1745174094587648418
862434,-17,-1,-1,612,1345,-7993,1745174094587648418
862626,-17,-1,-2,627,1330,-7992,1745174094587648418
862818,-15,-1,-2,618,1337,-7980,1745174094643612907
863010,-15,0,-2,608,1338,-7983,1745174094643612907
863202,-14,1,-2,616,1313,-7996,1745174094643612907
863394,-14,2,-2,603,1297,-7981,1745174094643612907
863586,-14,3,-2,608,1301,-7982,1745174094643612907
863778,-13,5,-1,613,1326,-7971,1745174094643612907
863970,-13,8,-2,613,1321,-7990,1745174094643612907
864162,-13,10,-1,611,1321,-7992,1745174094643612907
864354,-12,12,-2,605,1310,-7995,1745174094643612907
864546,-13,14,-2,605,1308,-8001,1745174094643612907
864738,-14,15,-2,616,1312,-8001,1745174094643612907
864930,-15,17,-2,610,1300,-7994,1745174094643612907
865122,-18,18,-2,611,1282,-7987,1745174094703884127
865314,-21,20,-2,619,1276,-7991,1745174094703884127
865506,-24,21,-2,611,1281,-7990,1745174094703884127
865698,-27,24,-2,617,1295,-7988,1745174094703884127
865890,-31,26,-3,617,1292,-7995,1745174094703884127
866082,-33,27,-2,609,1324,-7980,1745174094703884127
866274,-34,28,-3,625,1333,-7985,1745174094703884127
866466,-35,28,-2,642,1351,-7994,1745174094703884127
866658,-35,27,-2,649,1365,-7996,1745174094703884127
866850,-34,27,-3,657,1382,-7994,1745174094703884127
867042,-32,26,-3,637,1374,-7989,1745174094703884127
867234,-29,25,-3,638,1383,-7985,1745174094703884127
867426,-27,25,-3,658,1384,-7975,1745174094768417861
867618,-24,25,-3,640,1379,-7975,1745174094768417861
867810,-21,24,-3,630,1385,-7981,1745174094768417861
868002,-19,24,-2,645,1368,-7971,1745174094768417861
868194,-16,26,-2,644,1364,-7972,1745174094768417861
868386,-14,26,-2,640,1351,-7993,1745174094768417861
868578,-13,26,-1,653,1369,-7994,1745174094768417861
868770,-12,25,-2,651,1355,-7978,1745174094768417861
868962,-10,24,-1,661,1347,-7972,1745174094768417861
869154,-9,23,-1,657,1337,-7988,1745174094768417861
869346,-8,22,-1,662,1366,-8000,1745174094768417861
869538,-8,20,-1,649,1372,-7978,1745174094768417861
869730,-6,19,0,651,1403,-7961,1745174094822513981
869922,-2,20,-1,633,1401,-7975,1745174094822513981
870114,1,20,-1,633,1384,-8004,1745174094822513981
870306,4,21,-1,640,1379,-7992,1745174094822513981
870498,5,21,0,635,1358,-7969,1745174094822513981
870690,6,23,1,625,1355,-7976,1745174094822513981
870882,7,26,2,607,1364,-7980,1745174094822513981
871074,7,28,2,614,1353,-7976,1745174094822513981
871266,8,29,3,628,1355,-7980,1745174094822513981
871458,8,31,2,652,1352,-7988,1745174094822513981
871650,8,32,3,670,1351,-7990,1745174094822513981
871842,8,31,2,671,1365,-7980,1745174094822513981
872034,10,31,3,683,1366,-7987,1745174094876692497
872226,11,30,3,688,1391,-7974,1745174094876692497
872418,14,28,3,692,1404,-7981,1745174094876692497
872610,16,28,3,682,1395,-7976,1745174094876692497
872802,19,27,3,694,1387,-7991,1745174094876692497
872994,22,26,3,678,1381,-7988,1745174094876692497
873186,24,25,3,680,1357,-7995,1745174094876692497
873378,27,25,3,671,1348,-7990,1745174094876692497
873570,29,25,3,677,1337,-7971,1745174094876692497
873762,31,26,3,671,1331,-7977,1745174094876692497
873954,33,28,3,667,1332,-7998,1745174094876692497
874146,35,27,2,673,1323,-8002,1745174094876692497
874338,35,27,2,670,1307,-7998,1745174094941625549
874530,34,27,2,683,1286,-8007,1745174094941625549
874722,34,28,1,666,1287,-7999,1745174094941625549
874914,31,29,1,659,1266,-7993,1745174094941625549
875106,28,30,1,657,1240,-7991,1745174094941625549
875298,23,32,2,661,1249,-8003,1745174094941625549
875490,20,34,2,649,1248,-7999,1745174094941625549
875682,15,36,3,650,1260,-8015,1745174094941625549
875874,12,36,7,626,1265,-8021,1745174094941625549
876066,11,38,10,630,1290,-8016,1745174094941625549
876258,1,48,3,637,1282,-8025,1745174094941625549
876450,-4,51,2,637,1277,-8021,1745174094941625549
876642,2,55,3,659,1298,-7994,1745174094999373563
876834,-2,59,6,655,1307,-7986,1745174094999373563
877026,-4,60,3,666,1303,-7996,1745174094999373563
877218,-4,63,2,651,1313,-8007,1745174094999373563
877410,-4,66,5,654,1316,-8027,1745174094999373563
877602,-2,71,4,656,1330,-8020,1745174094999373563
877794,0,76,2,641,1345,-8021,1745174094999373563
877986,2,81,3,642,1347,-8016,1745174094999373563
878178,6,86,5,653,1354,-8013,1745174094999373563
878370,8,93,5,668,1341,-8020,1745174094999373563
878562,9,98,5,669,1325,-8042,1745174094999373563
878754,8,102,5,687,1288,-8046,1745174094999373563
878946,7,105,5,710,1256,-8040,1745174095052722139
879138,3,108,5,715,1222,-8030,1745174095052722139
879330,-3,114,6,699,1209,-8035,1745174095052722139
879522,-11,117,7,709,1194,-8036,1745174095052722139
879714,-20,122,8,710,1173,-8031,1745174095052722139
879906,-32,126,10,714,1159,-8038,1745174095052722139
880098,-42,132,10,710,1170,-8075,1745174095052722139
880290,-54,136,11,730,1166,-8110,1745174095052722139
880482,-67,142,11,735,1182,-8128,1745174095052722139
880674,-79,148,12,741,1209,-8145,1745174095052722139
880866,-91,152,12,723,1211,-8169,1745174095052722139
881058,-103,158,11,733,1237,-8187,1745174095052722139
881250,-113,165,5,729,1272,-8198,1745174095110881816
881442,-116,182,-31,739,1341,-8200,1745174095110881816
881634,-109,209,-104,675,1403,-8261,1745174095110881816
881826,-118,228,-148,668,1371,-8332,1745174095110881816
882018,-114,248,-142,658,1360,-8494,1745174095110881816
882210,-100,263,-147,635,1412,-8606,1745174095110881816
882402,-120,301,-188,569,1369,-8601,1745174095110881816
882594,-138,341,-243,539,1271,-8669,1745174095110881816
882786,-161,399,-313,532,1096,-8773,1745174095110881816
882978,-200,486,-405,615,889,-8667,1745174095110881816
883170,-242,629,-535,677,661,-8729,1745174095110881816
883362,-326,755,-636,701,285,-8745,1745174095110881816
883554,-353,886,-563,944,-318,-8307,1745174095177916672
883746,-204,1031,-367,1367,-684,-8348,1745174095177916672
883938,-186,1043,-272,1466,-886,-9123,1745174095177916672
884130,-317,988,-266,2019,-1441,-9559,1745174095177916672
884322,-417,923,-357,2859,-2108,-10125,1745174095177916672
884514,-540,815,-457,3788,-2666,-11008,1745174095177916672
884706,-659,621,-516,4853,-2998,-11192,1745174095177916672
884898,-769,365,-567,5625,-2827,-12002,1745174095177916672
885090,-909,238,-634,6497,-2746,-13553,1745174095177916672
885282,-932,148,-692,6468,-2738,-11310,1745174095177916672
885474,-445,581,-137,8093,-2584,-10895,1745174095177916672
885666,530,999,783,9402,-397,-13869,1745174095177916672
885858,542,704,1287,8600,647,-14292,1745174095227975954
886050,477,329,1431,7952,-42,-14186,1745174095227975954
886242,826,-110,1249,7518,-1239,-13823,1745174095227975954
886434,1249,-290,1024,7314,-2675,-13952,1745174095227975954
886626,1598,-233,1017,7799,-4821,-13499,1745174095227975954
886818,1966,-338,1281,8586,-6711,-13102,1745174095227975954
887010,2243,-493,1750,8867,-8082,-12942,1745174095227975954
887202,2381,-620,2265,8507,-8886,-12537,1745174095227975954
887394,2383,-734,2654,7713,-9184,-12102,1745174095227975954
887586,2163,-813,2830,6931,-9265,-12021,1745174095227975954
887778,1850,-844,2904,6595,-9893,-11649,1745174095227975954
887970,1513,-886,2900,6572,-10109,-11876,1745174095227975954
888162,1097,-832,2906,6180,-9638,-11576,1745174095288171082
888354,696,-805,3086,6163,-9148,-11189,1745174095288171082
888546,353,-824,3331,6370,-8599,-10890,1745174095288171082
888738,73,-895,3568,6743,-7949,-10792,1745174095288171082
888930,-160,-1025,3741,6939,-7224,-10517,1745174095288171082
889122,-351,-1136,3839,7026,-6547,-10312,1745174095288171082
889314,-487,-1233,3854,7034,-5885,-10108,1745174095288171082
889506,-570,-1310,3809,6974,-5269,-9784,1745174095288171082
889698,-608,-1377,3765,6600,-4402,-9431,1745174095288171082
889890,-597,-1407,3796,6208,-3714,-9175,1745174095288171082
890082,-567,-1418,3882,5744,-3014,-8912,1745174095288171082
890274,-517,-1394,4018,5373,-2389,-8614,1745174095288171082
890466,-456,-1356,4171,5092,-1835,-8299,1745174095351780344
890658,-382,-1311,4311,4960,-1431,-8012,1745174095351780344
890850,-309,-1250,4404,4907,-1133,-7774,1745174095351780344
891042,-241,-1197,4458,4882,-904,-7558,1745174095351780344
891234,-177,-1146,4486,4974,-788,-7381,1745174095351780344
891426,-119,-1099,4489,5038,-603,-7206,1745174095351780344
891618,-63,-1036,4476,5081,-390,-7143,1745174095351780344
891810,-11,-972,4464,5106,-134,-7148,1745174095351780344
892002,28,-905,4461,5198,128,-7049,1745174095351780344
892194,57,-835,4470,5293,430,-6916,1745174095351780344
892386,79,-765,4492,5408,740,-6800,1745174095351780344
892578,107,-689,4509,5506,1115,-6642,1745174095351780344
892770,147,-605,4513,5582,1596,-6536,1745174095407049475
892962,204,-518,4510,5660,2141,-6421,1745174095407049475
893154,293,-421,4505,5713,2764,-6138,1745174095407049475
893346,407,-326,4510,5892,3258,-6003,1745174095407049475
893538,528,-234,4538,6135,3715,-5861,1745174095407049475
893730,670,-168,4571,6302,4050,-5728,1745174095407049475
893922,825,-105,4588,6523,4166,-5650,1745174095407049475
894114,965,-51,4599,6673,4118,-5487,1745174095407049475
894306,1082,-8,4612,6831,3847,-5400,1745174095407049475
894498,1172,26,4619,6849,3550,-5337,1745174095407049475
894690,1216,70,4611,6771,3329,-5360,1745174095407049475
894882,1199,128,4581,6649,3185,-5383,1745174095407049475
895074,1123,192,4533,6528,3103,-5338,1745174095465158736
895266,1004,263,4474,6455,3146,-5220,1745174095465158736
895458,853,336,4425,6433,3286,-5105,1745174095465158736
895650,684,419,4390,6441,3590,-5080,1745174095465158736
895842,523,514,4360,6427,4044,-5045,1745174095465158736
896034,394,605,4327,6455,4553,-5141,1745174095465158736
896226,311,679,4291,6492,5006,-5216,1745174095465158736
896418,272,729,4250,6508,5348,-5430,1745174095465158736
896610,276,767,4203,6437,5581,-5650,1745174095465158736
896802,312,807,4154,6250,5714,-5830,1745174095465158736
896994,369,856,4105,5956,5781,-5926,1745174095465158736
897186,436,911,4059,5674,5736,-6038,1745174095465158736
897378,507,962,4018,5451,5556,-5946,1745174095542736829
897570,581,1000,3977,5340,5266,-5772,1745174095542736829
897762,646,1028,3932,5264,4899,-5685,1745174095542736829
897954,687,1048,3881,5183,4581,-5654,1745174095542736829
898146,698,1063,3813,5041,4294,-5732,1745174095542736829
898338,690,1075,3731,4790,4125,-5791,1745174095542736829
898530,671,1075,3644,4561,4014,-5900,1745174095542736829
898722,642,1072,3558,4315,3967,-5995,1745174095542736829
898914,596,1060,3477,4080,3956,-6032,1745174095542736829
899106,530,1035,3400,3957,3913,-6043,1745174095542736829
899298,441,999,3325,3831,3791,-6079,1745174095542736829
899490,340,959,3248,3712,3661,-6085,1745174095542736829
899682,237,917,3168,3552,3545,-6145,1745174095574252374
899874,134,882,3090,3387,3443,-6280,1745174095574252374
900066,36,845,3015,3227,3319,-6434,1745174095574252374
900258,-49,798,2939,3039,3193,-6618,1745174095574252374
900450,-120,759,2861,2834,3093,-6760,1745174095574252374
900642,-187,736,2788,2729,2950,-6814,1745174095574252374
900834,-255,786,2757,2779,2731,-6747,1745174095574252374
901026,-335,818,2755,2720,2740,-6910,1745174095574252374
901218,-418,744,2723,2306,3001,-6984,1745174095574252374
901410,-472,687,2637,1908,3197,-7006,1745174095574252374
901602,-503,649,2501,1656,3231,-7027,1745174095574252374
901794,-521,605,2339,1526,3170,-7117,1745174095574252374
901986,-541,556,2173,1424,3070,-7182,1745174095659529512
902178,-567,498,2022,1377,2920,-7157,1745174095659529512
902370,-589,450,1892,1348,2747,-7150,1745174095659529512
902562,-605,415,1779,1319,2666,-7196,1745174095659529512
902754,-619,392,1674,1272,2721,-7292,1745174095659529512
902946,-628,381,1571,1230,2813,-7361,1745174095659529512
903138,-628,365,1472,1213,2885,-7419,1745174095659529512
903330,-613,336,1384,1186,2924,-7432,1745174095659529512
903522,-589,300,1304,1139,2911,-7470,1745174095659529512
903714,-566,265,1227,1095,2840,-7481,1745174095659529512
903906,-546,235,1155,1021,2717,-7491,1745174095659529512
904098,-531,213,1091,940,2579,-7539,1745174095659529512
904290,-522,196,1034,853,2425,-7608,1745174095794720569
904482,-519,179,982,793,2228,-7708,1745174095794720569
904674,-520,170,932,778,2030,-7797,1745174095794720569
904866,-514,172,887,757,1883,-7858,1745174095794720569
905058,-505,179,849,759,1783,-7960,1745174095794720569
905250,-494,193,823,806,1688,-7958,1745174095794720569
905442,-478,190,806,962,1619,-7894,1745174095794720569
905634,-448,173,771,1156,1473,-7925,1745174095794720569
905826,-431,174,675,1105,1408,-7941,1745174095794720569
906018,-433,176,563,793,1439,-7980,1745174095794720569
906210,-423,192,512,577,1492,-8070,1745174095794720569
906402,-379,203,527,534,1506,-8098,1745174095794720569
906594,-330,209,567,770,1516,-8164,1745174095803331323
906786,-301,196,603,947,1652,-8204,1745174095803331323
906978,-281,189,624,1045,1709,-8212,1745174095803331323
907170,-256,186,614,1041,1711,-8250,1745174095803331323
907362,-224,189,589,1005,1602,-8276,1745174095803331323
907554,-190,179,559,962,1401,-8286,1745174095803331323
907746,-163,172,531,935,1241,-8286,1745174095803331323
907938,-146,165,507,932,1144,-8292,1745174095803331323
908130,-139,163,489,907,1078,-8286,1745174095803331323
908322,-145,167,472,917,1047,-8277,1745174095803331323
908514,-152,172,450,947,1029,-8264,1745174095803331323
908706,-154,173,425,975,1005,-8213,1745174095803331323
908898,-153,172,399,1009,952,-8186,1745174095812410668
909090,-146,162,374,1049,885,-8196,1745174095812410668
909282,-133,146,350,1008,848,-8183,1745174095812410668
909474,-116,134,328,984,812,-8197,1745174095812410668
909666,-103,124,306,923,839,-8247,1745174095812410668
909858,-93,119,288,903,816,-8273,1745174095812410668
910050,-84,111,274,921,783,-8267,1745174095812410668
910242,-74,107,260,944,764,-8252,1745174095812410668
910434,-68,111,250,1015,699,-8190,1745174095812410668
910626,-65,128,253,1104,594,-8206,1745174095812410668
910818,-64,125,250,1149,527,-8251,1745174095812410668
911010,-65,102,225,1157,499,-8204,1745174095812410668
911202,-66,87,177,1097,478,-8194,1745174095879468024
911394,-69,78,124,1054,418,-8183,1745174095879468024
911586,-72,72,76,1043,372,-8207,1745174095879468024
911778,-72,67,44,1057,307,-8235,1745174095879468024
911970,-67,68,32,1067,288,-8231,1745174095879468024
912162,-56,76,34,1049,281,-8224,1745174095879468024
912354,-46,81,38,1071,298,-8227,1745174095879468024
912546,-34,80,37,1066,319,-8187,1745174095879468024
912738,-17,75,31,1090,308,-8135,1745174095879468024
912930,-1,72,22,1116,282,-8088,1745174095879468024
913122,11,65,13,1188,226,-8058,1745174095879468024
913314,18,56,5,1275,151,-8072,1745174095879468024
913506,20,46,-4,1300,94,-8086,1745174095927245035
913698,20,33,-16,1300,55,-8083,1745174095927245035
913890,17,22,-31,1274,18,-8081,1745174095927245035
914082,10,15,-44,1223,-31,-8081,1745174095927245035
914274,0,10,-58,1149,-63,-8089,1745174095927245035
914466,-12,7,-72,1111,-79,-8111,1745174095927245035
914658,-24,7,-78,1113,-97,-8111,1745174095927245035
914850,-32,7,-77,1100,-124,-8102,1745174095927245035
915042,-37,12,-67,1079,-121,-8114,1745174095927245035
915234,-42,21,-55,1105,-135,-8149,1745174095927245035
915426,-49,31,-47,1187,-151,-8161,1745174095927245035
915618,-53,41,-42,1265,-170,-8173,1745174095927245035
915810,-55,49,-38,1310,-178,-8165,1745174095997561841
916002,-53,51,-33,1377,-168,-8149,1745174095997561841
916194,-48,45,-34,1365,-162,-8077,1745174095997561841
916386,-44,39,-45,1300,-141,-8018,1745174095997561841
916578,-43,32,-61,1214,-156,-7945,1745174095997561841
916770,-46,31,-78,1141,-187,-7931,1745174095997561841
916962,-58,33,-90,1129,-282,-7979,1745174095997561841
917154,-75,34,-93,1210,-370,-8009,1745174095997561841
917346,-92,36,-91,1253,-440,-8010,1745174095997561841
917538,-110,36,-85,1291,-456,-8028,1745174095997561841
917730,-132,38,-84,1327,-450,-8007,1745174095997561841
917922,-154,33,-91,1372,-457,-7975,1745174095997561841
918114,-171,26,-104,1388,-503,-7954,1745174096047011806
918114,-171,26,-104,1388,-503,-7954,1745174096047011806
918498,-175,15,-122,1313,-463,-8024,1745174096047011806
918690,-175,15,-126,1246,-372,-8082,1745174096047011806
918882,-176,16,-128,1210,-310,-8126,1745174096047011806
919074,-172,16,-125,1211,-293,-8129,1745174096047011806
919266,-160,16,-121,1276,-323,-8150,1745174096047011806
919458,-144,17,-119,1340,-359,-8174,1745174096047011806
919650,-129,20,-121,1378,-395,-8182,1745174096047011806
919842,-116,21,-126,1375,-405,-8164,1745174096047011806
920034,-105,21,-128,1322,-412,-8130,1745174096047011806
920226,-94,22,-128,1259,-426,-8158,1745174096047011806
920418,-84,26,-127,1246,-430,-8196,1745174096108874209
920610,-74,34,-129,1253,-435,-8251,1745174096108874209
920802,-63,41,-129,1301,-457,-8252,1745174096108874209
920994,-50,45,-126,1366,-478,-8235,1745174096108874209
921186,-36,48,-122,1410,-490,-8187,1745174096108874209
921378,-22,49,-115,1420,-497,-8165,1745174096108874209
921570,-8,45,-108,1423,-510,-8160,1745174096108874209
921762,5,41,-105,1425,-529,-8137,1745174096108874209
921954,19,40,-100,1445,-555,-8159,1745174096108874209
922146,36,38,-91,1475,-577,-8160,1745174096108874209
922338,53,34,-79,1496,-585,-8128,1745174096108874209
922530,65,28,-70,1488,-585,-8145,1745174096108874209
922722,68,21,-67,1489,-572,-8177,1745174096173854710
922722,68,21,-67,1489,-572,-8177,1745174096173854710
923106,73,14,-77,1468,-607,-8179,1745174096173854710
923298,76,10,-80,1473,-632,-8166,1745174096173854710
923490,76,5,-78,1466,-634,-8172,1745174096173854710
923682,72,0,-77,1455,-623,-8147,1745174096173854710
923874,67,-6,-77,1441,-644,-8124,1745174096173854710
924066,59,-13,-80,1424,-666,-8111,1745174096173854710
924258,49,-22,-83,1425,-717,-8081,1745174096173854710
924450,41,-28,-85,1440,-771,-8084,1745174096173854710
924642,32,-31,-83,1448,-794,-8089,1745174096173854710
924834,23,-31,-78,1404,-793,-8081,1745174096173854710
925026,14,-28,-74,1400,-740,-8111,1745174096224946847
925218,4,-25,-72,1399,-704,-8141,1745174096224946847
925410,-4,-25,-70,1396,-669,-8134,1745174096224946847
925602,-6,-25,-67,1432,-633,-8131,1745174096224946847
925794,-4,-23,-63,1435,-596,-8132,1745174096224946847
925986,1,-24,-59,1470,-571,-8126,1745174096224946847
926178,5,-27,-56,1484,-564,-8069,1745174096224946847
926370,10,-32,-54,1489,-557,-8065,1745174096224946847
926562,13,-39,-54,1463,-566,-8054,1745174096224946847
926754,15,-45,-56,1407,-560,-8024,1745174096224946847
926946,16,-49,-58,1362,-547,-8022,1745174096224946847
927138,13,-51,-60,1332,-553,-8025,1745174096224946847
927330,7,-53,-63,1347,-587,-8032,1745174096288720327
927522,-2,-56,-64,1362,-636,-8026,1745174096288720327
927714,-8,-57,-65,1354,-649,-8014,1745174096288720327
927906,-14,-55,-63,1340,-630,-8013,1745174096288720327
928098,-22,-50,-60,1349,-605,-8012,1745174096288720327
928290,-30,-46,-56,1366,-571,-7984,1745174096288720327
928482,-33,-43,-50,1359,-534,-7940,1745174096288720327
928674,-31,-40,-43,1383,-510,-7916,1745174096288720327
928866,-27,-39,-39,1399,-471,-7894,1745174096288720327
929058,-28,-39,-38,1378,-445,-7855,1745174096288720327
929250,-29,-41,-38,1363,-431,-7831,1745174096288720327
929442,-29,-44,-39,1324,-435,-7827,1745174096288720327
929634,-28,-42,-42,1280,-420,-7851,1745174096342334733
929826,-28,-38,-45,1250,-421,-7858,1745174096342334733
930018,-28,-35,-49,1241,-441,-7863,1745174096342334733
930210,-29,-33,-49,1233,-441,-7869,1745174096342334733
930402,-31,-28,-49,1216,-420,-7920,1745174096342334733
930594,-31,-22,-48,1203,-400,-7958,1745174096342334733
930786,-28,-17,-48,1228,-376,-7955,1745174096342334733
930978,-22,-12,-50,1249,-339,-7973,1745174096342334733
931170,-12,-5,-49,1290,-299,-8024,1745174096342334733
931362,0,0,-48,1315,-274,-8046,1745174096342334733
931554,9,3,-47,1380,-274,-8077,1745174096342334733
931746,18,0,-50,1417,-304,-8091,1745174096342334733
931938,29,-8,-55,1421,-335,-8069,1745174096406933726
932130,39,-17,-63,1377,-340,-8098,1745174096406933726
932322,46,-22,-72,1298,-323,-8125,1745174096406933726
932514,47,-24,-83,1253,-311,-8129,1745174096406933726
932706,44,-24,-90,1233,-330,-8118,1745174096406933726
932898,39,-29,-95,1262,-392,-8095,1745174096406933726
933090,35,-35,-95,1293,-460,-8049,1745174096406933726
933282,30,-40,-94,1325,-508,-8013,1745174096406933726
933474,21,-41,-91,1338,-519,-8002,1745174096406933726
933666,11,-42,-88,1335,-525,-8000,1745174096406933726
933858,0,-47,-88,1297,-538,-7985,1745174096406933726
934050,-6,-52,-87,1302,-570,-7976,1745174096406933726
934242,-8,-55,-84,1254,-583,-8002,1745174096465714700
934434,-9,-53,-80,1242,-600,-8013,1745174096465714700
934626,-9,-49,-76,1236,-573,-8023,1745174096465714700
934818,-10,-43,-71,1229,-558,-8037,1745174096465714700
935010,-10,-38,-68,1261,-536,-8054,1745174096465714700
935202,-5,-34,-66,1285,-525,-8037,1745174096465714700
935394,6,-30,-64,1303,-502,-8001,1745174096465714700
935586,16,-29,-63,1326,-502,-7983,1745174096465714700
935778,27,-28,-60,1316,-517,-7971,1745174096465714700
935970,36,-27,-56,1288,-534,-7964,1745174096465714700
936162,46,-25,-50,1270,-546,-8001,1745174096465714700
936354,53,-23,-44,1260,-574,-8003,1745174096465714700
936546,58,-19,-38,1245,-579,-7998,1745174096518835308
936738,59,-17,-32,1236,-597,-7984,1745174096518835308
936930,58,-15,-27,1238,-648,-7958,1745174096518835308
937122,55,-12,-21,1240,-653,-7929,1745174096518835308
937314,50,-11,-18,1254,-651,-7929,1745174096518835308
937506,41,-10,-16,1278,-655,-7918,1745174096518835308
937698,31,-11,-14,1290,-645,-7922,1745174096518835308
937890,21,-11,-14,1322,-634,-7949,1745174096518835308
938082,11,-14,-15,1322,-649,-7941,1745174096518835308
938274,3,-18,-17,1303,-647,-7940,1745174096518835308
938466,-2,-22,-21,1275,-640,-7934,1745174096518835308
938658,-5,-24,-23,1228,-627,-7949,1745174096518835308
938850,-4,-23,-25,1183,-608,-7953,1745174096577861956
939042,-4,-18,-24,1182,-562,-7974,1745174096577861956
939234,-4,-11,-21,1210,-551,-7990,1745174096577861956
939426,-1,-8,-18,1254,-521,-7980,1745174096577861956
939618,6,-6,-14,1321,-543,-7964,1745174096577861956
939810,13,-5,-12,1347,-542,-7921,1745174096577861956
940002,17,-6,-10,1364,-551,-7902,1745174096577861956
940194,18,-7,-9,1371,-575,-7900,1745174096577861956
940386,18,-11,-9,1348,-595,-7895,1745174096577861956
940578,17,-15,-10,1275,-610,-7917,1745174096577861956
940770,13,-17,-14,1195,-560,-7954,1745174096577861956
940962,7,-16,-18,1117,-516,-7965,1745174096577861956
941154,2,-12,-19,1099,-489,-7964,1745174096635168516
941346,0,-8,-18,1155,-486,-7990,1745174096635168516
941538,1,-5,-16,1231,-514,-7999,1745174096635168516
941730,7,-6,-14,1304,-562,-7981,1745174096635168516
941922,14,-10,-14,1339,-569,-7963,1745174096635168516
942114,19,-17,-15,1329,-551,-7941,1745174096635168516
942306,21,-22,-15,1295,-541,-7895,1745174096635168516
942498,20,-24,-15,1246,-557,-7869,1745174096635168516
942690,16,-23,-12,1194,-555,-7864,1745174096635168516
942882,11,-20,-9,1177,-568,-7874,1745174096635168516
943074,2,-17,-5,1185,-581,-7877,1745174096635168516
943266,-7,-14,-3,1208,-590,-7874,1745174096635168516
943458,-16,-10,-3,1218,-565,-7917,1745174096694941408
943650,-24,-5,-5,1232,-534,-7930,1745174096694941408
943842,-29,0,-9,1246,-484,-7959,1745174096694941408
944034,-27,3,-14,1240,-438,-7963,1745174096694941408
944226,-20,8,-18,1256,-387,-7964,1745174096694941408
944418,-9,10,-22,1245,-356,-7936,1745174096694941408
944610,6,9,-25,1254,-345,-7944,1745174096694941408
944802,21,5,-28,1259,-354,-7892,1745174096694941408
944994,33,-2,-32,1279,-426,-7870,1745174096694941408
945186,40,-8,-35,1277,-510,-7864,1745174096694941408
945378,44,-12,-37,1254,-552,-7870,1745174096694941408
945570,39,-12,-39,1230,-573,-7911,1745174096694941408
945762,26,-11,-40,1206,-574,-7922,1745174096752831504
945954,10,-10,-40,1198,-609,-7922,1745174096752831504
946146,-4,-10,-38,1214,-653,-7923,1745174096752831504
946338,-12,-12,-33,1237,-659,-7897,1745174096752831504
946530,-19,-9,-28,1218,-646,-7909,1745174096752831504
946722,-26,-3,-24,1219,-598,-7918,1745174096752831504
946914,-31,1,-23,1243,-563,-7913,1745174096752831504
947106,-30,4,-22,1252,-553,-7933,1745174096752831504
947298,-23,6,-21,1277,-545,-7964,1745174096752831504
947490,-11,9,-19,1282,-518,-7963,1745174096752831504
947682,1,10,-19,1259,-506,-7970,1745174096752831504
947874,11,12,-19,1242,-488,-7979,1745174096752831504
948066,20,15,-20,1225,-517,-7975,1745174096817233832
948258,27,17,-21,1244,-577,-7967,1745174096817233832
948450,30,19,-21,1251,-620,-7959,1745174096817233832
948642,28,22,-20,1249,-645,-7968,1745174096817233832
948834,23,23,-18,1221,-645,-7961,1745174096817233832
949026,17,23,-17,1201,-639,-7975,1745174096817233832
949218,11,21,-16,1191,-632,-7979,1745174096817233832
949410,6,20,-14,1193,-617,-7981,1745174096817233832
949602,1,19,-11,1194,-589,-7993,1745174096817233832
949794,-1,19,-9,1213,-568,-7995,1745174096817233832
949986,1,17,-8,1218,-549,-8021,1745174096817233832
950178,2,16,-6,1248,-523,-8027,1745174096817233832
950370,3,15,-3,1267,-507,-8032,1745174096868515135
950562,4,13,-1,1287,-479,-8054,1745174096868515135
950754,6,13,-2,1306,-495,-8065,1745174096868515135
950946,10,11,-3,1323,-522,-8078,1745174096868515135
951138,18,8,-6,1304,-547,-8071,1745174096868515135
951330,25,5,-10,1257,-560,-8070,1745174096868515135
951522,26,5,-13,1191,-569,-8083,1745174096868515135
951714,26,7,-14,1160,-570,-8077,1745174096868515135
951906,27,10,-13,1139,-573,-8075,1745174096868515135
952098,27,13,-10,1149,-558,-8057,1745174096868515135
952290,26,17,-5,1180,-552,-8059,1745174096868515135
952482,25,21,2,1250,-542,-8063,1745174096868515135
952674,27,22,7,1291,-548,-8073,1745174096942123160
952866,32,20,10,1308,-544,-8068,1745174096942123160
953058,37,16,10,1308,-510,-8058,1745174096942123160
953250,40,14,8,1290,-465,-8054,1745174096942123160
953442,42,16,6,1266,-461,-8053,1745174096942123160
953634,43,16,3,1249,-479,-8062,1745174096942123160
953826,43,15,-1,1232,-480,-8056,1745174096942123160
954018,41,13,-6,1241,-468,-8053,1745174096942123160
954210,37,12,-13,1213,-473,-8032,1745174096942123160
954402,30,11,-22,1200,-457,-7998,1745174096942123160
954594,23,9,-31,1165,-460,-7997,1745174096942123160
954786,17,8,-40,1190,-487,-7978,1745174096942123160
954978,15,7,-46,1192,-517,-7956,1745174096984442357
955170,16,8,-48,1199,-542,-7947,1745174096984442357
955362,15,9,-46,1231,-553,-7955,1745174096984442357
955554,16,10,-44,1226,-565,-7954,1745174096984442357
955746,16,9,-39,1215,-569,-7962,1745174096984442357
955938,17,17,-34,1241,-579,-7929,1745174096984442357
956130,16,22,-28,1239,-584,-7945,1745174096984442357
956322,15,20,-21,1248,-620,-7930,1745174096984442357
956514,15,22,-18,1243,-622,-7924,1745174096984442357
956706,13,26,-13,1226,-623,-7929,1745174096984442357
956898,9,27,-8,1242,-623,-7962,1745174096984442357
957090,6,30,-3,1234,-627,-7992,1745174096984442357
957282,3,32,0,1219,-597,-8006,1745174097052915169
957474,1,35,2,1237,-554,-7995,1745174097052915169
957666,0,37,4,1247,-542,-7995,1745174097052915169
957858,-1,33,2,1261,-532,-8009,1745174097052915169
958050,0,29,0,1279,-560,-8000,1745174097052915169
958242,2,27,1,1285,-560,-8018,1745174097052915169
958434,5,27,0,1292,-556,-8038,1745174097052915169
958626,6,26,-3,1283,-547,-8054,1745174097052915169
958818,7,23,-8,1282,-531,-8088,1745174097052915169
959010,6,20,-11,1266,-521,-8073,1745174097052915169
959202,6,17,-12,1273,-525,-8053,1745174097052915169
959394,6,15,-11,1278,-525,-8073,1745174097052915169
959586,5,11,-10,1324,-542,-8053,1745174097099868803
959778,4,5,-11,1341,-588,-8039,1745174097099868803
959970,4,-2,-12,1355,-623,-8045,1745174097099868803
960162,1,-7,-13,1349,-634,-8063,1745174097099868803
960354,-4,-11,-14,1289,-622,-8052,1745174097099868803
960546,-12,-12,-16,1266,-589,-8048,1745174097099868803
960738,-17,-13,-16,1220,-573,-8040,1745174097099868803
960930,-21,-15,-16,1218,-569,-8019,1745174097099868803
961122,-25,-14,-17,1234,-599,-8010,1745174097099868803
961314,-29,-14,-15,1260,-648,-8006,1745174097099868803
961506,-31,-14,-13,1253,-690,-7986,1745174097099868803
961698,-33,-14,-11,1245,-680,-8011,1745174097099868803
961890,-36,-10,-10,1200,-655,-8016,1745174097160554759
962082,-38,-6,-8,1176,-605,-8019,1745174097160554759
962274,-36,-1,-4,1184,-578,-8020,1745174097160554759
962466,-31,3,0,1211,-538,-8039,1745174097160554759
962658,-23,9,2,1242,-527,-8033,1745174097160554759
962850,-17,9,3,1268,-516,-8049,1745174097160554759
963042,-10,8,2,1312,-508,-8043,1745174097160554759
963234,-4,6,1,1318,-524,-8011,1745174097160554759
963426,1,2,-2,1309,-534,-8027,1745174097160554759
963618,2,0,-5,1245,-569,-8044,1745174097160554759
963810,0,-1,-6,1204,-562,-8036,1745174097160554759
964002,-3,2,-9,1186,-575,-8044,1745174097160554759
964194,-7,4,-9,1201,-596,-8058,1745174097233652945
964386,-9,7,-8,1226,-615,-8051,1745174097233652945
964578,-8,7,-6,1252,-638,-8053,1745174097233652945
964770,-6,5,-4,1252,-642,-8058,1745174097233652945
964962,-5,2,-4,1231,-607,-8074,1745174097233652945
965154,-5,2,-4,1218,-583,-8092,1745174097233652945
965346,-6,3,-2,1199,-569,-8092,1745174097233652945
965538,-6,4,2,1213,-574,-8098,1745174097233652945
965730,-7,5,7,1244,-576,-8078,1745174097233652945
965922,-7,4,13,1263,-580,-8081,1745174097233652945
966114,-10,5,18,1275,-552,-8104,1745174097233652945
966306,-11,6,21,1281,-539,-8106,1745174097233652945
966498,-11,4,20,1274,-470,-8093,1745174097278908104
966690,-8,4,17,1276,-436,-8083,1745174097278908104
966882,-2,5,12,1282,-416,-8104,1745174097278908104
967074,5,4,5,1290,-407,-8134,1745174097278908104
967266,16,2,-1,1284,-394,-8153,1745174097278908104
967458,32,0,-9,1295,-393,-8164,1745174097278908104
967650,46,-4,-16,1265,-425,-8169,1745174097278908104
967842,55,-8,-24,1272,-479,-8143,1745174097278908104
968034,64,-15,-30,1244,-517,-8119,1745174097278908104
968226,69,-17,-33,1199,-537,-8096,1745174097278908104
968418,72,-17,-32,1190,-541,-8080,1745174097278908104
968610,70,-16,-28,1196,-542,-8097,1745174097278908104
968802,67,-16,-23,1227,-560,-8072,1745174097336744087
968994,65,-15,-19,1285,-591,-8056,1745174097336744087
969186,60,-17,-14,1308,-589,-8063,1745174097336744087
969378,56,-23,-11,1328,-633,-8037,1745174097336744087
969570,50,-29,-11,1299,-647,-8014,1745174097336744087
969762,41,-34,-12,1248,-662,-7982,1745174097336744087
969954,29,-35,-15,1191,-662,-7963,1745174097336744087
970146,14,-32,-17,1183,-644,-7945,1745174097336744087
970338,-2,-30,-16,1190,-674,-7924,1745174097336744087
