timestamp,gyr_x,gyr_y,gyr_z,acc_x,acc_y,acc_z,pkt_time_ns
81376,-28,-69,3,2437,392,-7283,1745187374116523079
81568,-41,-88,-19,1945,-374,-8143,1745187374116523079
81760,-156,-70,-3,2265,349,-7696,1745187374116523079
81952,-106,-31,11,2223,361,-7870,1745187374116523079
82144,-78,-43,11,2334,348,-7887,1745187374116523079
82336,-53,-27,0,2404,251,-7828,1745187374116523079
82528,-42,-21,-10,2388,96,-7814,1745187374116523079
82720,-48,-35,-12,2345,40,-7850,1745187374116523079
82912,-43,-33,-9,2325,122,-7870,1745187374116523079
83104,-43,-36,-4,2259,183,-7879,1745187374116523079
83296,-50,-38,-4,2253,79,-7920,1745187374116523079
83488,-126,-52,-9,2335,71,-7839,1745187374116523079
83488,-126,-52,-9,2335,71,-7839,1745187374188999969
83872,-95,-51,9,2217,-83,-7901,1745187374188999969
84064,-62,-22,-5,2080,236,-7971,1745187374188999969
84256,-66,-2,-26,2001,453,-8004,1745187374188999969
84448,-52,28,-32,2039,547,-8010,1745187374188999969
84640,-28,52,-31,2154,727,-8000,1745187374188999969
84832,-6,63,-24,2214,777,-7972,1745187374188999969
85024,22,80,-14,2184,788,-7980,1745187374188999969
85216,52,88,-6,2294,786,-7967,1745187374188999969
85408,68,70,1,2680,428,-7937,1745187374188999969
85600,75,42,11,2824,183,-7931,1745187374188999969
85792,89,21,21,2737,341,-7894,1745187374188999969
85984,99,-11,20,2626,506,-7800,1745187374228181642
86176,95,-54,14,2638,150,-7818,1745187374228181642
86368,94,-76,10,2439,-24,-7851,1745187374228181642
86560,117,-67,12,2320,229,-7856,1745187374228181642
86752,113,-87,-6,2361,195,-7811,1745187374228181642
86944,107,-91,-18,2346,-44,-7803,1745187374228181642
87136,105,-93,-28,2335,-165,-7798,1745187374228181642
87328,50,-90,-40,1583,-1144,-7900,1745187374228181642
87520,82,-37,-55,2547,891,-7838,1745187374228181642
87712,131,-75,-47,2228,307,-7711,1745187374228181642
87904,45,-65,-86,2006,-212,-7904,1745187374228181642
88096,78,-36,-73,1832,-215,-7786,1745187374228181642
88288,92,-7,-58,1731,27,-7798,1745187374291864914
88480,96,19,-56,1743,209,-7676,1745187374291864914
88672,174,55,-41,1766,211,-7779,1745187374291864914
88864,181,96,-45,1480,-179,-7630,1745187374291864914
89056,70,135,-71,1404,-947,-7552,1745187374291864914
89248,-1,117,-44,2059,-908,-7636,1745187374291864914
89440,-26,105,42,2582,-531,-7747,1745187374291864914
89632,-52,73,73,2875,25,-7769,1745187374291864914
89824,-52,36,34,2897,483,-7804,1745187374291864914
90016,-34,12,-16,2723,651,-7810,1745187374291864914
90208,-12,-14,-42,2410,536,-7771,1745187374291864914
90400,10,-28,-33,2107,308,-7734,1745187374291864914
90592,25,-27,-9,1937,100,-7728,1745187374346154679
90784,34,-18,11,1880,-21,-7750,1745187374346154679
90976,36,-3,26,1974,-31,-7782,1745187374346154679
91168,36,12,30,2114,0,-7801,1745187374346154679
91360,37,18,29,2206,44,-7793,1745187374346154679
91552,37,18,32,2321,85,-7819,1745187374346154679
91744,37,20,22,2394,86,-7862,1745187374346154679
91936,35,15,8,2354,46,-7846,1745187374346154679
92128,33,9,6,2269,2,-7824,1745187374346154679
92320,32,8,9,2209,-5,-7833,1745187374346154679
92512,30,9,12,2188,-27,-7852,1745187374346154679
92704,24,12,13,2214,-32,-7866,1745187374346154679
92896,19,11,14,2236,-59,-7861,1745187374405758041
93088,12,9,14,2261,-80,-7874,1745187374405758041
93280,3,6,15,2279,-104,-7880,1745187374405758041
93472,-5,4,14,2285,-89,-7838,1745187374405758041
93664,-10,3,10,2263,-54,-7795,1745187374405758041
93856,-11,3,4,2253,38,-7774,1745187374405758041
94048,-9,6,1,2211,123,-7795,1745187374405758041
94240,-5,8,0,2199,144,-7830,1745187374405758041
94432,-1,9,-1,2201,128,-7846,1745187374405758041
94624,1,11,-1,2228,43,-7826,1745187374405758041
94816,3,13,-2,2218,8,-7809,1745187374405758041
95008,2,14,-3,2239,-20,-7813,1745187374405758041
95200,1,14,-3,2255,0,-7817,1745187374462327993
95392,-1,14,-3,2269,11,-7829,1745187374462327993
95584,-3,13,-3,2281,21,-7828,1745187374462327993
95776,-5,11,-6,2258,17,-7820,1745187374462327993
95968,-6,9,-7,2245,11,-7815,1745187374462327993
96160,-8,8,-7,2235,-7,-7820,1745187374462327993
96352,-10,8,-5,2215,6,-7831,1745187374462327993
96544,-12,8,-2,2213,23,-7828,1745187374462327993
96736,-14,9,-2,2209,35,-7828,1745187374462327993
96928,-13,10,0,2234,56,-7822,1745187374462327993
97120,-13,11,1,2237,38,-7822,1745187374462327993
97312,-13,9,2,2250,26,-7808,1745187374462327993
97504,-14,7,3,2266,5,-7813,1745187374523985867
97696,-14,6,3,2283,28,-7806,1745187374523985867
97888,-13,4,2,2285,51,-7800,1745187374523985867
98080,-11,1,1,2280,63,-7788,1745187374523985867
98272,-8,-2,-1,2279,70,-7775,1745187374523985867
98464,-4,-5,-1,2265,90,-7764,1745187374523985867
98656,1,-5,-2,2259,110,-7785,1745187374523985867
98848,6,-7,-2,2254,93,-7792,1745187374523985867
99040,11,-9,-1,2242,74,-7799,1745187374523985867
99232,14,-10,-1,2248,60,-7784,1745187374523985867
99424,18,-10,-2,2247,57,-7770,1745187374523985867
99616,20,-11,-1,2239,38,-7769,1745187374523985867
99808,23,-11,-1,2232,33,-7807,1745187374578937917
100000,23,-12,-1,2240,23,-7846,1745187374578937917
100192,21,-12,-2,2238,-1,-7845,1745187374578937917
100384,20,-13,-3,2231,8,-7844,1745187374578937917
100576,18,-13,-2,2241,-5,-7822,1745187374578937917
100768,16,-15,-1,2248,-6,-7807,1745187374578937917
100960,16,-16,0,2228,15,-7830,1745187374578937917
101152,15,-16,0,2226,9,-7862,1745187374578937917
101344,12,-17,-1,2223,12,-7857,1745187374578937917
101536,10,-16,-1,2219,-16,-7857,1745187374578937917
101728,8,-15,-2,2232,-30,-7828,1745187374578937917
101920,8,-15,-1,2212,-10,-7818,1745187374578937917
102112,5,-14,-2,2225,16,-7809,1745187374639964495
102304,3,-15,-3,2219,28,-7820,1745187374639964495
102496,5,-15,-4,2234,29,-7829,1745187374639964495
102688,7,-16,-4,2231,52,-7827,1745187374639964495
102880,11,-15,-6,2232,66,-7784,1745187374639964495
103072,12,-16,-8,2248,74,-7781,1745187374639964495
103264,19,-18,-8,2257,65,-7792,1745187374639964495
103456,25,-18,-9,2256,81,-7796,1745187374639964495
103648,28,-21,-12,2257,47,-7795,1745187374639964495
103840,33,-22,-14,2257,21,-7816,1745187374639964495
104032,35,-23,-17,2264,-5,-7824,1745187374639964495
104224,35,-24,-21,2259,-28,-7785,1745187374639964495
104416,37,-25,-25,2250,-21,-7783,1745187374699544940
104608,37,-27,-29,2270,0,-7796,1745187374699544940
104800,33,-29,-32,2270,-46,-7800,1745187374699544940
104992,31,-33,-35,2290,-93,-7854,1745187374699544940
105184,28,-36,-38,2320,-110,-7884,1745187374699544940
105376,19,-42,-43,2324,-130,-7846,1745187374699544940
105568,9,-46,-53,2339,-153,-7847,1745187374699544940
105760,0,-52,-61,2331,-152,-7882,1745187374699544940
105952,-9,-59,-66,2334,-155,-7885,1745187374699544940
106144,-21,-67,-67,2325,-158,-7866,1745187374699544940
106336,-33,-74,-72,2299,-137,-7910,1745187374699544940
106528,-48,-84,-75,2269,-169,-7930,1745187374699544940
106720,-64,-94,-71,2234,-219,-7869,1745187374753943818
106912,-79,-105,-63,2199,-278,-7952,1745187374753943818
107104,-102,-116,-53,2174,-312,-8064,1745187374753943818
107296,-129,-123,-43,2161,-345,-8053,1745187374753943818
107488,-159,-126,-38,2127,-367,-8031,1745187374753943818
107680,-193,-128,-37,2118,-446,-8057,1745187374753943818
107872,-231,-133,-38,2184,-506,-8077,1745187374753943818
108064,-277,-141,-35,2251,-630,-8090,1745187374753943818
108256,-332,-151,-31,2290,-739,-8137,1745187374753943818
108448,-387,-159,-34,2299,-781,-8048,1745187374753943818
108640,-442,-162,-51,2291,-703,-8001,1745187374753943818
108832,-495,-162,-74,2260,-516,-7981,1745187374753943818
109024,-544,-161,-95,2234,-383,-8012,1745187374814052332
109216,-589,-163,-111,2181,-316,-8004,1745187374814052332
109408,-630,-165,-122,2072,-314,-8002,1745187374814052332
109600,-663,-163,-124,1992,-269,-8013,1745187374814052332
109792,-695,-156,-121,1928,-174,-7980,1745187374814052332
109984,-731,-146,-122,1847,-30,-7972,1745187374814052332
110176,-755,-129,-119,1827,122,-7951,1745187374814052332
110368,-773,-114,-116,1809,271,-7915,1745187374814052332
110560,-784,-104,-112,1838,402,-7837,1745187374814052332
110752,-783,-92,-108,1851,515,-7789,1745187374814052332
110944,-774,-78,-105,1841,707,-7788,1745187374814052332
111136,-755,-63,-103,1818,902,-7742,1745187374814052332
111328,-728,-42,-107,1748,1143,-7662,1745187374873186792
111520,-688,-15,-116,1694,1349,-7608,1745187374873186792
111712,-637,14,-119,1676,1536,-7538,1745187374873186792
111904,-577,39,-115,1665,1633,-7549,1745187374873186792
112096,-513,65,-103,1637,1688,-7567,1745187374873186792
112288,-444,93,-92,1660,1717,-7604,1745187374873186792
112480,-373,123,-85,1626,1754,-7599,1745187374873186792
112672,-304,155,-82,1674,1774,-7606,1745187374873186792
112864,-235,184,-79,1737,1745,-7608,1745187374873186792
113056,-166,211,-77,1811,1740,-7569,1745187374873186792
113248,-55,243,-85,1916,2015,-7323,1745187374873186792
113440,238,312,-87,2174,2309,-7641,1745187374873186792
113632,350,353,-134,2297,2350,-7684,1745187374928175196
113824,368,342,-192,2233,2000,-7581,1745187374928175196
114016,461,337,-178,2114,1682,-7578,1745187374928175196
114208,576,349,-133,2048,1508,-7644,1745187374928175196
114400,660,371,-98,2020,1403,-7819,1745187374928175196
114592,709,391,-83,2056,1267,-7910,1745187374928175196
114784,734,402,-80,2100,1076,-7985,1745187374928175196
114976,748,415,-79,2174,896,-8113,1745187374928175196
115168,752,424,-83,2253,758,-8252,1745187374928175196
115360,750,427,-92,2372,602,-8471,1745187374928175196
115552,755,444,-91,2641,489,-8836,1745187374928175196
115744,793,451,-72,2902,658,-8941,1745187374928175196
115936,828,430,-80,3065,852,-8870,1745187375005792351
116128,864,431,-107,3230,917,-8897,1745187375005792351
116320,914,417,-145,3316,868,-8852,1745187375005792351
116512,980,399,-176,3290,713,-8451,1745187375005792351
116704,1026,399,-206,3254,400,-8477,1745187375005792351
116896,1069,404,-226,3289,204,-8406,1745187375005792351
117088,1044,420,-243,3319,-152,-8006,1745187375005792351
117280,942,413,-247,3494,-830,-7723,1745187375005792351
117472,771,381,-221,3837,-1584,-8179,1745187375005792351
117664,604,297,-147,4401,-1819,-9135,1745187375005792351
117856,517,222,-86,4905,-899,-9873,1745187375005792351
118048,472,187,-85,5469,900,-10191,1745187375005792351
118240,448,203,-173,6099,3309,-10012,1745187375046739581
118432,332,261,-365,6674,5718,-10092,1745187375046739581
118624,-58,294,-612,7299,6831,-9989,1745187375046739581
118816,-587,154,-831,7654,6362,-10506,1745187375046739581
119008,-669,-76,-946,7196,5282,-9803,1745187375046739581
119200,-462,-209,-949,6362,4105,-9434,1745187375046739581
119392,-253,-245,-867,5844,3385,-9512,1745187375046739581
119584,-104,-217,-822,5680,3299,-9818,1745187375046739581
119776,-103,-192,-883,5740,3734,-9993,1745187375046739581
119968,-262,-212,-1065,5795,4294,-10098,1745187375046739581
120160,-394,-238,-1309,5715,4866,-9917,1745187375046739581
120352,-409,-253,-1516,5538,5407,-9714,1745187375046739581
120544,-321,-255,-1650,5352,5909,-9620,1745187375108774535
120736,-145,-254,-1728,5176,6308,-9551,1745187375108774535
120928,80,-256,-1784,4978,6545,-9541,1745187375108774535
121120,321,-252,-1843,4831,6414,-9450,1745187375108774535
121312,561,-243,-1914,4749,5928,-9316,1745187375108774535
121504,789,-235,-1985,4685,5239,-9073,1745187375108774535
121696,985,-227,-2051,4639,4489,-8821,1745187375108774535
121888,1143,-219,-2112,4636,3764,-8625,1745187375108774535
122080,1263,-214,-2161,4657,3150,-8269,1745187375108774535
122272,1342,-202,-2191,4654,2651,-7934,1745187375108774535
122464,1387,-188,-2203,4660,2353,-7810,1745187375108774535
122656,1401,-175,-2212,4705,2210,-7750,1745187375108774535
122848,1380,-164,-2229,4752,2211,-7661,1745187375163751325
123040,1333,-157,-2255,4809,2198,-7532,1745187375163751325
123232,1281,-149,-2285,4911,2153,-7422,1745187375163751325
123424,1249,-140,-2310,4986,2032,-7365,1745187375163751325
123616,1249,-135,-2324,5097,1904,-7322,1745187375163751325
123808,1271,-134,-2331,5165,1730,-7280,1745187375163751325
124000,1301,-135,-2332,5255,1476,-7285,1745187375163751325
124192,1334,-140,-2324,5335,1174,-7326,1745187375163751325
124384,1367,-147,-2309,5440,857,-7408,1745187375163751325
124576,1395,-156,-2295,5546,572,-7469,1745187375163751325
124768,1413,-164,-2291,5651,282,-7535,1745187375163751325
124960,1418,-172,-2291,5783,26,-7681,1745187375163751325
125152,1408,-184,-2294,5893,-213,-7843,1745187375233583812
125344,1387,-199,-2296,6022,-410,-7953,1745187375233583812
125536,1358,-217,-2294,6140,-583,-7959,1745187375233583812
125728,1328,-233,-2288,6213,-736,-7914,1745187375233583812
125920,1303,-246,-2279,6282,-959,-7818,1745187375233583812
126112,1286,-259,-2260,6301,-1156,-7746,1745187375233583812
126304,1271,-271,-2233,6319,-1314,-7708,1745187375233583812
126496,1251,-283,-2204,6304,-1444,-7701,1745187375233583812
126688,1224,-297,-2175,6301,-1504,-7707,1745187375233583812
126880,1189,-310,-2143,6257,-1522,-7661,1745187375233583812
127072,1160,-318,-2105,6230,-1532,-7612,1745187375233583812
127264,1149,-327,-2052,6173,-1544,-7509,1745187375233583812
127456,1164,-336,-1986,6126,-1581,-7413,1745187375285265788
127648,1202,-349,-1910,6067,-1668,-7303,1745187375285265788
127840,1256,-362,-1827,5983,-1816,-7208,1745187375285265788
128032,1313,-370,-1735,5878,-2036,-7108,1745187375285265788
128224,1367,-375,-1635,5789,-2308,-6991,1745187375285265788
128416,1413,-385,-1529,5742,-2652,-6909,1745187375285265788
128608,1453,-397,-1417,5697,-2938,-6814,1745187375285265788
128800,1491,-410,-1304,5622,-3352,-6609,1745187375285265788
128992,1523,-426,-1178,5525,-3770,-6449,1745187375285265788
129184,1546,-439,-1048,5445,-4243,-6250,1745187375285265788
129376,1556,-449,-918,5323,-4755,-6082,1745187375285265788
129568,1544,-463,-792,5177,-5264,-5928,1745187375285265788
129760,1504,-476,-676,5007,-5796,-5872,1745187375345470342
129952,1438,-490,-565,4871,-6308,-5774,1745187375345470342
130144,1345,-497,-458,4695,-6797,-5707,1745187375345470342
130336,1231,-499,-349,4508,-7234,-5580,1745187375345470342
130528,1097,-494,-246,4342,-7650,-5500,1745187375345470342
130720,946,-487,-146,4163,-8074,-5467,1745187375345470342
130912,770,-471,-35,4009,-8592,-5418,1745187375345470342
131104,587,-447,103,3862,-9129,-5402,1745187375345470342
131296,410,-411,272,3752,-9594,-5417,1745187375345470342
131488,231,-380,461,3679,-9935,-5443,1745187375345470342
131680,45,-350,657,3659,-10165,-5403,1745187375345470342
131872,-144,-317,854,3667,-10264,-5400,1745187375345470342
132064,-327,-281,1044,3680,-10264,-5410,1745187375396949559
132256,-488,-236,1227,3738,-10156,-5419,1745187375396949559
132448,-621,-178,1406,3796,-9976,-5560,1745187375396949559
132640,-713,-117,1591,3909,-9723,-5774,1745187375396949559
132832,-760,-64,1784,4043,-9359,-5987,1745187375396949559
133024,-766,-25,1986,4227,-9037,-6238,1745187375396949559
133216,-730,-3,2193,4396,-8768,-6459,1745187375396949559
133408,-664,11,2397,4549,-8556,-6634,1745187375396949559
133600,-587,27,2593,4700,-8356,-6752,1745187375396949559
133792,-509,44,2781,4869,-8201,-6798,1745187375396949559
133984,-439,67,2970,5042,-8047,-6765,1745187375396949559
134176,-374,93,3164,5260,-7926,-6709,1745187375396949559
134368,-311,115,3367,5492,-7856,-6641,1745187375462175838
134560,-250,133,3568,5717,-7737,-6553,1745187375462175838
134752,-192,143,3754,5903,-7599,-6423,1745187375462175838
134944,-142,149,3916,6094,-7437,-6293,1745187375462175838
135136,-103,154,4060,6249,-7325,-6191,1745187375462175838
135328,-80,151,4195,6412,-7256,-6114,1745187375462175838
135520,-72,143,4326,6581,-7277,-5987,1745187375462175838
135712,-81,143,4455,6749,-7276,-5883,1745187375462175838
135904,-106,155,4593,6913,-7159,-5844,1745187375462175838
136096,-148,156,4742,7071,-6990,-5807,1745187375462175838
136288,-205,148,4905,7245,-6821,-5806,1745187375462175838
136480,-273,137,5074,7453,-6668,-5860,1745187375462175838
136672,-345,120,5244,7666,-6579,-5892,1745187375519776302
136864,-418,102,5405,7878,-6435,-5926,1745187375519776302
137056,-491,85,5539,8054,-6213,-5855,1745187375519776302
137248,-574,62,5638,8207,-5969,-5881,1745187375519776302
137440,-670,33,5711,8359,-5680,-6005,1745187375519776302
137632,-775,4,5772,8477,-5359,-6109,1745187375519776302
137824,-876,-21,5829,8564,-4928,-6102,1745187375519776302
138016,-969,-46,5877,8682,-4426,-6049,1745187375519776302
138208,-1058,-74,5911,8748,-3839,-6019,1745187375519776302
138400,-1155,-105,5933,8806,-3252,-6069,1745187375519776302
138592,-1258,-143,5949,8842,-2706,-6233,1745187375519776302
138784,-1354,-179,5977,8838,-2241,-6311,1745187375519776302
138976,-1411,-219,6025,8820,-1844,-6213,1745187375585982311
139168,-1419,-262,6087,8740,-1492,-6107,1745187375585982311
139360,-1398,-300,6146,8668,-1123,-6044,1745187375585982311
139552,-1375,-331,6192,8570,-775,-6003,1745187375585982311
139744,-1364,-351,6221,8466,-552,-5890,1745187375585982311
139936,-1352,-366,6252,8362,-439,-5755,1745187375585982311
140128,-1331,-370,6295,8302,-362,-5531,1745187375585982311
140320,-1302,-367,6345,8298,-241,-5339,1745187375585982311
140512,-1283,-361,6384,8341,-42,-5202,1745187375585982311
140704,-1290,-348,6408,8434,239,-5043,1745187375585982311
140896,-1326,-335,6416,8543,556,-4882,1745187375585982311
141088,-1377,-311,6426,8693,855,-4718,1745187375585982311
141280,-1418,-278,6453,8921,1199,-4535,1745187375639493541
141472,-1445,-255,6498,9180,1596,-4340,1745187375639493541
141664,-1440,-269,6540,9385,1951,-4339,1745187375639493541
141856,-1421,-299,6567,9567,2310,-4096,1745187375639493541
142048,-1404,-325,6582,9710,2494,-4100,1745187375639493541
142240,-1392,-372,6582,9776,2545,-3929,1745187375639493541
142432,-1386,-443,6577,9827,2551,-3969,1745187375639493541
142624,-1392,-512,6583,9781,2576,-4001,1745187375639493541
142816,-1405,-557,6603,9699,2623,-4049,1745187375639493541
143008,-1427,-590,6631,9622,2658,-4071,1745187375639493541
143200,-1455,-609,6656,9581,2643,-4034,1745187375639493541
143392,-1489,-615,6673,9572,2563,-3925,1745187375639493541
143584,-1530,-612,6688,9672,2482,-3834,1745187375694475643
143776,-1588,-602,6697,9870,2447,-3710,1745187375694475643
143968,-1670,-575,6702,10129,2464,-3445,1745187375694475643
144160,-1772,-538,6704,10538,2500,-3147,1745187375694475643
144352,-1887,-495,6696,11057,2623,-2939,1745187375694475643
144544,-2015,-456,6669,11671,2818,-2741,1745187375694475643
144736,-2153,-433,6620,12358,3130,-2520,1745187375694475643
144928,-2299,-436,6546,13086,3503,-2295,1745187375694475643
145120,-2450,-468,6451,13789,3980,-2188,1745187375694475643
145312,-2597,-528,6343,14458,4642,-2200,1745187375694475643
145504,-2734,-615,6225,15057,5516,-2334,1745187375694475643
145696,-2847,-737,6088,15602,6671,-2451,1745187375694475643
145888,-2935,-903,5926,16057,8147,-2904,1745187375753524479
146080,-2987,-1107,5749,16331,10061,-3470,1745187375753524479
146272,-2961,-1351,5572,16289,12466,-3986,1745187375753524479
146464,-2857,-1627,5409,15752,16044,-6411,1745187375753524479
146656,-3110,-1981,5295,14702,18694,-4076,1745187375753524479
146848,-2202,-2267,5107,12604,23230,-5353,1745187375753524479
147040,-1600,-2501,4925,9506,26680,-5409,1745187375753524479
147232,-1020,-2579,4782,5771,28399,-3210,1745187375753524479
147424,-426,-2466,4599,2229,28870,-2566,1745187375753524479
147616,-130,-2489,4318,-488,26106,-6131,1745187375753524479
147808,-100,-2949,4194,-3619,18600,-3051,1745187375753524479
148000,890,-2220,3235,-2992,16139,1658,1745187375753524479
148192,1743,-752,2567,-4176,9348,-5880,1745187375811102130
148384,2350,-397,2015,-3842,3854,-6727,1745187375811102130
148576,2767,-37,1442,-2831,857,-6182,1745187375811102130
148768,2771,189,1012,-1613,-3363,-6235,1745187375811102130
148960,2612,301,802,-17,-3529,-7042,1745187375811102130
149152,2050,441,473,1699,-3261,-8308,1745187375811102130
149344,1276,438,84,2458,-2018,-9255,1745187375811102130
149536,538,371,-172,2528,-448,-9749,1745187375811102130
149728,-24,281,-259,2382,1191,-9804,1745187375811102130
149920,-384,184,-241,1969,2524,-9839,1745187375811102130
150112,-631,123,-258,1299,4398,-8541,1745187375811102130
150304,-770,151,-369,370,4759,-7789,1745187375811102130
150496,-950,168,-434,-332,5828,-7258,1745187375871575588
150688,-1271,193,-507,-1024,7166,-7502,1745187375871575588
150880,-1719,214,-529,-1301,8474,-7719,1745187375871575588
151072,-2150,215,-458,-1292,9609,-7730,1745187375871575588
151264,-2423,211,-307,-936,10526,-7521,1745187375871575588
151456,-2397,221,-163,-413,11068,-6997,1745187375871575588
151648,-2101,275,-86,-26,11544,-6208,1745187375871575588
151840,-1601,390,5,-233,12592,-6547,1745187375871575588
152032,-1181,338,176,-712,12669,-7179,1745187375871575588
152224,-861,53,286,-499,11592,-6350,1745187375871575588
152416,-447,-96,460,-605,10455,-5750,1745187375871575588
152608,-23,-140,624,-835,8933,-5756,1745187375871575588
152800,364,-205,789,-948,7449,-5631,1745187375928219029
152992,695,-248,929,-1016,6099,-5805,1745187375928219029
153184,942,-261,1035,-1096,4962,-5928,1745187375928219029
153376,1094,-259,1104,-1168,4000,-6061,1745187375928219029
153568,1166,-274,1141,-1269,3238,-6366,1745187375928219029
153760,1159,-269,1152,-1353,2704,-6752,1745187375928219029
153952,1085,-268,1141,-1422,2440,-7130,1745187375928219029
154144,950,-272,1133,-1520,2310,-7602,1745187375928219029
154336,763,-300,1113,-1357,2861,-7303,1745187375928219029
154528,621,-246,1022,-1365,3046,-7527,1745187375928219029
154720,463,-218,967,-1340,3564,-7690,1745187375928219029
154912,313,-235,921,-1287,4119,-7825,1745187375928219029
155104,172,-295,888,-1168,4581,-7690,1745187375994441809
155296,64,-342,847,-943,4704,-7424,1745187375994441809
155488,-13,-365,807,-717,4743,-7025,1745187375994441809
155680,-7,-264,819,-599,4807,-6380,1745187375994441809
155872,2,-120,856,-665,4884,-7085,1745187375994441809
156064,-62,-122,911,-569,4873,-6974,1745187375994441809
156256,-144,-103,941,-473,4765,-6930,1745187375994441809
156448,-243,-95,940,-471,4686,-6960,1745187375994441809
156640,-354,-99,919,-507,4694,-7017,1745187375994441809
156832,-467,-110,901,-593,4832,-7218,1745187375994441809
157024,-585,-125,901,-664,4974,-7199,1745187375994441809
157216,-691,-144,906,-688,5113,-7114,1745187375994441809
157408,-777,-150,904,-690,5309,-7078,1745187376044561195
157600,-840,-136,887,-685,5532,-7027,1745187376044561195
157792,-879,-113,867,-705,5714,-6891,1745187376044561195
157984,-885,-62,857,-751,5889,-6792,1745187376044561195
158176,-886,-9,844,-824,6204,-7013,1745187376044561195
158368,-901,-13,779,-973,6385,-7400,1745187376044561195
158560,-957,-100,712,-866,6437,-7077,1745187376044561195
158752,-953,-127,654,-845,6577,-6836,1745187376044561195
158944,-921,-118,596,-825,6713,-6811,1745187376044561195
159136,-884,-113,535,-803,6793,-6775,1745187376044561195
159328,-848,-105,472,-742,6850,-6669,1745187376044561195
159520,-806,-90,417,-707,6895,-6571,1745187376044561195
159712,-771,-85,370,-632,6961,-6553,1745187376107202863
159904,-740,-87,322,-507,6963,-6415,1745187376107202863
160096,-691,-65,274,-456,6939,-6354,1745187376107202863
160288,-637,-49,231,-509,6905,-6346,1745187376107202863
160480,-590,-49,193,-571,6809,-6268,1745187376107202863
160672,-548,-58,161,-663,6664,-6266,1745187376107202863
160864,-521,-79,132,-705,6494,-6137,1745187376107202863
161056,-484,-64,102,-657,6250,-5914,1745187376107202863
161248,-436,-7,77,-744,6137,-6067,1745187376107202863
161440,-409,32,52,-757,6049,-6145,1745187376107202863
161632,-387,55,31,-713,6024,-6188,1745187376107202863
161824,-359,70,13,-637,6045,-6294,1745187376107202863
162016,-327,76,-14,-562,6120,-6402,1745187376165445820
162208,-298,73,-47,-491,6162,-6461,1745187376165445820
162400,-268,72,-80,-466,6177,-6468,1745187376165445820
162592,-237,77,-108,-459,6213,-6476,1745187376165445820
162784,-209,84,-132,-511,6245,-6574,1745187376165445820
162976,-185,93,-153,-539,6296,-6667,1745187376165445820
163168,-160,98,-170,-601,6340,-6725,1745187376165445820
163360,-128,99,-186,-695,6356,-6748,1745187376165445820
163552,-88,100,-202,-798,6347,-6787,1745187376165445820
163744,-53,102,-221,-868,6345,-6848,1745187376165445820
163936,-28,106,-239,-892,6312,-6864,1745187376165445820
164128,-9,113,-255,-824,6296,-6934,1745187376165445820
164320,5,126,-269,-732,6267,-6998,1745187376234882061
164512,19,138,-279,-537,6248,-7024,1745187376234882061
164704,36,146,-286,-363,6178,-6983,1745187376234882061
164896,57,143,-291,-202,6037,-6933,1745187376234882061
165088,80,134,-292,-117,5861,-6861,1745187376234882061
165280,100,118,-284,-102,5595,-6769,1745187376234882061
165472,113,104,-273,-158,5331,-6732,1745187376234882061
165664,112,92,-264,-236,5106,-6770,1745187376234882061
165856,95,84,-260,-346,4929,-6819,1745187376234882061
166048,61,80,-260,-422,4793,-6888,1745187376234882061
166240,18,79,-265,-476,4675,-6964,1745187376234882061
166432,-25,84,-265,-504,4602,-7003,1745187376234882061
166624,-67,89,-260,-506,4588,-7075,1745187376279565507
166816,-107,89,-255,-466,4621,-7163,1745187376279565507
167008,-144,85,-254,-430,4701,-7221,1745187376279565507
167200,-174,77,-259,-411,4807,-7234,1745187376279565507
167392,-192,71,-267,-388,4898,-7212,1745187376279565507
167584,-197,70,-275,-374,5000,-7132,1745187376279565507
167776,-192,73,-280,-335,5104,-7049,1745187376279565507
167968,-179,78,-281,-311,5167,-6971,1745187376279565507
168160,-160,81,-283,-329,5214,-6912,1745187376279565507
168352,-134,79,-281,-343,5268,-6947,1745187376279565507
168544,-98,73,-278,-412,5333,-7009,1745187376279565507
168736,-58,68,-279,-466,5387,-7055,1745187376279565507
168928,-12,68,-285,-512,5402,-7122,1745187376340971560
169120,39,74,-297,-541,5380,-7177,1745187376340971560
169312,88,86,-308,-553,5287,-7203,1745187376340971560
169504,133,96,-318,-499,5156,-7204,1745187376340971560
169696,169,102,-323,-463,4991,-7205,1745187376340971560
169888,194,108,-327,-430,4776,-7150,1745187376340971560
170080,209,106,-329,-424,4606,-7084,1745187376340971560
170272,212,104,-331,-428,4452,-6986,1745187376340971560
170464,201,101,-331,-438,4324,-6948,1745187376340971560
170656,180,101,-331,-439,4239,-6901,1745187376340971560
170848,151,104,-328,-423,4191,-6921,1745187376340971560
171040,122,104,-323,-419,4223,-7015,1745187376340971560
171232,96,102,-322,-387,4289,-7070,1745187376395471740
171424,71,100,-321,-352,4401,-7175,1745187376395471740
171616,52,94,-322,-340,4525,-7279,1745187376395471740
171808,41,93,-323,-332,4644,-7309,1745187376395471740
172000,40,91,-326,-356,4742,-7336,1745187376395471740
172192,46,87,-329,-359,4737,-7288,1745187376395471740
172384,55,86,-332,-397,4712,-7248,1745187376395471740
172576,67,88,-335,-413,4665,-7173,1745187376395471740
172768,80,89,-339,-473,4569,-7080,1745187376395471740
172960,94,93,-341,-514,4495,-7000,1745187376395471740
173152,107,94,-343,-552,4392,-6953,1745187376395471740
173344,118,97,-348,-624,4301,-6903,1745187376395471740
173536,125,103,-354,-690,4252,-6870,1745187376455884834
173728,124,110,-363,-721,4229,-6859,1745187376455884834
173920,115,123,-375,-729,4205,-6838,1745187376455884834
174112,100,135,-382,-701,4212,-6828,1745187376455884834
174304,89,145,-384,-643,4246,-6816,1745187376455884834
174496,81,150,-381,-574,4349,-6816,1745187376455884834
174688,66,148,-374,-521,4469,-6789,1745187376455884834
174880,40,139,-367,-518,4516,-6727,1745187376455884834
175072,9,128,-355,-567,4519,-6616,1745187376455884834
175264,-22,119,-337,-633,4526,-6520,1745187376455884834
175456,-54,115,-318,-708,4578,-6437,1745187376455884834
175648,-88,117,-301,-768,4718,-6423,1745187376455884834
175840,-127,124,-288,-827,4903,-6450,1745187376513170717
176032,-165,132,-285,-849,5145,-6536,1745187376513170717
176224,-195,139,-293,-845,5438,-6659,1745187376513170717
176416,-218,142,-309,-820,5748,-6807,1745187376513170717
176608,-233,143,-329,-775,6021,-6966,1745187376513170717
176800,-239,142,-353,-732,6312,-7126,1745187376513170717
176992,-234,140,-382,-691,6597,-7288,1745187376513170717
177184,-222,139,-416,-634,6846,-7423,1745187376513170717
177376,-207,138,-453,-577,7060,-7513,1745187376513170717
177568,-191,142,-496,-547,7171,-7509,1745187376513170717
177760,-177,149,-543,-540,7195,-7480,1745187376513170717
177952,-168,159,-587,-551,7132,-7473,1745187376513170717
178144,-165,164,-626,-581,7070,-7503,1745187376574405938
178336,-171,168,-666,-598,7011,-7505,1745187376574405938
178528,-185,172,-708,-655,6978,-7453,1745187376574405938
178720,-205,177,-751,-712,6943,-7370,1745187376574405938
178912,-227,184,-791,-790,6956,-7357,1745187376574405938
179104,-249,188,-831,-869,7059,-7412,1745187376574405938
179296,-271,191,-875,-910,7256,-7489,1745187376574405938
179488,-295,196,-929,-873,7501,-7551,1745187376574405938
179680,-317,206,-989,-823,7761,-7564,1745187376574405938
179872,-331,216,-1048,-741,8008,-7578,1745187376574405938
180064,-330,220,-1100,-666,8258,-7588,1745187376574405938
180256,-314,218,-1144,-594,8478,-7552,1745187376574405938
180448,-287,213,-1184,-544,8652,-7472,1745187376634685909
180640,-253,206,-1225,-481,8763,-7450,1745187376634685909
180832,-216,200,-1264,-479,8800,-7417,1745187376634685909
181024,-176,192,-1300,-519,8756,-7365,1745187376634685909
181216,-135,181,-1333,-596,8677,-7308,1745187376634685909
181408,-94,173,-1363,-695,8615,-7354,1745187376634685909
181600,-55,168,-1396,-777,8604,-7400,1745187376634685909
181792,-22,168,-1437,-832,8591,-7521,1745187376634685909
181984,9,174,-1484,-854,8594,-7630,1745187376634685909
182176,38,185,-1535,-835,8551,-7686,1745187376634685909
182368,66,196,-1586,-807,8508,-7741,1745187376634685909
182560,87,203,-1633,-710,8495,-7724,1745187376634685909
182752,94,208,-1677,-600,8492,-7662,1745187376690352796
182944,86,209,-1723,-460,8492,-7591,1745187376690352796
183136,67,205,-1771,-352,8516,-7573,1745187376690352796
183328,41,195,-1813,-275,8538,-7574,1745187376690352796
183520,18,174,-1850,-284,8569,-7591,1745187376690352796
183712,6,137,-1879,-405,8668,-7721,1745187376690352796
183904,4,93,-1906,-575,8835,-7850,1745187376690352796
184096,6,55,-1938,-827,8981,-8026,1745187376690352796
184288,18,30,-1979,-1105,9192,-8404,1745187376690352796
184480,54,9,-2019,-1397,9509,-8956,1745187376690352796
184672,121,-19,-2056,-1712,9920,-9460,1745187376690352796
184864,221,-51,-2097,-2016,10442,-9945,1745187376690352796
185056,344,-69,-2152,-2132,11013,-10363,1745187376755058872
185248,479,-49,-2217,-1993,11466,-10563,1745187376755058872
185440,616,13,-2293,-1514,11728,-10514,1745187376755058872
185632,742,97,-2370,-771,11800,-10222,1745187376755058872
185824,839,166,-2441,54,11642,-9675,1745187376755058872
186016,901,200,-2502,821,11280,-8846,1745187376755058872
186208,924,194,-2552,1415,10837,-7985,1745187376755058872
186400,914,152,-2589,1814,10425,-7284,1745187376755058872
186592,870,85,-2618,2027,10024,-6733,1745187376755058872
186784,793,5,-2647,2167,9546,-6281,1745187376755058872
186976,691,-69,-2684,2194,9021,-5881,1745187376755058872
187168,579,-126,-2724,2126,8541,-5633,1745187376755058872
187360,457,-169,-2765,2036,8170,-5550,1745187376814336976
187552,329,-203,-2810,2019,7922,-5513,1745187376814336976
187744,204,-224,-2862,2025,7747,-5499,1745187376814336976
187936,97,-230,-2925,2081,7617,-5446,1745187376814336976
188128,15,-219,-2997,2221,7465,-5350,1745187376814336976
188320,-45,-195,-3075,2408,7273,-5182,1745187376814336976
188512,-94,-164,-3159,2604,7029,-5018,1745187376814336976
188704,-137,-133,-3239,2830,6734,-4775,1745187376814336976
188896,-174,-99,-3311,3069,6383,-4498,1745187376814336976
189088,-211,-57,-3379,3262,5979,-4223,1745187376814336976
189280,-252,-18,-3447,3388,5645,-4264,1745187376814336976
189472,-350,-67,-3518,3479,5291,-4383,1745187376814336976
189664,-466,-139,-3578,3705,4891,-3752,1745187376867337690
189856,-546,-142,-3637,3798,4584,-3670,1745187376867337690
190048,-623,-156,-3689,3828,4381,-3612,1745187376867337690
190240,-693,-165,-3737,3845,4240,-3611,1745187376867337690
190432,-751,-173,-3781,3804,4164,-3672,1745187376867337690
190624,-795,-173,-3824,3775,4089,-3670,1745187376867337690
190816,-825,-167,-3868,3717,4011,-3663,1745187376867337690
191008,-840,-143,-3913,3640,3932,-3620,1745187376867337690
191200,-842,-109,-3955,3609,3840,-3513,1745187376867337690
191392,-838,-60,-3994,3603,3737,-3433,1745187376867337690
191584,-830,-5,-4030,3610,3602,-3311,1745187376867337690
191776,-819,52,-4060,3676,3495,-3195,1745187376867337690
191968,-805,110,-4085,3747,3384,-3141,1745187376921733339
192160,-786,164,-4109,3842,3242,-3108,1745187376921733339
192352,-763,209,-4136,3943,3107,-3041,1745187376921733339
192544,-735,251,-4163,4017,2983,-3007,1745187376921733339
192736,-707,293,-4189,4076,2829,-2946,1745187376921733339
192928,-681,337,-4212,4108,2658,-2883,1745187376921733339
193120,-656,383,-4226,4129,2486,-2826,1745187376921733339
193312,-632,427,-4227,4144,2266,-2753,1745187376921733339
193504,-607,471,-4214,4140,2024,-2606,1745187376921733339
193696,-579,510,-4191,4121,1731,-2427,1745187376921733339
193888,-554,545,-4164,4052,1416,-2213,1745187376921733339
194080,-536,580,-4135,3945,1066,-2087,1745187376921733339
194272,-533,608,-4106,3827,713,-2057,1745187376980197544
194464,-533,639,-4079,3639,280,-2000,1745187376980197544
194656,-520,679,-4053,3407,-27,-1938,1745187376980197544
194848,-507,713,-4049,3113,-238,-1800,1745187376980197544
195040,-465,758,-3989,2989,-1145,-1817,1745187376980197544
195232,-405,828,-3836,2985,-721,-2149,1745187376980197544
195424,-297,855,-3750,2503,-535,-2387,1745187376980197544
195616,-154,874,-3667,2362,-48,-2031,1745187376980197544
195808,36,908,-3596,2184,300,-2116,1745187376980197544
196000,240,898,-3530,2043,477,-2347,1745187376980197544
196192,451,873,-3476,1961,563,-2742,1745187376980197544
196384,742,883,-3446,1843,631,-3077,1745187376980197544
196576,1084,906,-3405,1845,687,-2409,1745187377053922131
196768,1469,970,-3348,1868,490,-1719,1745187377053922131
196960,1884,1034,-3310,1620,-200,-2039,1745187377053922131
197152,2237,1044,-3226,1501,-984,-2025,1745187377053922131
197344,2488,1065,-3140,1323,-1920,-2023,1745187377053922131
197536,2635,1099,-3051,1211,-2797,-1981,1745187377053922131
197728,2683,1139,-2949,1067,-3497,-1872,1745187377053922131
197920,2644,1178,-2831,1058,-3945,-1871,1745187377053922131
198112,2535,1211,-2699,1138,-4251,-2044,1745187377053922131
198304,2367,1254,-2562,1284,-4361,-2252,1745187377053922131
198496,2147,1308,-2425,1539,-4232,-2451,1745187377053922131
198688,1883,1356,-2282,1912,-3918,-2800,1745187377053922131
198880,1593,1401,-2116,2342,-3269,-3250,1745187377103111942
199072,1222,1454,-1879,2750,-2179,-3461,1745187377103111942
199264,954,1528,-1784,2803,-4527,-4691,1745187377103111942
199456,1093,1536,-1934,3489,-2695,-5258,1745187377103111942
199648,950,1545,-1880,3738,-2755,-5579,1745187377103111942
199840,870,1573,-1880,3641,-2792,-6022,1745187377103111942
200032,822,1618,-1904,4136,-2858,-6834,1745187377103111942
200224,674,1622,-1922,4804,-2917,-7282,1745187377103111942
200416,468,1565,-1913,4370,-2973,-6755,1745187377103111942
200608,308,1579,-1913,4440,-2951,-6885,1745187377103111942
200800,155,1593,-1915,4449,-2860,-6847,1745187377103111942
200992,9,1619,-1922,4494,-2771,-6840,1745187377103111942
201184,-126,1649,-1940,4524,-2635,-6954,1745187377155357871
201376,-242,1676,-1962,4551,-2578,-7011,1745187377155357871
201568,-338,1697,-1974,4581,-2642,-6959,1745187377155357871
201760,-410,1715,-1973,4628,-2764,-6914,1745187377155357871
201952,-460,1729,-1966,4721,-2781,-7124,1745187377155357871
202144,-493,1746,-1961,4820,-2736,-7517,1745187377155357871
202336,-507,1756,-1953,4916,-2778,-7893,1745187377155357871
202528,-491,1758,-1938,4966,-2923,-8163,1745187377155357871
202720,-444,1755,-1918,4982,-3072,-8371,1745187377155357871
202912,-380,1752,-1897,4951,-3211,-8586,1745187377155357871
203104,-302,1751,-1876,4900,-3326,-8810,1745187377155357871
203296,-208,1752,-1848,4867,-3463,-9151,1745187377155357871
203488,-88,1754,-1811,4822,-3724,-9450,1745187377214800766
203680,59,1751,-1762,4774,-4114,-9729,1745187377214800766
203872,212,1742,-1708,4755,-4640,-9976,1745187377214800766
204064,348,1726,-1658,4705,-5175,-10234,1745187377214800766
204256,450,1710,-1613,4648,-5625,-10493,1745187377214800766
204448,519,1693,-1568,4632,-6048,-10697,1745187377214800766
204640,560,1671,-1521,4641,-6549,-10807,1745187377214800766
204832,564,1639,-1468,4707,-7037,-10848,1745187377214800766
205024,522,1590,-1406,4848,-7498,-11012,1745187377214800766
205216,428,1537,-1339,5013,-7756,-11225,1745187377214800766
205408,304,1487,-1266,5107,-7913,-11383,1745187377214800766
205600,177,1445,-1184,5134,-7981,-11527,1745187377214800766
205792,75,1400,-1094,5109,-7999,-11613,1745187377272131752
205984,-3,1361,-987,5025,-8101,-11612,1745187377272131752
206176,-69,1324,-868,4997,-8281,-11670,1745187377272131752
206368,-136,1278,-744,5010,-8431,-11761,1745187377272131752
206560,-206,1230,-627,5055,-8491,-11839,1745187377272131752
206752,-281,1180,-528,5122,-8446,-11874,1745187377272131752
206944,-342,1124,-444,5176,-8336,-11895,1745187377272131752
207136,-395,1059,-373,5238,-8167,-11961,1745187377272131752
207328,-437,976,-313,5256,-7997,-11934,1745187377272131752
207520,-465,891,-267,5254,-7792,-11958,1745187377272131752
207712,-483,806,-222,5163,-7609,-11951,1745187377272131752
207904,-493,723,-173,5051,-7463,-11795,1745187377272131752
208096,-501,642,-121,4931,-7344,-11608,1745187377334668577
208288,-515,568,-73,4766,-7229,-11474,1745187377334668577
208480,-538,498,-30,4594,-7127,-11393,1745187377334668577
208672,-570,431,18,4466,-6937,-11307,1745187377334668577
208864,-611,369,78,4324,-6641,-11152,1745187377334668577
209056,-660,310,143,4207,-6363,-10878,1745187377334668577
209248,-709,252,204,4084,-6155,-10649,1745187377334668577
209440,-739,194,266,3965,-5882,-10318,1745187377334668577
209632,-756,139,332,3848,-5624,-9936,1745187377334668577
209824,-763,87,394,3714,-5430,-9660,1745187377334668577
210016,-769,42,444,3557,-5308,-9475,1745187377334668577
210208,-779,7,485,3381,-5210,-9261,1745187377334668577
210400,-800,-19,520,3203,-5087,-9118,1745187377389348181
210592,-833,-37,552,3049,-4931,-9043,1745187377389348181
210784,-874,-44,578,2910,-4716,-9073,1745187377389348181
210976,-919,-48,600,2779,-4583,-9103,1745187377389348181
211168,-977,-56,627,2687,-4467,-9100,1745187377389348181
211360,-1048,-64,656,2571,-4237,-9054,1745187377389348181
211552,-1140,-65,682,2447,-3908,-8943,1745187377389348181
211744,-1237,-48,703,2332,-3541,-8773,1745187377389348181
211936,-1320,-26,720,2304,-3172,-8782,1745187377389348181
212128,-1379,-5,722,2241,-2788,-8748,1745187377389348181
212320,-1419,15,719,2188,-2475,-8679,1745187377389348181
212512,-1444,36,718,2139,-2182,-8650,1745187377389348181
212704,-1450,61,723,2088,-1835,-8554,1745187377463272142
212896,-1428,89,733,2100,-1417,-8411,1745187377463272142
213088,-1380,125,743,2119,-1054,-8262,1745187377463272142
213280,-1311,163,748,2162,-841,-8144,1745187377463272142
213472,-1230,201,749,2185,-762,-8064,1745187377463272142
213664,-1147,237,751,2186,-770,-7996,1745187377463272142
213856,-1065,268,756,2130,-781,-7854,1745187377463272142
214048,-987,302,764,2065,-665,-7713,1745187377463272142
214240,-915,340,762,1986,-512,-7581,1745187377463272142
214432,-847,383,749,1892,-366,-7495,1745187377463272142
214624,-771,427,733,1888,-224,-7501,1745187377463272142
214816,-680,470,721,1874,-97,-7476,1745187377463272142
215008,-577,512,715,1889,-23,-7440,1745187377505449152
215200,-474,554,705,1903,-1,-7505,1745187377505449152
215392,-374,597,688,1941,14,-7557,1745187377505449152
215584,-283,640,665,1996,23,-7632,1745187377505449152
215776,-209,678,646,2102,-6,-7604,1745187377505449152
215968,-154,709,632,2253,-56,-7251,1745187377505449152
216160,-82,723,609,2654,572,-7669,1745187377505449152
216352,-31,678,544,2967,800,-7210,1745187377505449152
216544,-98,670,470,3020,277,-6802,1745187377505449152
216736,-123,600,430,2845,-793,-6188,1745187377505449152
216928,-185,527,383,2927,-449,-6879,1745187377505449152
217120,-261,474,314,3126,310,-7033,1745187377505449152
217312,-282,424,277,3516,1099,-8005,1745187377565485479
217504,-160,337,246,3832,2063,-8660,1745187377565485479
217696,73,269,186,3810,2776,-8998,1745187377565485479
217888,271,210,69,3461,2971,-9455,1745187377565485479
218080,254,154,-108,2987,2578,-10174,1745187377565485479
218272,11,109,-258,2501,1620,-10502,1745187377565485479
218464,-307,84,-301,2214,464,-10512,1745187377565485479
218656,-612,61,-253,1805,-332,-10601,1745187377565485479
218848,-922,39,-190,1702,-744,-10697,1745187377565485479
219040,-1211,-2,-143,1693,-668,-10531,1745187377565485479
219232,-1422,-40,-109,1801,-78,-10350,1745187377565485479
219424,-1508,-94,-94,1945,813,-10285,1745187377565485479
219616,-1488,-145,-102,1965,1607,-10110,1745187377624752021
219808,-1415,-188,-130,1880,2125,-9758,1745187377624752021
220000,-1327,-215,-171,1601,2263,-9263,1745187377624752021
220192,-1265,-219,-200,1287,1994,-8745,1745187377624752021
220384,-1230,-216,-193,961,1503,-8403,1745187377624752021
220576,-1201,-205,-147,719,1286,-8433,1745187377624752021
220768,-1173,-181,-87,574,1443,-8371,1745187377624752021
220960,-1138,-149,-41,566,1671,-8171,1745187377624752021
221152,-1085,-109,-27,651,1894,-7981,1745187377624752021
221344,-986,-67,-34,836,2300,-7847,1745187377624752021
221536,-802,-19,-47,1063,2938,-7675,1745187377624752021
221728,-529,25,-54,1295,3645,-7325,1745187377624752021
221920,-207,63,-46,1455,4095,-7129,1745187377681629366
222112,132,103,-11,1607,3989,-7091,1745187377681629366
222304,434,152,38,1585,3440,-7248,1745187377681629366
222496,596,163,78,1654,2723,-7540,1745187377681629366
222688,685,153,109,1660,1862,-7705,1745187377681629366
222880,753,162,139,1819,1091,-8076,1745187377681629366
223072,734,141,144,2063,257,-8290,1745187377681629366
223264,698,108,143,2133,-303,-8418,1745187377681629366
223456,651,71,159,2278,-686,-8318,1745187377681629366
223648,560,38,171,2369,-994,-8300,1745187377681629366
223840,481,-4,171,2435,-1160,-8238,1745187377681629366
224032,426,-27,176,2507,-1186,-8014,1745187377681629366
224224,371,-35,178,2531,-1140,-7718,1745187377743456509
224416,291,-27,166,2479,-1212,-7580,1745187377743456509
224608,210,2,162,2390,-1212,-7945,1745187377743456509
224800,138,85,107,2891,-605,-6846,1745187377743456509
224992,199,336,19,1517,-2318,-9653,1745187377743456509
225184,-71,-3,166,2306,-841,-9032,1745187377743456509
225376,-295,-217,188,2409,-712,-8213,1745187377743456509
225568,-293,-174,174,2449,-214,-8197,1745187377743456509
225760,-226,-165,176,2505,481,-8222,1745187377743456509
225952,-98,-167,157,2535,1008,-8325,1745187377743456509
226144,45,-175,121,2443,1222,-8355,1745187377743456509
226336,195,-174,86,2244,1138,-8233,1745187377743456509
226528,319,-162,58,2006,798,-8108,1745187377798596995
226720,385,-147,45,1766,409,-7973,1745187377798596995
226912,413,-127,56,1549,112,-7944,1745187377798596995
227104,422,-104,78,1470,-77,-7936,1745187377798596995
227296,416,-78,95,1452,-295,-7929,1745187377798596995
227488,389,-51,101,1473,-501,-8076,1745187377798596995
227680,349,-36,99,1493,-650,-8167,1745187377798596995
227872,331,-5,107,1551,-685,-8254,1745187377798596995
228064,321,14,121,1555,-612,-8390,1745187377798596995
228256,293,29,132,1622,-517,-8452,1745187377798596995
228448,267,38,139,1742,-812,-8002,1745187377798596995
228640,232,22,140,1726,-763,-8415,1745187377798596995
228832,216,37,177,1838,273,-8374,1745187377859069099
229024,203,66,220,1588,282,-8082,1745187377859069099
229216,212,70,232,1597,267,-8008,1745187377859069099
229408,177,79,221,1608,-120,-8142,1745187377859069099
229600,111,102,219,1653,-493,-8193,1745187377859069099
229792,46,93,227,1743,-729,-7911,1745187377859069099
229984,-54,90,223,1901,-738,-7278,1745187377859069099
230176,-141,123,230,2047,-226,-7216,1745187377859069099
230368,-248,86,242,2003,448,-8292,1745187377859069099
230560,-322,69,265,1812,1036,-8059,1745187377859069099
230752,-256,69,269,2001,1552,-7780,1745187377859069099
230944,-153,65,247,1890,1706,-7611,1745187377859069099
231136,-56,80,229,1633,1066,-7339,1745187377915180149
231328,-17,110,228,566,-525,-7009,1745187377915180149
231520,-48,165,291,1258,-9,-7943,1745187377915180149
231712,-53,123,312,2032,944,-8200,1745187377915180149
231904,-49,106,277,2411,704,-8141,1745187377915180149
232096,15,55,250,2190,-68,-9300,1745187377915180149
232288,-93,-218,325,2293,-1337,-9019,1745187377915180149
232480,-165,-378,552,1974,-325,-9891,1745187377915180149
232672,-624,-815,455,2890,-1528,-9461,1745187377915180149
232864,-589,-617,336,3016,-2582,-3001,1745187377915180149
233056,-512,94,163,960,-2154,-8807,1745187377915180149
233248,-774,-35,89,2497,-460,-8939,1745187377915180149
233440,-828,-173,-118,2035,-1156,-6779,1745187377974603304
233632,-772,3,-32,-287,103,-7301,1745187377974603304
233824,-502,183,191,-480,2634,-8402,1745187377974603304
234016,-177,231,283,743,1616,-8426,1745187377974603304
234208,1,333,248,1569,-29,-8119,1745187377974603304
234400,170,458,169,2400,-1253,-7635,1745187377974603304
234592,309,601,123,3041,-1744,-7181,1745187377974603304
234784,375,702,67,2818,-1387,-8376,1745187377974603304
234976,263,647,-16,2873,-3900,-8970,1745187377974603304
235168,118,432,132,2885,-2053,-9960,1745187377974603304
235360,-219,143,137,3004,-2267,-7821,1745187377974603304
235552,-346,133,114,2774,-1784,-7839,1745187377974603304
235744,-462,110,111,2549,-1266,-7729,1745187378034017397
235936,-544,82,98,2345,-810,-7880,1745187378034017397
236128,-589,82,71,2217,-376,-7897,1745187378034017397
236320,-609,87,34,2167,20,-7837,1745187378034017397
236512,-615,90,2,2197,285,-7839,1745187378034017397
236704,-603,84,-12,2259,457,-7852,1745187378034017397
236896,-578,77,-12,2337,585,-7807,1745187378034017397
237088,-550,61,-3,2394,709,-7690,1745187378034017397
237280,-510,46,11,2349,819,-7544,1745187378034017397
237472,-448,33,25,2293,1035,-7464,1745187378034017397
237664,-379,22,35,2206,1346,-7242,1745187378034017397
237856,-299,19,43,2113,1639,-7244,1745187378034017397
238048,-205,13,49,2058,1865,-7299,1745187378090396361
238240,-96,11,54,2032,2019,-7340,1745187378090396361
238432,19,15,55,1992,2015,-7373,1745187378090396361
238624,143,22,49,1961,1841,-7467,1745187378090396361
238816,247,31,33,1957,1425,-7538,1745187378090396361
239008,314,34,23,2008,904,-7634,1745187378090396361
239200,360,33,20,2046,514,-7691,1745187378090396361
239392,381,28,21,2093,157,-7868,1745187378090396361
239584,372,20,24,2112,-208,-7956,1745187378090396361
239776,346,13,22,2113,-503,-7987,1745187378090396361
239968,306,8,20,2098,-647,-7977,1745187378090396361
240160,257,2,24,2088,-719,-7865,1745187378090396361
240352,220,28,40,-288,-2862,-7139,1745187378154993791
240544,131,150,71,-2000,-3639,-7865,1745187378154993791
240736,67,278,31,3419,-279,-8872,1745187378154993791
240928,-50,222,149,4104,3163,-8419,1745187378154993791
241120,-76,133,160,4644,3020,-8007,1745187378154993791
241312,60,49,57,3853,1106,-7877,1745187378154993791
241504,95,-44,-74,2615,-686,-7654,1745187378154993791
241696,82,-85,-69,2005,-1426,-7706,1745187378154993791
241888,51,-104,8,1959,-993,-7809,1745187378154993791
242080,16,-104,48,2168,-181,-7892,1745187378154993791
242272,1,-97,15,2315,406,-7936,1745187378154993791
242464,3,-98,-35,2372,467,-7884,1745187378154993791
242656,16,-110,-58,2433,352,-7800,1745187378207550707
242848,31,-128,-64,2412,193,-7751,1745187378207550707
243040,36,-146,-70,2277,10,-7778,1745187378207550707
243232,21,-145,-81,1948,-140,-7819,1745187378207550707
243424,2,-123,-84,1450,-165,-7864,1745187378207550707
243616,-38,-69,-66,939,-209,-7756,1745187378207550707
243808,-26,-15,-40,1013,-17,-7856,1745187378207550707
244000,-21,31,-17,1495,67,-7938,1745187378207550707
244192,-29,53,-8,2029,26,-7905,1745187378207550707
244384,-39,52,-15,2409,-36,-7915,1745187378207550707
244576,-49,33,-31,2576,-71,-7924,1745187378207550707
244768,-60,5,-44,2490,-66,-7904,1745187378207550707
244960,-70,-17,-51,2271,-55,-7906,1745187378270932784
245152,-79,-26,-54,2020,-21,-7899,1745187378270932784
245344,-89,-23,-55,1871,-28,-7853,1745187378270932784
245536,-98,-15,-52,1840,-42,-7789,1745187378270932784
245728,-108,-10,-49,1920,-59,-7825,1745187378270932784
245920,-119,-7,-40,2008,-61,-7878,1745187378270932784
246112,-128,4,-24,2156,-43,-7952,1745187378270932784
246304,-134,-5,-22,2216,27,-7920,1745187378270932784
246496,-130,-9,-28,2204,156,-7832,1745187378270932784
246688,-125,-8,-33,2177,239,-7745,1745187378270932784
246880,-120,-14,-39,2130,281,-7784,1745187378270932784
247072,-112,-17,-43,2059,285,-7866,1745187378270932784
247264,-105,-18,-46,2019,266,-7910,1745187378332342744
247456,-98,-9,-44,2004,229,-7913,1745187378332342744
247648,-94,-4,-43,1992,103,-7780,1745187378332342744
247840,-133,1,-53,1598,-860,-7719,1745187378332342744
248032,-243,31,-67,1309,-1770,-7628,1745187378332342744
248224,-293,59,-43,1582,-1375,-7823,1745187378332342744
248416,-318,74,14,2086,148,-7986,1745187378332342744
248608,-299,69,51,2547,1541,-8063,1745187378332342744
248800,-277,54,12,2492,1623,-7920,1745187378332342744
248992,-266,54,-73,2081,792,-7745,1745187378332342744
249184,-241,63,-123,1769,135,-7742,1745187378332342744
249376,-219,72,-95,1887,203,-7871,1745187378332342744
249568,-203,69,-31,2252,492,-7956,1745187378384997784
249760,-197,55,0,2501,588,-7969,1745187378384997784
249952,-179,43,-16,2477,570,-7941,1745187378384997784
250144,-153,40,-54,2348,646,-7930,1745187378384997784
250336,-128,38,-80,2202,694,-7875,1745187378384997784
250528,-101,34,-84,2154,750,-7843,1745187378384997784
250720,-71,21,-74,2215,813,-7797,1745187378384997784
250912,-37,6,-58,2262,897,-7806,1745187378384997784
251104,-3,-3,-50,2210,857,-7813,1745187378384997784
251296,28,-5,-51,2079,762,-7828,1745187378384997784
251488,59,-5,-53,2022,520,-7818,1745187378384997784
251680,84,-12,-45,2185,272,-7808,1745187378384997784
251872,63,-35,-26,2355,73,-7781,1745187378441983878
252064,21,-63,-5,2388,-190,-7750,1745187378441983878
252256,-16,-91,2,2223,-182,-7771,1745187378441983878
252448,-46,-98,6,1894,-243,-7850,1745187378441983878
252640,-77,-76,6,1487,-156,-7872,1745187378441983878
252832,-98,-50,8,1454,184,-7912,1745187378441983878
253024,-107,-31,20,1786,450,-7867,1745187378441983878
253216,-125,-37,31,2239,388,-7757,1745187378441983878
253408,-139,-73,44,2511,410,-7769,1745187378441983878
253600,-137,-123,59,2666,534,-7806,1745187378441983878
253792,-135,-157,86,2738,522,-7890,1745187378441983878
253984,-148,-200,104,2448,311,-7847,1745187378441983878
254944,-200,-240,112,1847,367,-8041,1745187379414159997
290272,1460,666,32,2927,2371,-8132,1745187379414159997
290464,1288,484,39,3135,1028,-7120,1745187379414159997
290656,1520,416,101,3501,1935,-7185,1745187379414159997
290848,1651,408,174,2804,-1673,-6961,1745187379414159997
291040,1512,462,97,1832,-7668,-7553,1745187379414159997
291232,673,410,-135,2902,-16010,-7837,1745187379414159997
291424,-431,85,-409,3906,-13644,-6262,1745187379414159997
291616,-984,-191,-252,3004,-8982,-6854,1745187379414159997
291808,-1301,-209,120,2457,-3889,-7902,1745187379414159997
292000,-1881,-220,275,2162,729,-8135,1745187379414159997
292192,-2486,-285,180,2371,3565,-7803,1745187379414159997
292384,-2155,-210,-32,1775,5865,-7043,1745187379473476747
292576,-1328,-145,-173,1590,7132,-7898,1745187379473476747
292768,-675,-107,-265,1654,6927,-8196,1745187379473476747
292960,-433,-61,-342,1707,4843,-7807,1745187379473476747
293152,-243,-20,-334,1839,2054,-7274,1745187379473476747
293344,-86,-7,-279,2116,-168,-7268,1745187379473476747
293536,-83,-35,-200,2298,-1548,-7243,1745187379473476747
293728,-135,-59,-123,2721,-2082,-7555,1745187379473476747
293920,-210,-82,-114,2864,-1684,-7625,1745187379473476747
294112,-289,-106,-151,2933,-1040,-7688,1745187379473476747
294304,-346,-127,-226,2738,-274,-7549,1745187379473476747
294496,-386,-125,-304,2564,322,-7507,1745187379473476747
294688,-407,-128,-366,2341,514,-7861,1745187379531933505
294880,-453,-139,-348,1976,353,-8089,1745187379531933505
295072,-449,-110,-315,2024,504,-7519,1745187379531933505
295264,-332,-68,-310,2286,907,-7346,1745187379531933505
295456,-310,0,-382,2650,1116,-7416,1745187379531933505
295648,-257,-35,-486,2812,1016,-7425,1745187379531933505
295840,-184,-34,-575,2805,850,-7420,1745187379531933505
296032,-159,-7,-578,2649,534,-7591,1745187379531933505
296224,-143,81,-512,2724,285,-7666,1745187379531933505
296416,-113,53,-461,2655,378,-7524,1745187379531933505
296608,-116,22,-454,2442,411,-7502,1745187379531933505
296800,-98,23,-466,2246,523,-7549,1745187379531933505
296992,-45,32,-483,2113,647,-7701,1745187379587564924
297184,-13,31,-503,2028,775,-7720,1745187379587564924
297376,26,48,-517,2067,782,-8023,1745187379587564924
297568,68,51,-527,2118,735,-8190,1745187379587564924
297760,96,55,-541,2087,770,-7783,1745187379587564924
297952,155,121,-561,2178,1018,-5250,1745187379587564924
298144,278,249,-661,2558,2407,-8350,1745187379587564924
298336,362,158,-696,2577,3481,-9256,1745187379587564924
298528,469,95,-655,2568,3184,-7960,1745187379587564924
298720,585,202,-691,2775,2403,-7405,1745187379587564924
298912,734,189,-770,2536,1722,-7542,1745187379587564924
299104,859,171,-800,2260,1275,-7337,1745187379587564924
299296,947,212,-785,2154,1125,-7315,1745187379649506077
299488,1029,247,-762,2126,1242,-7334,1745187379649506077
299680,1114,273,-742,2105,1480,-7456,1745187379649506077
299872,1212,299,-737,2070,1696,-7682,1745187379649506077
300064,1303,339,-741,2055,1749,-7610,1745187379649506077
300256,1381,390,-770,2065,1510,-7454,1745187379649506077
300448,1461,431,-806,2118,1054,-7678,1745187379649506077
300640,1532,457,-815,2208,594,-7763,1745187379649506077
300832,1582,478,-797,2274,257,-7736,1745187379649506077
301024,1592,495,-786,2336,-112,-7853,1745187379649506077
301216,1586,530,-785,2503,-413,-7893,1745187379649506077
301408,1572,537,-786,2564,-657,-7908,1745187379649506077
301600,1553,546,-776,2581,-892,-8156,1745187379705253849
301792,1515,576,-751,2583,-1173,-8286,1745187379705253849
301984,1443,566,-747,2495,-1507,-8274,1745187379705253849
302176,1368,591,-741,2353,-1756,-8371,1745187379705253849
302368,1280,634,-739,2290,-1827,-8305,1745187379705253849
302560,1187,685,-737,2309,-1819,-8408,1745187379705253849
302752,1119,719,-729,2416,-1696,-8251,1745187379705253849
302944,1098,744,-742,2512,-1445,-8165,1745187379705253849
303136,1093,772,-773,2638,-1075,-8283,1745187379705253849
303328,1121,800,-802,2791,-518,-8505,1745187379705253849
303520,1187,838,-827,3059,50,-8899,1745187379705253849
303712,1258,846,-869,3373,420,-9266,1745187379705253849
303904,1268,863,-911,3807,235,-8914,1745187379822578037
304096,1171,840,-914,4246,-615,-8690,1745187379822578037
304288,1027,760,-859,4476,-1507,-8822,1745187379822578037
304480,884,664,-756,4344,-2005,-9107,1745187379822578037
304672,690,592,-634,4154,-2125,-9335,1745187379822578037
304864,422,524,-554,4017,-2136,-9554,1745187379822578037
305056,96,463,-535,3945,-2173,-9506,1745187379822578037
305248,-211,417,-543,3945,-2103,-9342,1745187379822578037
305440,-446,385,-542,4048,-1823,-9346,1745187379822578037
305632,-629,362,-534,4216,-1332,-9206,1745187379822578037
305824,-752,308,-531,4428,-692,-9160,1745187379822578037
306016,-772,244,-536,4624,128,-8977,1745187379822578037
306208,-634,174,-544,4791,1010,-8845,1745187379829740941
306400,-360,118,-552,4930,1752,-8687,1745187379829740941
306592,-77,72,-545,5045,2210,-8700,1745187379829740941
306784,144,12,-529,5071,2137,-8485,1745187379829740941
306976,394,-54,-513,4893,1631,-8307,1745187379829740941
307168,652,-123,-477,4686,1023,-8361,1745187379829740941
307360,838,-185,-430,4467,334,-8048,1745187379829740941
307552,942,-218,-388,4208,-356,-7605,1745187379829740941
307744,995,-232,-349,3966,-950,-7286,1745187379829740941
307936,1014,-234,-308,3799,-1430,-7121,1745187379829740941
308128,1001,-242,-267,3730,-1780,-7105,1745187379829740941
308320,963,-258,-236,3703,-1997,-7210,1745187379829740941
308704,870,-283,-199,3786,-2158,-7545,1745187379893240985
308896,798,-299,-182,3873,-2208,-7777,1745187379893240985
309088,710,-304,-164,3900,-2382,-7792,1745187379893240985
309280,599,-303,-142,3933,-2780,-8175,1745187379893240985
309472,493,-330,-121,4052,-2996,-8590,1745187379893240985
309664,415,-354,-123,4145,-2580,-8692,1745187379893240985
309856,326,-360,-144,4199,-2037,-8799,1745187379893240985
310048,247,-356,-160,4258,-1868,-8891,1745187379893240985
310240,207,-348,-149,4287,-2023,-8994,1745187379893240985
310432,210,-352,-105,4294,-2283,-8941,1745187379893240985
310624,233,-366,-49,4244,-2585,-8852,1745187379893240985
310816,243,-388,5,4153,-2923,-8766,1745187379893240985
311008,224,-412,57,4034,-3266,-8784,1745187379942286058
311200,174,-442,112,3972,-3621,-8746,1745187379942286058
311392,97,-471,155,3911,-4002,-8530,1745187379942286058
311584,-9,-487,186,3887,-4225,-8185,1745187379942286058
311776,-140,-496,214,3851,-4336,-7841,1745187379942286058
311968,-285,-499,242,3793,-4371,-7620,1745187379942286058
312160,-437,-487,270,3687,-4314,-7493,1745187379942286058
312352,-594,-461,299,3577,-4266,-7377,1745187379942286058
312544,-760,-427,334,3530,-4271,-7221,1745187379942286058
312736,-932,-390,373,3561,-4298,-7088,1745187379942286058
312928,-1099,-354,418,3700,-4396,-7063,1745187379942286058
313120,-1248,-319,466,3927,-4468,-7084,1745187379942286058
313312,-1376,-286,510,4208,-4466,-7051,1745187380026423727
313504,-1476,-249,543,4561,-4296,-7139,1745187380026423727
313696,-1549,-215,549,4931,-3901,-7227,1745187380026423727
313888,-1599,-189,526,5331,-3360,-7306,1745187380026423727
314080,-1621,-162,482,5749,-2697,-7305,1745187380026423727
314272,-1612,-148,420,6197,-2083,-7241,1745187380026423727
314464,-1577,-143,340,6572,-1589,-7125,1745187380026423727
314656,-1540,-131,259,6897,-1284,-7063,1745187380026423727
314848,-1510,-129,178,7171,-1127,-7044,1745187380026423727
315040,-1493,-149,82,7351,-990,-7054,1745187380026423727
315232,-1487,-168,-26,7535,-861,-7032,1745187380026423727
315424,-1463,-170,-63,7769,-724,-7082,1745187380026423727
315616,-1428,-168,-38,8038,-534,-7090,1745187380064133747
315616,-1428,-168,-38,8038,-534,-7090,1745187380064133747
316000,-1458,-163,83,8802,-565,-7400,1745187380064133747
316192,-1538,-177,158,9269,-888,-7715,1745187380064133747
316384,-1640,-202,230,9735,-1244,-7974,1745187380064133747
316576,-1755,-233,292,10196,-1496,-7999,1745187380064133747
316768,-1874,-275,335,10581,-1597,-7923,1745187380064133747
316960,-1973,-329,349,10889,-1493,-7816,1745187380064133747
317152,-2038,-399,331,11085,-1191,-7677,1745187380064133747
317344,-2068,-490,284,11097,-790,-7510,1745187380064133747
317536,-2058,-595,220,10905,-349,-7274,1745187380064133747
317728,-2002,-702,167,10538,41,-7061,1745187380064133747
317920,-1906,-800,136,10056,403,-6841,1745187380126914997
318112,-1792,-878,130,9501,737,-6754,1745187380126914997
318304,-1672,-932,151,8955,1019,-6731,1745187380126914997
318496,-1545,-966,194,8439,1226,-6771,1745187380126914997
318688,-1417,-986,252,7968,1324,-6805,1745187380126914997
318880,-1294,-997,312,7523,1336,-6816,1745187380126914997
319072,-1178,-997,377,7120,1370,-6802,1745187380126914997
319264,-1056,-985,464,6766,1429,-6801,1745187380126914997
319456,-931,-953,574,6485,1523,-6853,1745187380126914997
319648,-817,-907,691,6289,1579,-7038,1745187380126914997
319840,-731,-855,804,6172,1543,-7390,1745187380126914997
320032,-669,-802,912,6126,1454,-7682,1745187380126914997
320224,-613,-753,1023,6111,1345,-7804,1745187380189802912
320416,-549,-709,1141,6114,1291,-7838,1745187380189802912
320608,-473,-666,1263,6128,1312,-7894,1745187380189802912
320800,-387,-625,1377,6168,1385,-8087,1745187380189802912
320992,-297,-590,1477,6211,1417,-8263,1745187380189802912
321184,-199,-566,1567,6295,1373,-8308,1745187380189802912
321376,-100,-570,1650,6335,1197,-8228,1745187380189802912
321568,-5,-601,1733,6328,997,-8017,1745187380189802912
321760,81,-644,1817,6188,805,-7829,1745187380189802912
321952,155,-705,1911,5996,634,-7632,1745187380189802912
322144,221,-775,2023,5786,405,-7382,1745187380189802912
322336,282,-844,2153,5572,126,-7110,1745187380189802912
322528,334,-925,2296,5380,-191,-6815,1745187380241980560
322720,367,-1016,2434,5161,-517,-6483,1745187380241980560
322912,377,-1104,2566,4922,-834,-6148,1745187380241980560
323104,361,-1184,2700,4678,-1132,-5896,1745187380241980560
323296,309,-1247,2841,4504,-1419,-5823,1745187380241980560
323488,216,-1286,2995,4389,-1709,-5744,1745187380241980560
323680,91,-1313,3158,4356,-2018,-5688,1745187380241980560
323872,-48,-1350,3324,4320,-2328,-5541,1745187380241980560
324064,-186,-1404,3481,4311,-2584,-5473,1745187380241980560
324256,-322,-1472,3628,4321,-2824,-5467,1745187380241980560
324448,-445,-1550,3767,4280,-2980,-5529,1745187380241980560
324640,-544,-1630,3904,4256,-2996,-5576,1745187380241980560
324832,-624,-1708,4037,4237,-2921,-5585,1745187380302455685
325024,-690,-1775,4161,4203,-2799,-5576,1745187380302455685
325216,-747,-1836,4280,4195,-2708,-5591,1745187380302455685
325408,-802,-1896,4405,4226,-2667,-5618,1745187380302455685
325600,-844,-1961,4536,4252,-2685,-5633,1745187380302455685
325792,-863,-2030,4674,4291,-2648,-5581,1745187380302455685
325984,-859,-2088,4805,4325,-2472,-5514,1745187380302455685
326176,-840,-2126,4916,4353,-2089,-5350,1745187380302455685
326368,-818,-2146,4994,4427,-1471,-5186,1745187380302455685
326560,-799,-2152,5044,4543,-768,-5175,1745187380302455685
326752,-780,-2158,5079,4675,-85,-5177,1745187380302455685
326944,-744,-2165,5114,4800,475,-4984,1745187380302455685
327136,-677,-2177,5160,4941,916,-4708,1745187380362467012
327328,-583,-2196,5218,5067,1292,-4457,1745187380362467012
327520,-483,-2216,5284,5159,1596,-4305,1745187380362467012
327712,-396,-2234,5356,5223,1874,-4166,1745187380362467012
327904,-322,-2251,5431,5276,2068,-3981,1745187380362467012
328096,-259,-2262,5507,5286,2205,-3796,1745187380362467012
328288,-209,-2262,5582,5287,2298,-3628,1745187380362467012
328480,-176,-2246,5656,5244,2422,-3505,1745187380362467012
328672,-163,-2215,5723,5209,2538,-3425,1745187380362467012
328864,-162,-2169,5788,5205,2621,-3314,1745187380362467012
329056,-163,-2108,5855,5236,2718,-3198,1745187380362467012
329248,-160,-2027,5927,5279,2831,-3116,1745187380362467012
329440,-166,-1929,6001,5367,3006,-3077,1745187380415879492
329632,-182,-1818,6075,5576,3132,-3087,1745187380415879492
329824,-205,-1693,6145,5818,3250,-3225,1745187380415879492
330016,-228,-1563,6211,6150,3331,-3354,1745187380415879492
330208,-248,-1435,6269,6577,3383,-3510,1745187380415879492
330400,-275,-1318,6319,7101,3421,-3712,1745187380415879492
330592,-323,-1215,6356,7672,3432,-3960,1745187380415879492
330784,-399,-1128,6384,8232,3419,-4115,1745187380415879492
330976,-492,-1054,6403,8775,3389,-4109,1745187380415879492
331168,-606,-992,6419,9285,3321,-4006,1745187380415879492
331360,-736,-940,6423,9721,3256,-3934,1745187380415879492
331552,-894,-898,6411,10139,3234,-3852,1745187380415879492
331744,-1076,-867,6380,10516,3246,-3739,1745187380475485146
331936,-1276,-840,6332,10871,3324,-3602,1745187380475485146
332128,-1487,-814,6269,11229,3483,-3456,1745187380475485146
332320,-1708,-787,6191,11680,3789,-3340,1745187380475485146
332512,-1937,-763,6101,12160,4214,-3333,1745187380475485146
332704,-2176,-747,5996,12680,4740,-3300,1745187380475485146
332896,-2411,-746,5874,13225,5298,-3210,1745187380475485146
333088,-2624,-776,5740,13733,5940,-3090,1745187380475485146
333280,-2809,-849,5601,14109,6617,-2977,1745187380475485146
333472,-2965,-957,5455,14434,7490,-2700,1745187380475485146
333664,-3080,-1099,5292,14608,8397,-2464,1745187380475485146
333856,-3151,-1274,5106,14722,8978,-2106,1745187380475485146
334048,-3144,-1494,4768,14111,11187,-1862,1745187380533737010
334240,-3283,-1776,4709,13586,11934,-1668,1745187380533737010
334432,-3343,-2094,4721,12737,13438,-1270,1745187380533737010
334624,-3306,-2386,4644,11250,15379,-1424,1745187380533737010
334816,-3207,-2671,4596,9352,17427,-1351,1745187380533737010
335008,-3016,-2837,4555,6840,19525,-1084,1745187380533737010
335200,-2726,-2837,4495,3947,21272,-1010,1745187380533737010
335392,-2377,-2687,4378,1491,22202,-1873,1745187380533737010
335584,-2057,-2544,4160,-584,20626,-5177,1745187380533737010
335776,-1864,-2962,4186,-3203,17743,-2624,1745187380533737010
335968,-756,-2491,3240,-2382,16254,4120,1745187380533737010
336160,327,-1014,2608,-4107,14253,-4444,1745187380533737010
336352,934,-738,2104,-3321,11074,-4120,1745187380602149978
336544,1477,-347,1642,-2306,8634,-4550,1745187380602149978
336736,1836,-76,1283,-1230,6961,-5345,1745187380602149978
336928,1952,147,1024,-123,5873,-6197,1745187380602149978
337120,1917,238,768,929,5619,-6781,1745187380602149978
337312,1681,297,498,1461,4208,-7021,1745187380602149978
337504,1616,352,120,1699,4653,-7147,1745187380602149978
337696,1445,388,-156,1506,4930,-7547,1745187380602149978
337888,1242,397,-322,1136,5438,-7565,1745187380602149978
338080,1055,400,-405,882,5893,-7352,1745187380602149978
338272,887,422,-459,496,6069,-6654,1745187380602149978
338464,701,475,-485,249,6130,-6088,1745187380602149978
338656,515,474,-493,163,6881,-6994,1745187380648480545
338848,181,432,-509,43,7744,-6656,1745187380648480545
339040,-255,451,-485,-20,8395,-6354,1745187380648480545
339232,-683,458,-380,180,9243,-6509,1745187380648480545
339424,-1073,466,-243,732,9885,-6120,1745187380648480545
339616,-1244,573,-154,972,10880,-6095,1745187380648480545
339808,-1317,616,2,1037,11879,-6193,1745187380648480545
340000,-1378,390,38,619,12106,-7966,1745187380648480545
340192,-1348,46,154,1064,11833,-5780,1745187380648480545
340384,-1075,-38,273,962,10978,-5703,1745187380648480545
340576,-760,-127,401,853,9892,-5528,1745187380648480545
340768,-441,-218,525,749,8611,-5510,1745187380648480545
340960,-183,-335,629,614,7322,-5514,1745187380711420178
341152,-4,-409,698,331,6060,-5586,1745187380711420178
341344,82,-457,744,20,5039,-5694,1745187380711420178
341536,88,-483,778,-268,4344,-5814,1745187380711420178
341728,26,-489,801,-464,3937,-5940,1745187380711420178
341920,-96,-477,816,-640,3739,-6202,1745187380711420178
342112,-272,-472,827,-554,4069,-6034,1745187380711420178
342304,-418,-421,749,-485,4343,-5968,1745187380711420178
342496,-552,-372,693,-358,4911,-6028,1745187380711420178
342688,-669,-374,653,-145,5504,-5808,1745187380711420178
342880,-721,-365,617,117,6032,-5532,1745187380711420178
343072,-733,-362,590,246,6493,-5632,1745187380711420178
343264,-728,-385,566,406,6737,-5233,1745187380766840661
343456,-696,-392,556,363,6975,-5469,1745187380766840661
343648,-694,-448,574,615,6927,-4441,1745187380766840661
343840,-600,-320,610,358,6912,-4703,1745187380766840661
344032,-575,-249,645,167,6890,-5097,1745187380766840661
344224,-581,-249,678,91,6813,-4979,1745187380766840661
344416,-595,-230,699,66,6793,-5082,1745187380766840661
344608,-614,-210,710,52,6789,-5243,1745187380766840661
344800,-641,-198,716,78,6828,-5469,1745187380766840661
344992,-677,-199,719,100,6855,-5590,1745187380766840661
345184,-706,-189,726,127,6880,-5720,1745187380766840661
345376,-736,-193,732,136,6915,-5813,1745187380766840661
345568,-766,-194,735,66,6902,-5772,1745187380826197359
345760,-796,-204,742,4,6886,-5718,1745187380826197359
345952,-835,-216,741,-91,6845,-5727,1745187380826197359
346144,-883,-214,729,-238,6854,-5707,1745187380826197359
346336,-933,-207,713,-384,6913,-5689,1745187380826197359
346528,-977,-189,699,-534,7085,-5685,1745187380826197359
346720,-1012,-170,685,-616,7289,-5629,1745187380826197359
346912,-1037,-149,661,-691,7557,-5644,1745187380826197359
347104,-1053,-122,630,-701,7857,-5579,1745187380826197359
347296,-1054,-92,594,-658,8203,-5487,1745187380826197359
347488,-1031,-58,559,-571,8540,-5407,1745187380826197359
347680,-986,-21,524,-434,8888,-5401,1745187380826197359
347872,-921,9,488,-263,9228,-5327,1745187380883340535
348064,-840,29,443,-89,9552,-5219,1745187380883340535
348256,-742,33,396,-25,9762,-5118,1745187380883340535
348448,-631,31,357,-20,9867,-5082,1745187380883340535
348640,-512,27,322,-57,9886,-5075,1745187380883340535
348832,-392,25,284,-145,9790,-5116,1745187380883340535
349024,-275,29,240,-261,9651,-5193,1745187380883340535
349216,-164,40,192,-358,9463,-5213,1745187380883340535
349408,-66,59,139,-404,9308,-5249,1745187380883340535
349600,13,83,82,-376,9139,-5336,1745187380883340535
349792,77,107,28,-310,9041,-5415,1745187380883340535
349984,131,129,-18,-248,8957,-5546,1745187380883340535
350176,176,142,-62,-198,8912,-5661,1745187380943264675
350368,213,146,-112,-143,8798,-5710,1745187380943264675
350560,241,147,-169,-120,8636,-5752,1745187380943264675
350752,257,152,-220,-163,8463,-5825,1745187380943264675
350944,256,159,-262,-171,8260,-5959,1745187380943264675
351136,237,165,-299,-175,8111,-6168,1745187380943264675
351328,207,163,-327,-188,8042,-6380,1745187380943264675
351520,172,156,-351,-185,8006,-6571,1745187380943264675
351712,140,149,-376,-200,8020,-6677,1745187380943264675
351904,109,148,-400,-162,8024,-6766,1745187380943264675
352096,77,150,-428,-85,8033,-6886,1745187380943264675
352288,40,143,-449,-17,8006,-6946,1745187380943264675
352480,-1,131,-458,53,7978,-7046,1745187381018504612
352672,-42,115,-464,100,7977,-7102,1745187381018504612
352864,-81,100,-475,141,8001,-7057,1745187381018504612
353056,-115,89,-490,154,8027,-7065,1745187381018504612
353248,-144,79,-502,161,8052,-6986,1745187381018504612
353440,-173,72,-515,206,8090,-6884,1745187381018504612
353632,-199,65,-535,282,8121,-6874,1745187381018504612
353824,-218,61,-558,309,8152,-6866,1745187381018504612
354016,-230,54,-574,335,8199,-6852,1745187381018504612
354208,-229,42,-589,336,8292,-6800,1745187381018504612
354400,-223,31,-609,364,8359,-6647,1745187381018504612
354592,-211,26,-634,404,8404,-6484,1745187381018504612
354784,-189,23,-659,448,8402,-6385,1745187381057787431
354976,-162,18,-685,501,8357,-6307,1745187381057787431
355168,-134,12,-708,541,8263,-6165,1745187381057787431
355360,-111,1,-732,574,8100,-6020,1745187381057787431
355552,-95,-11,-753,604,7930,-5846,1745187381057787431
355744,-83,-19,-773,592,7737,-5686,1745187381057787431
355936,-72,-23,-789,558,7615,-5606,1745187381057787431
356128,-59,-25,-802,483,7537,-5483,1745187381057787431
356320,-44,-25,-819,449,7500,-5487,1745187381057787431
356512,-24,-21,-838,419,7474,-5544,1745187381057787431
356704,3,-14,-859,343,7452,-5525,1745187381057787431
356896,32,-5,-877,284,7387,-5514,1745187381057787431
357088,63,2,-892,235,7342,-5539,1745187381122904023
357280,89,13,-903,206,7271,-5519,1745187381122904023
357472,109,23,-913,170,7171,-5447,1745187381122904023
357664,130,32,-924,159,7068,-5422,1745187381122904023
357856,150,43,-935,117,7019,-5362,1745187381122904023
358048,170,55,-941,86,6978,-5330,1745187381122904023
358240,188,63,-945,50,6968,-5320,1745187381122904023
358432,205,74,-948,46,6954,-5309,1745187381122904023
358624,223,84,-956,27,6936,-5304,1745187381122904023
358816,247,96,-965,15,6934,-5329,1745187381122904023
359008,267,106,-969,8,6945,-5337,1745187381122904023
359200,280,116,-972,-6,6962,-5349,1745187381122904023
359392,290,123,-977,-6,6962,-5328,1745187381174748810
359584,298,129,-983,3,6953,-5295,1745187381174748810
359776,306,135,-991,-5,6912,-5241,1745187381174748810
359968,314,144,-999,27,6878,-5159,1745187381174748810
360160,321,154,-1006,34,6797,-5065,1745187381174748810
360352,329,166,-1015,68,6677,-5016,1745187381174748810
360544,332,179,-1030,118,6517,-5019,1745187381174748810
360736,329,192,-1043,132,6404,-4994,1745187381174748810
360928,317,209,-1055,189,6322,-5035,1745187381174748810
361120,301,220,-1067,190,6265,-5148,1745187381174748810
361312,285,229,-1079,199,6292,-5219,1745187381174748810
361504,266,235,-1090,159,6355,-5272,1745187381174748810
361696,253,243,-1106,68,6444,-5299,1745187381251425662
361888,248,253,-1119,-49,6532,-5352,1745187381251425662
362080,254,262,-1128,-169,6604,-5361,1745187381251425662
362272,265,272,-1145,-260,6637,-5340,1745187381251425662
362464,281,289,-1166,-342,6667,-5300,1745187381251425662
362656,304,318,-1189,-334,6681,-5168,1745187381251425662
362848,329,352,-1208,-259,6713,-5126,1745187381251425662
363040,350,386,-1221,-106,6795,-5105,1745187381251425662
363232,370,410,-1229,48,6877,-5110,1745187381251425662
363424,401,422,-1227,193,6930,-5122,1745187381251425662
363616,451,426,-1225,306,6975,-5154,1745187381251425662
363808,514,425,-1225,365,6987,-5164,1745187381251425662
364000,577,416,-1227,333,6903,-5203,1745187381295312032
364192,631,402,-1227,259,6769,-5175,1745187381295312032
364384,668,389,-1227,131,6595,-5222,1745187381295312032
364576,680,379,-1226,31,6449,-5297,1745187381295312032
364768,668,379,-1221,-53,6316,-5352,1745187381295312032
364960,648,385,-1210,-110,6223,-5443,1745187381295312032
365152,633,390,-1197,-149,6182,-5612,1745187381295312032
365344,619,396,-1192,-133,6200,-5763,1745187381295312032
365536,606,404,-1196,-110,6192,-5833,1745187381295312032
365728,594,412,-1204,-93,6140,-5840,1745187381295312032
365920,581,421,-1216,-78,6092,-5830,1745187381295312032
366112,559,428,-1229,-58,6026,-5852,1745187381295312032
366304,526,438,-1248,0,6003,-5884,1745187381352924266
366496,482,449,-1274,59,5983,-5847,1745187381352924266
366688,434,462,-1306,124,6021,-5768,1745187381352924266
366880,389,477,-1344,214,6096,-5654,1745187381352924266
367072,352,493,-1388,280,6244,-5540,1745187381352924266
367264,322,505,-1437,337,6371,-5476,1745187381352924266
367456,305,515,-1493,387,6474,-5410,1745187381352924266
367648,301,524,-1556,403,6598,-5375,1745187381352924266
367840,305,535,-1623,391,6671,-5296,1745187381352924266
368032,314,547,-1691,364,6715,-5183,1745187381352924266
368224,327,560,-1759,314,6768,-5118,1745187381352924266
368416,343,577,-1828,288,6848,-5128,1745187381352924266
368608,363,598,-1899,316,6936,-5214,1745187381420790833
368800,386,623,-1974,372,7008,-5296,1745187381420790833
368992,414,651,-2050,434,7059,-5350,1745187381420790833
369184,446,674,-2125,507,7044,-5407,1745187381420790833
369376,475,696,-2199,573,7065,-5382,1745187381420790833
369568,499,718,-2274,651,7064,-5331,1745187381420790833
369760,515,741,-2351,760,7087,-5323,1745187381420790833
369952,521,765,-2428,881,7100,-5300,1745187381420790833
370144,522,790,-2503,995,7086,-5222,1745187381420790833
370336,525,812,-2572,1106,7004,-5118,1745187381420790833
370528,534,834,-2639,1185,6929,-4970,1745187381420790833
370720,545,857,-2706,1278,6862,-4799,1745187381420790833
370912,557,880,-2778,1351,6833,-4664,1745187381466863485
371104,570,903,-2854,1419,6809,-4585,1745187381466863485
371296,585,928,-2934,1483,6880,-4594,1745187381466863485
371488,604,955,-3018,1570,7028,-4634,1745187381466863485
371680,620,987,-3106,1703,7167,-4647,1745187381466863485
371872,633,1021,-3194,1867,7261,-4631,1745187381466863485
372064,650,1057,-3282,2069,7234,-4550,1745187381466863485
372256,671,1093,-3366,2246,7121,-4456,1745187381466863485
372448,694,1121,-3441,2407,6977,-4360,1745187381466863485
372640,717,1141,-3510,2563,6812,-4329,1745187381466863485
372832,734,1155,-3574,2704,6649,-4332,1745187381466863485
373024,744,1165,-3635,2810,6458,-4314,1745187381466863485
373216,750,1173,-3694,2918,6268,-4284,1745187381527223611
373408,753,1179,-3749,3020,6089,-4293,1745187381527223611
373600,751,1184,-3803,3098,5941,-4278,1745187381527223611
373792,740,1189,-3859,3184,5812,-4251,1745187381527223611
373984,728,1196,-3913,3262,5706,-4142,1745187381527223611
374176,722,1205,-3963,3287,5640,-3998,1745187381527223611
374368,734,1212,-4009,3310,5595,-3907,1745187381527223611
374560,768,1215,-4052,3328,5646,-3805,1745187381527223611
374752,820,1216,-4095,3293,5740,-3712,1745187381527223611
374944,878,1223,-4139,3280,5836,-3586,1745187381527223611
375136,936,1237,-4183,3264,5895,-3461,1745187381527223611
375328,1004,1260,-4220,3273,5914,-3337,1745187381527223611
375520,1086,1286,-4253,3287,6016,-3214,1745187381584974281
375712,1175,1313,-4285,3360,6137,-3107,1745187381584974281
375904,1254,1342,-4313,3461,6183,-3049,1745187381584974281
376096,1322,1370,-4336,3592,6082,-3012,1745187381584974281
376288,1387,1399,-4353,3735,5867,-2931,1745187381584974281
376480,1463,1418,-4357,3899,5572,-2797,1745187381584974281
376672,1557,1427,-4351,4037,5284,-2667,1745187381584974281
376864,1668,1424,-4342,4177,5096,-2565,1745187381584974281
377056,1793,1411,-4336,4281,4963,-2495,1745187381584974281
377248,1917,1391,-4336,4357,4795,-2441,1745187381584974281
377440,2038,1364,-4344,4419,4607,-2482,1745187381584974281
377632,2172,1334,-4355,4441,4480,-2442,1745187381584974281
377824,2320,1308,-4365,4454,4403,-2234,1745187381645021129
378016,2459,1288,-4363,4481,4223,-2038,1745187381645021129
378208,2588,1268,-4353,4519,4003,-1968,1745187381645021129
378400,2702,1242,-4345,4638,3718,-1948,1745187381645021129
378592,2773,1201,-4346,4725,3447,-1928,1745187381645021129
378784,2797,1159,-4352,4671,3140,-2034,1745187381645021129
378976,2765,1108,-4356,4448,2834,-2207,1745187381645021129
379168,2685,1041,-4354,4357,2532,-2177,1745187381645021129
379360,2604,1035,-4343,6730,2174,-2647,1745187381645021129
379552,2453,958,-4293,5407,1887,-2609,1745187381645021129
379744,2309,885,-4259,5554,1580,-2700,1745187381645021129
379936,2151,798,-4223,5639,1245,-3049,1745187381645021129
380128,1983,716,-4175,5712,964,-3292,1745187381702795184
380320,1810,639,-4126,5822,713,-3452,1745187381702795184
380512,1626,574,-4081,5800,528,-3621,1745187381702795184
380704,1447,528,-4043,5727,414,-4103,1745187381702795184
380896,1282,490,-4020,5640,439,-4652,1745187381702795184
381088,1139,479,-4005,5504,288,-5192,1745187381702795184
381280,1019,476,-3964,5414,155,-5609,1745187381702795184
381472,931,493,-3910,5309,-30,-6002,1745187381702795184
381664,867,532,-3834,5251,-287,-6392,1745187381702795184
381856,844,590,-3748,5281,-587,-6899,1745187381702795184
382048,852,646,-3662,5389,-1040,-7414,1745187381702795184
382240,871,683,-3574,5613,-1583,-7530,1745187381702795184
382432,888,707,-3475,5734,-2645,-8086,1745187381767102253
382624,861,668,-3331,6069,-3648,-7845,1745187381767102253
382816,839,638,-3203,6187,-4639,-7939,1745187381767102253
383008,782,605,-3079,6336,-5283,-8062,1745187381767102253
383200,667,561,-2899,6142,-5358,-7925,1745187381767102253
383392,287,532,-2543,6409,-6840,-6960,1745187381767102253
383584,291,582,-2681,6499,-7631,-7959,1745187381767102253
383776,257,493,-2725,6416,-8038,-6921,1745187381767102253
383968,86,474,-2700,6512,-8246,-6964,1745187381767102253
384160,-94,508,-2704,6615,-7958,-7215,1745187381767102253
384352,-222,540,-2685,6665,-7490,-7491,1745187381767102253
384544,-243,571,-2609,6683,-6898,-7656,1745187381767102253
384736,-104,555,-2475,6652,-6553,-8036,1745187381820340048
384928,160,514,-2305,6711,-6734,-8490,1745187381820340048
385120,472,435,-2129,6776,-7577,-9061,1745187381820340048
385312,770,344,-1957,6814,-8801,-9684,1745187381820340048
385504,991,247,-1789,6775,-10063,-10351,1745187381820340048
385696,1106,168,-1629,6667,-11148,-10951,1745187381820340048
385888,1122,121,-1479,6477,-11931,-11192,1745187381820340048
386080,1062,87,-1342,6337,-12311,-11272,1745187381820340048
386272,938,78,-1225,6139,-12376,-11179,1745187381820340048
386464,781,89,-1105,5970,-12117,-11006,1745187381820340048
386656,620,113,-958,5821,-11559,-10725,1745187381820340048
386848,485,135,-776,5773,-10962,-10501,1745187381820340048
387040,386,143,-580,5775,-10404,-10391,1745187381877076144
387232,325,151,-390,5756,-9860,-10323,1745187381877076144
387424,297,164,-225,5686,-9407,-10374,1745187381877076144
387616,278,173,-76,5652,-9139,-10523,1745187381877076144
387808,238,180,56,5721,-8992,-10754,1745187381877076144
388000,158,187,173,5851,-8892,-10960,1745187381877076144
388192,35,191,285,6021,-8796,-11070,1745187381877076144
388384,-135,188,392,6159,-8653,-11137,1745187381877076144
388576,-329,178,483,6244,-8450,-10962,1745187381877076144
388768,-531,161,562,6245,-8153,-10757,1745187381877076144
388960,-721,140,628,6194,-7726,-10542,1745187381877076144
389152,-901,118,680,6110,-7273,-10278,1745187381877076144
389344,-1071,100,722,6024,-6799,-10041,1745187381938919746
389536,-1226,81,755,5929,-6342,-9814,1745187381938919746
389728,-1369,68,779,5831,-5950,-9566,1745187381938919746
389920,-1505,56,795,5758,-5577,-9317,1745187381938919746
390112,-1636,47,802,5708,-5221,-9018,1745187381938919746
390304,-1764,31,795,5664,-4870,-8766,1745187381938919746
390496,-1885,12,778,5592,-4500,-8486,1745187381938919746
390688,-1986,-7,760,5468,-4066,-8134,1745187381938919746
390880,-2067,-19,742,5331,-3579,-7700,1745187381938919746
391072,-2129,-27,725,5180,-3164,-7291,1745187381938919746
391264,-2166,-31,707,4975,-2869,-6961,1745187381938919746
391456,-2183,-37,690,4764,-2655,-6732,1745187381938919746
391648,-2183,-40,669,4547,-2372,-6541,1745187381997409160
391840,-2165,-29,646,4343,-2007,-6288,1745187381997409160
392032,-2129,-8,617,4183,-1636,-6127,1745187381997409160
392224,-2076,23,576,4057,-1255,-6056,1745187381997409160
392416,-1990,61,528,3953,-941,-6018,1745187381997409160
392608,-1859,99,488,3838,-588,-6004,1745187381997409160
392800,-1689,134,463,3756,-295,-5894,1745187381997409160
392992,-1500,174,452,3628,-168,-5765,1745187381997409160
393184,-1313,219,449,3585,-98,-5760,1745187381997409160
393376,-1139,268,439,3557,-77,-5762,1745187381997409160
393568,-983,310,430,3513,-162,-5775,1745187381997409160
393760,-840,348,415,3486,-270,-5779,1745187381997409160
393952,-703,387,392,3455,-234,-5686,1745187382056166540
394144,-565,424,358,3521,-96,-5884,1745187382056166540
394336,-478,443,317,3559,-186,-5633,1745187382056166540
394528,-385,445,274,3485,-699,-5179,1745187382056166540
394720,-284,390,217,3250,-1540,-5392,1745187382056166540
394912,-137,377,145,3319,-633,-6794,1745187382056166540
395104,-12,423,148,3779,771,-7215,1745187382056166540
395296,185,452,203,4541,1243,-7385,1745187382056166540
395488,638,354,199,5093,1408,-8892,1745187382056166540
395680,900,225,143,5135,1616,-10207,1745187382056166540
395872,1039,143,45,5216,1441,-12493,1745187382056166540
396064,799,52,-169,6741,1356,-15528,1745187382056166540
396256,475,281,-740,4390,-779,-19592,1745187382109574906
396448,455,-407,-874,5493,4166,-20681,1745187382109574906
396640,-196,-927,-718,4412,3097,-16128,1745187382109574906
396832,-292,-1027,-845,2418,2352,-12574,1745187382109574906
397024,-301,-1030,-629,830,-928,-9001,1745187382109574906
397216,-255,-939,-330,-85,-2520,-9063,1745187382109574906
397408,-474,-861,-166,-352,-3717,-8220,1745187382109574906
397600,-780,-703,-17,-541,-4254,-7907,1745187382109574906
397792,-932,-706,102,-4262,-3722,-8292,1745187382109574906
397984,-1222,-535,197,-1725,-2638,-7829,1745187382109574906
398176,-1403,-362,231,-1175,-1037,-8315,1745187382109574906
398368,-1538,-340,212,-326,475,-8065,1745187382109574906
398560,-1517,-441,205,574,1536,-7042,1745187382172759016
398752,-1311,-365,275,766,2962,-7000,1745187382172759016
398944,-1105,-337,254,908,3103,-6936,1745187382172759016
399136,-901,-368,227,591,3024,-7380,1745187382172759016
399328,-685,-446,167,387,2344,-7573,1745187382172759016
399520,-448,-447,122,210,2135,-7168,1745187382172759016
399712,-211,-289,81,-249,1944,-7499,1745187382172759016
399904,-55,-138,84,-451,1768,-7906,1745187382172759016
400096,39,-54,129,-355,1636,-7920,1745187382172759016
400288,112,5,193,-75,1484,-8013,1745187382172759016
400480,173,46,261,259,1389,-8063,1745187382172759016
400672,196,65,301,608,1171,-8088,1745187382172759016
400864,167,63,303,915,808,-8009,1745187382226714253
401056,151,42,279,1102,525,-7832,1745187382226714253
401248,153,15,247,1144,220,-7724,1745187382226714253
401440,145,-11,215,1152,-191,-7797,1745187382226714253
401632,123,-40,190,1089,-685,-8031,1745187382226714253
401824,106,-60,180,963,-1041,-8292,1745187382226714253
402016,79,-63,190,923,-1210,-8519,1745187382226714253
402208,10,-64,201,879,-2265,-8747,1745187382226714253
402400,-346,-104,312,-73,-8000,-9430,1745187382226714253
402592,-887,-185,326,1672,-4626,-7830,1745187382226714253
402784,-816,-114,181,1304,1605,-8024,1745187382226714253
402976,-578,55,282,1510,2952,-7991,1745187382226714253
403168,-470,122,228,1081,859,-8985,1745187382288187806
403360,-537,11,95,1155,-1427,-8853,1745187382288187806
403552,-521,-40,38,1321,565,-7648,1745187382288187806
403744,-323,37,113,1079,2019,-8334,1745187382288187806
403936,-229,45,157,631,919,-7939,1745187382288187806
404128,-183,112,101,506,590,-8174,1745187382288187806
404320,-117,141,89,707,1330,-8201,1745187382288187806
404512,-105,177,90,862,856,-7798,1745187382288187806
404704,-4,177,59,1533,2313,-8091,1745187382288187806
404896,102,141,54,2063,3079,-8326,1745187382288187806
405088,141,58,15,1978,1896,-8008,1745187382288187806
405280,227,6,-50,1900,1250,-7968,1745187382288187806
405472,301,-66,-72,1582,1159,-8065,1745187382344134013
405664,316,-130,-54,1370,1186,-8060,1745187382344134013
405856,337,-188,-201,420,189,-7620,1745187382344134013
406048,391,-119,-122,0,-557,-7245,1745187382344134013
406240,384,43,7,-115,-1398,-8243,1745187382344134013
406432,70,113,73,95,-2019,-7819,1745187382344134013
406624,-38,180,179,447,-1637,-7907,1745187382344134013
406816,49,140,266,730,-693,-8027,1745187382344134013
407008,-14,151,292,1005,-126,-7983,1745187382344134013
407200,0,201,259,1224,150,-8093,1745187382344134013
407392,49,247,212,1465,259,-7807,1745187382344134013
407584,94,334,174,1327,-18,-8162,1745187382344134013
407776,69,320,181,1265,68,-8307,1745187382404167579
407968,45,260,81,1251,-257,-7514,1745187382404167579
408160,87,354,85,1129,-946,-8115,1745187382404167579
408352,36,342,257,947,-505,-8753,1745187382404167579
408544,-118,136,258,1058,-252,-9117,1745187382404167579
408736,-246,-4,266,1193,-167,-7953,1745187382404167579
408928,-242,8,274,1248,22,-7830,1745187382404167579
409120,-183,-31,263,1111,-297,-6895,1745187382404167579
409312,67,-16,237,303,-1468,-6719,1745187382404167579
409504,35,70,207,-223,-1271,-10013,1745187382404167579
409696,-369,132,232,741,274,-7896,1745187382404167579
409888,-246,108,317,1685,1625,-8184,1745187382404167579
467680,105,-370,-156,6159,-8653,-11137,1745187383928392979
467872,134,-474,-112,2460,-141,-7924,1745187383928392979
468064,141,-440,-74,2135,449,-7865,1745187383928392979
468256,105,-428,-90,1392,-4,-8012,1745187383928392979
468448,49,-326,-117,618,-497,-7988,1745187383928392979
468640,12,-217,-123,572,-633,-7957,1745187383928392979
468832,-32,-142,-80,971,-462,-7967,1745187383928392979
469024,-149,-78,-15,1327,-1112,-8292,1745187383928392979
469216,-314,-90,82,1952,-2250,-7564,1745187383928392979
469408,-363,-143,228,1762,-2120,-7835,1745187383928392979
469600,-452,-86,299,2254,-662,-8162,1745187383928392979
469792,-523,-24,96,2481,624,-8204,1745187383928392979
469984,-551,-10,-110,2511,1222,-8097,1745187383987289888
470176,-565,-8,-181,2668,1193,-8052,1745187383987289888
470368,-577,-23,-187,2560,1043,-7953,1745187383987289888
470560,-569,-25,-173,2253,1044,-7931,1745187383987289888
470752,-549,-22,-156,2016,1117,-7931,1745187383987289888
470944,-530,-20,-141,2006,1295,-7944,1745187383987289888
471136,-511,-9,-138,2006,1371,-7923,1745187383987289888
471328,-478,17,-132,1955,1339,-7877,1745187383987289888
471520,-438,48,-113,2012,1462,-7789,1745187383987289888
471712,-392,66,-91,2081,1722,-7763,1745187383987289888
471904,-335,72,-67,2451,2205,-7834,1745187383987289888
472096,-268,60,-69,2884,2712,-7822,1745187383987289888
472288,-183,31,-95,2929,2987,-7782,1745187384042523967
472480,-82,4,-111,2727,2692,-7683,1745187384042523967
472672,14,-34,-89,2692,2137,-7679,1745187384042523967
472864,112,-58,-54,2303,2231,-7601,1745187384042523967
473056,196,-93,-51,2009,2436,-7678,1745187384042523967
473248,2,-109,-27,4028,3458,-10865,1745187384042523967
473440,-527,-326,19,37,2110,-5635,1745187384042523967
473632,501,-222,0,275,2463,-4496,1745187384042523967
473824,700,460,-61,-1444,1098,-8105,1745187384042523967
474016,738,499,-76,-1053,674,-7269,1745187384042523967
474208,768,572,-24,122,-312,-7197,1745187384042523967
474400,705,626,140,2419,-1350,-7351,1745187384042523967
474592,645,559,295,3454,-1878,-7493,1745187384103507577
474784,564,428,361,4364,-1713,-7239,1745187384103507577
474976,526,326,286,5759,-1050,-8627,1745187384103507577
475168,316,81,132,4890,-540,-7928,1745187384103507577
475360,230,-50,-11,4141,-53,-7899,1745187384103507577
475552,167,-134,-97,3228,244,-7986,1745187384103507577
475744,134,-189,-140,2284,349,-7998,1745187384103507577
475936,103,-191,-133,1633,356,-7981,1745187384103507577
476128,76,-163,-95,1297,297,-7952,1745187384103507577
476320,56,-119,-45,1352,206,-7951,1745187384103507577
476512,31,-76,-2,1645,141,-7944,1745187384103507577
476704,6,-48,21,2076,121,-7901,1745187384103507577
476896,-17,-42,22,2454,179,-7839,1745187384170383580
477088,-36,-54,7,2712,302,-7790,1745187384170383580
477280,-47,-82,-18,2804,475,-7745,1745187384170383580
477472,-49,-113,-43,2706,631,-7767,1745187384170383580
477664,-42,-137,-64,2503,780,-7758,1745187384170383580
477856,-27,-150,-82,2273,888,-7717,1745187384170383580
478048,-4,-147,-94,2062,972,-7649,1745187384170383580
478240,26,-130,-100,1935,989,-7646,1745187384170383580
478432,60,-109,-100,1944,977,-7675,1745187384170383580
478624,90,-92,-97,2005,926,-7682,1745187384170383580
478816,119,-79,-94,2083,890,-7672,1745187384170383580
479008,146,-70,-99,2189,856,-7666,1745187384170383580
479200,172,-65,-112,2239,808,-7653,1745187384224717772
479392,196,-64,-127,2238,725,-7691,1745187384224717772
479584,213,-63,-142,2231,627,-7752,1745187384224717772
479776,225,-62,-164,2230,613,-7770,1745187384224717772
479968,234,-52,-199,2205,535,-7877,1745187384224717772
480160,233,-51,-211,2215,385,-7812,1745187384224717772
480352,224,-53,-218,2203,248,-7815,1745187384224717772
480544,222,-54,-228,2208,236,-7771,1745187384224717772
480736,219,-57,-240,2226,254,-7830,1745187384224717772
480928,205,-62,-238,2318,225,-7962,1745187384224717772
481120,184,-71,-248,2405,253,-8039,1745187384224717772
481312,153,-81,-266,2430,257,-8096,1745187384224717772
481504,121,-92,-298,2376,236,-8049,1745187384276305425
481696,90,-97,-326,2241,162,-8036,1745187384276305425
481888,68,-98,-339,2048,131,-8003,1745187384276305425
482080,36,-89,-344,1844,143,-8040,1745187384276305425
482272,8,-78,-320,1717,139,-8103,1745187384276305425
482464,-23,-57,-302,1643,97,-8156,1745187384276305425
482656,-70,-29,-286,1614,-35,-8199,1745187384276305425
482848,-113,-9,-248,1682,-139,-8121,1745187384276305425
483040,-152,16,-234,1786,-151,-8081,1745187384276305425
483232,-204,35,-217,1853,-93,-8004,1745187384276305425
483424,-230,42,-183,1934,88,-7954,1745187384276305425
483616,-256,54,-192,1975,242,-8004,1745187384276305425
483808,-294,67,-193,2008,319,-8020,1745187384336848935
484000,-310,64,-174,2066,428,-7918,1745187384336848935
484192,-315,70,-196,2136,537,-7911,1745187384336848935
484384,-342,77,-203,2165,566,-7916,1745187384336848935
484576,-341,60,-180,2220,618,-7856,1745187384336848935
484768,-334,58,-209,2263,581,-7997,1745187384336848935
484960,-377,65,-234,2253,412,-8033,1745187384336848935
485152,-395,44,-199,2288,325,-7953,1745187384336848935
485344,-358,35,-207,2251,211,-8109,1745187384336848935
485536,-463,52,-276,2167,151,-8147,1745187384336848935
485728,-520,31,-227,2190,-5,-8033,1745187384336848935
485920,-554,12,-169,2149,99,-8067,1745187384336848935
486112,-600,1,-148,2117,314,-8120,1745187384393239305
486304,-640,0,-146,2134,507,-8116,1745187384393239305
486496,-671,-4,-144,2163,606,-8078,1745187384393239305
486688,-688,-11,-140,2179,913,-7774,1745187384393239305
486880,-473,-21,-139,2065,1229,-7638,1745187384393239305
487072,-451,-9,-203,2033,1492,-8332,1745187384393239305
487264,-665,7,-229,2096,1461,-7657,1745187384393239305
487456,-601,-10,-141,2185,1439,-7584,1745187384393239305
487648,-529,-44,-71,2215,1684,-7700,1745187384393239305
487840,-483,-59,-42,2262,1984,-7681,1745187384393239305
488032,-415,-61,-51,2229,2228,-7567,1745187384393239305
488224,-233,-55,-76,2151,2682,-6930,1745187384393239305
488416,97,-50,-106,1974,2767,-7908,1745187384453568858
488608,69,-13,-148,1961,2680,-7756,1745187384453568858
488800,104,0,-134,2000,2391,-7434,1745187384453568858
488992,216,13,-82,2051,2307,-7266,1745187384453568858
489184,331,22,-16,2103,2300,-7212,1745187384453568858
489376,428,9,33,2131,2269,-7182,1745187384453568858
489568,527,-5,65,2136,2099,-7167,1745187384453568858
489760,640,-6,96,2127,1884,-7201,1745187384453568858
489952,770,-1,128,2103,1694,-7173,1745187384453568858
490144,894,17,159,2074,1497,-7061,1745187384453568858
490336,968,35,184,2083,1227,-7147,1745187384453568858
490528,993,36,207,2156,825,-7387,1745187384453568858
490720,992,25,222,2220,449,-7516,1745187384516906248
490912,958,8,225,2279,295,-7627,1745187384516906248
491104,904,-13,208,2303,339,-7657,1745187384516906248
491296,846,-38,183,2300,428,-7685,1745187384516906248
491488,803,-55,160,2264,527,-7751,1745187384516906248
491680,783,-64,145,2188,602,-7761,1745187384516906248
491872,781,-73,139,2102,637,-7770,1745187384516906248
492064,789,-76,144,2013,592,-7837,1745187384516906248
492256,786,-75,155,1895,395,-7903,1745187384516906248
492448,772,-73,173,1775,103,-7953,1745187384516906248
492640,754,-67,198,1694,-164,-8058,1745187384516906248
492832,722,-55,224,1633,-344,-8183,1745187384516906248
493024,678,-41,246,1630,-412,-8327,1745187384568309789
493216,623,-24,258,1664,-365,-8473,1745187384568309789
493408,568,-8,261,1743,-281,-8566,1745187384568309789
493600,522,7,268,1838,-187,-8635,1745187384568309789
493792,486,21,277,1939,-74,-8710,1745187384568309789
493984,453,25,285,2012,-49,-8664,1745187384568309789
494176,400,28,288,2113,-154,-8758,1745187384568309789
494368,331,24,288,2263,-345,-9048,1745187384568309789
494560,260,5,287,2413,-510,-9458,1745187384568309789
494752,202,-21,286,2567,-613,-9756,1745187384568309789
494944,164,-45,285,2692,-544,-9934,1745187384568309789
495136,137,-75,273,2807,-404,-10145,1745187384568309789
495328,113,-114,249,2844,-302,-10389,1745187384634325644
495520,85,-148,232,2842,-340,-10733,1745187384634325644
495712,-16,-164,223,2867,-504,-10858,1745187384634325644
495904,-141,-176,223,2960,-600,-11266,1745187384634325644
496096,-269,-235,192,3040,-464,-11624,1745187384634325644
496288,-439,-306,126,3072,-346,-11291,1745187384634325644
496480,-586,-385,69,3095,-128,-11274,1745187384634325644
496672,-630,-446,50,3099,-49,-10988,1745187384634325644
496864,-565,-462,65,3058,76,-10564,1745187384634325644
497056,-480,-457,92,3023,360,-10416,1745187384634325644
497248,-500,-484,105,3038,516,-10273,1745187384634325644
497440,-554,-525,86,3023,448,-10103,1745187384634325644
497632,-588,-567,56,2925,337,-9945,1745187384685851788
497824,-628,-595,35,2835,291,-9770,1745187384685851788
498016,-670,-608,19,2757,288,-9570,1745187384685851788
498208,-722,-614,3,2658,271,-9418,1745187384685851788
498400,-786,-616,-18,2601,284,-9315,1745187384685851788
498592,-855,-611,-46,2565,329,-9187,1745187384685851788
498784,-918,-604,-82,2528,430,-9085,1745187384685851788
498976,-961,-595,-121,2519,562,-9013,1745187384685851788
499168,-977,-587,-161,2491,666,-8974,1745187384685851788
499360,-963,-581,-204,2484,788,-8973,1745187384685851788
499552,-919,-574,-247,2451,925,-8941,1745187384685851788
499744,-856,-564,-291,2427,1078,-8876,1745187384685851788
499936,-776,-553,-337,2377,1203,-8809,1745187384747162843
500128,-688,-540,-384,2366,1297,-8788,1745187384747162843
500320,-594,-526,-433,2308,1328,-8755,1745187384747162843
500512,-495,-505,-480,2256,1346,-8734,1745187384747162843
500704,-395,-485,-524,2187,1389,-8783,1745187384747162843
500896,-297,-466,-565,2151,1458,-8805,1745187384747162843
501088,-206,-445,-602,2138,1440,-8736,1745187384747162843
501280,-120,-425,-634,2120,1391,-8636,1745187384747162843
501472,-37,-406,-658,2077,1350,-8547,1745187384747162843
501664,39,-385,-682,2051,1341,-8522,1745187384747162843
501856,103,-363,-708,2022,1396,-8474,1745187384747162843
502048,145,-337,-735,1996,1507,-8428,1745187384747162843
502240,161,-305,-766,1980,1623,-8316,1745187384806103554
502432,162,-278,-800,1983,1717,-8234,1745187384806103554
502624,164,-261,-835,2036,1872,-8269,1745187384806103554
502816,176,-246,-864,2063,2114,-8193,1745187384806103554
503008,200,-223,-885,2135,2370,-8081,1745187384806103554
503200,242,-207,-893,2225,2554,-7952,1745187384806103554
503392,297,-200,-882,2343,2621,-7811,1745187384806103554
503584,362,-197,-855,2445,2550,-7670,1745187384806103554
503776,442,-192,-810,2574,2387,-7600,1745187384806103554
503968,532,-191,-754,2678,2196,-7575,1745187384806103554
504160,624,-199,-701,2789,1997,-7643,1745187384806103554
504352,713,-217,-655,2840,1852,-7788,1745187384806103554
504544,800,-239,-623,2850,1772,-7968,1745187384867257735
504736,876,-260,-604,2835,1705,-8130,1745187384867257735
504928,930,-279,-597,2798,1593,-8303,1745187384867257735
505120,964,-288,-591,2729,1482,-8505,1745187384867257735
505312,993,-290,-575,2688,1395,-8686,1745187384867257735
505504,1030,-288,-551,2672,1283,-8814,1745187384867257735
505696,1082,-285,-528,2715,1125,-8910,1745187384867257735
505888,1146,-284,-510,2755,981,-9011,1745187384867257735
506080,1218,-282,-497,2827,831,-9084,1745187384867257735
506272,1297,-277,-494,2955,676,-9109,1745187384867257735
506464,1378,-271,-503,3093,528,-9054,1745187384867257735
506656,1457,-269,-518,3228,363,-8958,1745187384867257735
506848,1529,-269,-532,3365,153,-8856,1745187384920207616
507040,1582,-278,-537,3527,-107,-9000,1745187384920207616
507232,1613,-298,-525,3721,-343,-8994,1745187384920207616
507424,1623,-310,-495,3902,-538,-8698,1745187384920207616
507616,1600,-318,-459,4063,-749,-8634,1745187384920207616
507808,1548,-326,-420,4150,-1051,-8554,1745187384920207616
508000,1458,-333,-382,4190,-1449,-8508,1745187384920207616
508192,1337,-349,-347,4255,-1842,-8522,1745187384920207616
508384,1186,-365,-321,4280,-2182,-8498,1745187384920207616
508576,1005,-372,-301,4319,-2430,-8367,1745187384920207616
508768,813,-369,-283,4395,-2576,-8169,1745187384920207616
508960,627,-360,-264,4467,-2623,-7921,1745187384920207616
509152,454,-347,-246,4570,-2509,-7642,1745187384980529826
509344,299,-334,-246,4654,-2328,-7339,1745187384980529826
509536,168,-322,-261,4714,-2064,-6999,1745187384980529826
509728,65,-311,-290,4784,-1778,-6630,1745187384980529826
509920,-13,-299,-321,4791,-1541,-6210,1745187384980529826
510112,-70,-288,-345,4811,-1387,-5842,1745187384980529826
510304,-112,-277,-353,4787,-1265,-5544,1745187384980529826
510496,-140,-265,-344,4765,-1158,-5298,1745187384980529826
510688,-155,-258,-323,4745,-1061,-4993,1745187384980529826
510880,-155,-250,-298,4733,-955,-4707,1745187384980529826
511072,-142,-240,-268,4697,-846,-4487,1745187384980529826
511264,-117,-228,-237,4682,-778,-4357,1745187384980529826
511456,-83,-214,-208,4675,-713,-4366,1745187385039299080
511648,-38,-196,-182,4638,-648,-4387,1745187385039299080
511840,11,-181,-149,4633,-669,-4406,1745187385039299080
512032,63,-168,-114,4634,-758,-4488,1745187385039299080
512224,106,-151,-80,4628,-896,-4557,1745187385039299080
512416,134,-135,-47,4578,-1012,-4581,1745187385039299080
512608,148,-116,-12,4541,-1138,-4612,1745187385039299080
512800,162,-95,25,4451,-1274,-4681,1745187385039299080
512992,188,-70,66,4367,-1444,-4732,1745187385039299080
513184,234,-46,106,4280,-1641,-4765,1745187385039299080
513376,295,-21,144,4159,-1836,-4810,1745187385039299080
513568,353,4,182,4050,-2074,-4931,1745187385039299080
513760,403,29,224,3892,-2364,-5149,1745187385095641847
513952,445,55,286,3738,-2745,-5305,1745187385095641847
514144,484,74,371,3612,-3244,-5326,1745187385095641847
514336,523,75,472,3508,-3881,-5258,1745187385095641847
514528,552,60,580,3433,-4512,-5302,1745187385095641847
514720,558,34,691,3393,-5150,-5517,1745187385095641847
514912,530,15,834,3386,-5378,-5682,1745187385095641847
515104,388,10,1139,3199,-6447,-5639,1745187385095641847
515296,257,-60,1233,2949,-7006,-5351,1745187385095641847
515488,308,-54,1190,2986,-7383,-5170,1745187385095641847
515680,324,-11,1320,2780,-7755,-5497,1745187385095641847
515872,239,17,1453,2638,-8099,-5631,1745187385095641847
516064,120,24,1583,2650,-8514,-5767,1745187385156201867
516256,-23,43,1703,2625,-8823,-6186,1745187385156201867
516448,-174,79,1826,2630,-8960,-6374,1745187385156201867
516640,-306,119,1971,2636,-8855,-6592,1745187385156201867
516832,-427,166,2150,2705,-8576,-6832,1745187385156201867
517024,-523,199,2366,2862,-8282,-7194,1745187385156201867
517216,-578,224,2615,3052,-7944,-7473,1745187385156201867
517408,-581,225,2876,3282,-7516,-7616,1745187385156201867
517600,-542,210,3133,3522,-7001,-7764,1745187385156201867
517792,-479,191,3375,3758,-6470,-7909,1745187385156201867
517984,-400,164,3594,3981,-6017,-7988,1745187385156201867
518176,-310,135,3790,4183,-5649,-8062,1745187385156201867
518368,-210,98,3964,4355,-5378,-8034,1745187385213468791
518560,-111,51,4133,4440,-5141,-7944,1745187385213468791
518752,-14,-1,4304,4496,-4952,-7822,1745187385213468791
518944,83,-54,4476,4498,-4799,-7657,1745187385213468791
519136,175,-102,4645,4419,-4655,-7441,1745187385213468791
519328,253,-145,4804,4370,-4552,-7189,1745187385213468791
519520,310,-182,4940,4281,-4454,-6898,1745187385213468791
519712,345,-203,5056,4189,-4347,-6699,1745187385213468791
519904,356,-212,5157,4116,-4161,-6547,1745187385213468791
520096,342,-204,5251,4091,-3891,-6433,1745187385213468791
520288,313,-182,5346,4112,-3526,-6249,1745187385213468791
520480,267,-155,5441,4208,-3190,-6049,1745187385213468791
520672,194,-130,5531,4360,-2867,-5983,1745187385272310493
520864,92,-106,5615,4541,-2597,-5903,1745187385272310493
521056,-54,-98,5696,4784,-2425,-5435,1745187385272310493
521248,-189,-103,5760,5095,-2246,-5551,1745187385272310493
521440,-345,-101,5814,5295,-2036,-5590,1745187385272310493
521632,-535,-98,5874,5442,-1804,-5802,1745187385272310493
521824,-721,-88,5938,5549,-1490,-5672,1745187385272310493
522016,-881,-80,6008,5655,-1172,-5500,1745187385272310493
522208,-1012,-75,6079,5827,-821,-5326,1745187385272310493
522400,-1120,-83,6148,6021,-546,-5279,1745187385272310493
522592,-1221,-78,6212,6215,-336,-5136,1745187385272310493
522784,-1325,-69,6274,6387,-221,-4974,1745187385272310493
522976,-1432,-51,6333,6411,-164,-4762,1745187385333510455
523168,-1535,-29,6393,7386,65,-4615,1745187385333510455
523360,-1706,11,6466,7384,118,-4267,1745187385333510455
523552,-1872,16,6537,7732,316,-4088,1745187385333510455
523744,-2047,51,6588,8129,621,-3804,1745187385333510455
523936,-2230,84,6630,8572,974,-3470,1745187385333510455
524128,-2414,132,6670,9088,1404,-3089,1745187385333510455
524320,-2592,162,6706,9624,1921,-2808,1745187385333510455
524512,-2765,170,6728,10218,2581,-2492,1745187385333510455
524704,-2947,143,6725,10774,3253,-1952,1745187385333510455
524896,-3144,100,6693,11257,3876,-1624,1745187385333510455
525088,-3343,32,6648,11770,4549,-1347,1745187385333510455
525280,-3506,-47,6575,12237,5271,-1098,1745187385386964811
525472,-3596,-128,6458,12931,5574,-896,1745187385386964811
525664,-3639,-219,6166,12826,7924,-1277,1745187385386964811
525856,-3868,-373,6237,13315,7871,-1731,1745187385386964811
526048,-3961,-505,6232,13447,8726,-2357,1745187385386964811
526240,-3902,-603,6169,13410,9658,-2825,1745187385386964811
526432,-3722,-695,6110,13284,10621,-3085,1745187385386964811
526624,-3424,-787,6024,13073,11518,-3520,1745187385386964811
526816,-3026,-876,5893,12725,12229,-3926,1745187385386964811
527008,-2551,-934,5725,12209,12476,-4247,1745187385386964811
527200,-2045,-978,5596,11672,12705,-4779,1745187385386964811
527392,-1514,-999,5440,10969,12907,-5437,1745187385386964811
527584,-1032,-969,5295,10192,12734,-5817,1745187385454260915
527776,-584,-900,5185,9378,12314,-6045,1745187385454260915
527968,-174,-795,5095,8588,11914,-6255,1745187385454260915
528160,163,-658,4967,7909,11537,-6247,1745187385454260915
528352,405,-489,4777,7389,11230,-6207,1745187385454260915
528544,571,-337,4529,6973,11198,-6200,1745187385454260915
528736,663,-218,4248,6632,11509,-6298,1745187385454260915
528928,681,-140,3948,6360,12026,-6370,1745187385454260915
529120,629,-114,3644,6229,12639,-6314,1745187385454260915
529312,533,-130,3326,6167,13121,-6022,1745187385454260915
529504,426,-193,2999,5988,13563,-5289,1745187385454260915
529696,326,-168,2670,5084,13282,-4771,1745187385454260915
529888,259,-116,2395,4205,12568,-4686,1745187385511292581
530080,212,-69,2164,3402,11440,-4990,1745187385511292581
530272,134,-21,1952,2746,10181,-5232,1745187385511292581
530464,1,48,1721,2275,8860,-5585,1745187385511292581
530656,-212,95,1481,2021,7701,-6094,1745187385511292581
530848,-529,83,1264,1823,6770,-6591,1745187385511292581
531040,-872,61,1096,1571,6232,-6598,1745187385511292581
531232,-1132,92,1031,1140,6021,-6523,1745187385511292581
531424,-1386,169,969,1285,6951,-7080,1745187385511292581
531616,-1583,247,759,1639,7572,-6851,1745187385511292581
531808,-1701,348,600,1618,8358,-7560,1745187385511292581
532000,-1778,355,493,1692,9089,-7596,1745187385511292581
532192,-1783,343,410,1710,9594,-7653,1745187385622741303
532384,-1731,307,362,1699,9850,-7536,1745187385622741303
532576,-1632,274,343,1693,9814,-7374,1745187385622741303
532768,-1504,233,348,1607,9631,-7188,1745187385622741303
532960,-1363,200,372,1421,9325,-7100,1745187385622741303
533152,-1211,176,409,1205,9019,-6979,1745187385622741303
533344,-1054,155,457,1047,8742,-6933,1745187385622741303
533536,-896,143,503,962,8479,-7012,1745187385622741303
533728,-743,139,540,898,8298,-7136,1745187385622741303
533920,-597,146,573,883,8150,-7345,1745187385622741303
534112,-449,153,602,882,8009,-7584,1745187385622741303
534304,-308,159,632,886,7840,-7843,1745187385622741303
534496,-178,153,658,949,7613,-8050,1745187385629980039
534688,-68,139,678,1025,7289,-8133,1745187385629980039
534880,15,117,685,1078,6926,-8179,1745187385629980039
535072,67,96,675,1047,6572,-8174,1745187385629980039
535264,93,79,666,1016,6208,-8076,1745187385629980039
535456,94,69,657,980,5930,-7982,1745187385629980039
535648,64,54,639,990,5826,-8104,1745187385629980039
535840,-3,19,600,947,5682,-8154,1745187385629980039
536032,-65,-5,596,954,5771,-7817,1745187385629980039
536224,-87,48,587,1022,5960,-7992,1745187385629980039
536416,-122,79,558,1121,6197,-8331,1745187385629980039
536608,-174,74,527,1259,6390,-8399,1745187385629980039
536800,-212,64,495,1340,6406,-8397,1745187385686193431
536992,-233,44,469,1334,6222,-8312,1745187385686193431
537184,-247,22,449,1223,5948,-8149,1745187385686193431
537376,-267,4,429,1155,5684,-7986,1745187385686193431
537568,-306,-14,399,1107,5444,-7806,1745187385686193431
537760,-369,-27,363,1049,5199,-7582,1745187385686193431
537952,-434,-40,337,925,5014,-7458,1745187385686193431
538144,-495,-52,325,814,4998,-7421,1745187385686193431
538336,-560,-59,314,670,5136,-7403,1745187385686193431
538528,-622,-65,309,540,5401,-7437,1745187385686193431
538720,-665,-59,297,508,5710,-7450,1745187385686193431
538912,-681,-43,273,525,6040,-7464,1745187385686193431
539104,-666,-25,244,613,6331,-7521,1745187385737603222
539296,-629,-9,213,735,6530,-7536,1745187385737603222
539488,-572,-1,185,860,6601,-7499,1745187385737603222
539680,-507,0,159,995,6522,-7442,1745187385737603222
539872,-439,0,137,1028,6310,-7357,1745187385737603222
540064,-369,-5,125,1005,6102,-7305,1745187385737603222
540256,-314,-13,113,992,5988,-7292,1745187385737603222
540448,-284,-19,91,929,5863,-7230,1745187385737603222
540640,-265,-20,63,880,5707,-7170,1745187385737603222
540832,-237,-15,42,813,5562,-7166,1745187385737603222
541024,-198,-2,27,844,5502,-7202,1745187385737603222
541216,-159,23,10,939,5486,-7241,1745187385737603222
541408,-115,58,-7,1011,5431,-7247,1745187385802434297
541600,-88,66,-39,982,5469,-7617,1745187385802434297
541792,-82,31,-68,1252,5322,-7330,1745187385802434297
541984,-68,29,-90,1355,5239,-7346,1745187385802434297
542176,-72,19,-108,1400,5107,-7305,1745187385802434297
542368,-83,1,-111,1395,4885,-7230,1745187385802434297
542560,-96,-15,-105,1379,4730,-7202,1745187385802434297
542752,-121,-31,-99,1353,4668,-7182,1745187385802434297
542944,-163,-49,-96,1335,4697,-6988,1745187385802434297
543136,-204,-55,-92,1336,4755,-6852,1745187385802434297
543328,-237,-62,-90,1358,4828,-6776,1745187385802434297
543520,-260,-67,-95,1362,4918,-6733,1745187385802434297
543712,-268,-66,-99,1419,4979,-6685,1745187385862445311
543904,-262,-55,-106,1511,5006,-6630,1745187385862445311
544096,-246,-38,-121,1623,5047,-6669,1745187385862445311
544288,-229,-22,-142,1742,5149,-6752,1745187385862445311
544480,-213,-14,-158,1859,5210,-6819,1745187385862445311
544672,-196,-18,-162,1928,5186,-6872,1745187385862445311
544864,-169,-30,-160,1948,5039,-6850,1745187385862445311
545056,-132,-41,-162,1902,4897,-6857,1745187385862445311
545248,-99,-46,-171,1820,4759,-6867,1745187385862445311
545440,-78,-44,-182,1734,4659,-6876,1745187385862445311
545632,-66,-36,-192,1680,4536,-6882,1745187385862445311
545824,-60,-24,-202,1627,4468,-6925,1745187385862445311
546016,-55,-10,-208,1622,4452,-6938,1745187385926920503
546208,-54,7,-214,1650,4460,-7002,1745187385926920503
546400,-56,22,-224,1712,4509,-7139,1745187385926920503
546592,-60,33,-233,1808,4547,-7251,1745187385926920503
546784,-68,39,-240,1894,4610,-7334,1745187385926920503
546976,-76,39,-245,1998,4627,-7350,1745187385926920503
547168,-84,34,-244,2068,4601,-7286,1745187385926920503
547360,-90,25,-238,2079,4538,-7161,1745187385926920503
547552,-93,16,-232,2042,4454,-7052,1745187385926920503
547744,-103,0,-225,2009,4391,-6906,1745187385926920503
547936,-117,-11,-226,1960,4275,-6706,1745187385926920503
548128,-132,-13,-226,1888,4082,-6466,1745187385926920503
548320,-139,-10,-223,1814,3910,-6314,1745187385976810308
548512,-149,-7,-224,1724,3864,-6278,1745187385976810308
548704,-172,-1,-226,1654,3914,-6315,1745187385976810308
548896,-201,6,-229,1577,4049,-6384,1745187385976810308
549088,-220,20,-230,1568,4249,-6456,1745187385976810308
549280,-213,43,-231,1679,4511,-6536,1745187385976810308
549472,-183,70,-239,1835,4808,-6671,1745187385976810308
549664,-136,94,-253,2030,5091,-6788,1745187385976810308
549856,-78,104,-263,2190,5301,-6886,1745187385976810308
550048,-18,96,-267,2287,5397,-6970,1745187385976810308
550240,46,75,-260,2291,5400,-7023,1745187385976810308
550432,106,54,-247,2176,5273,-7006,1745187385976810308
550624,163,36,-237,2028,5079,-6995,1745187386035733520
550816,205,27,-234,1819,4888,-6951,1745187386035733520
551008,227,26,-234,1653,4742,-6934,1745187386035733520
551200,232,34,-240,1515,4678,-6990,1745187386035733520
551392,227,51,-249,1453,4700,-7059,1745187386035733520
551584,220,70,-262,1442,4772,-7188,1745187386035733520
551776,211,83,-279,1453,4940,-7311,1745187386035733520
551968,203,86,-295,1498,5100,-7411,1745187386035733520
552160,197,79,-311,1561,5228,-7506,1745187386035733520
552352,201,71,-320,1573,5300,-7656,1745187386035733520
552544,212,63,-325,1592,5299,-7765,1745187386035733520
552736,229,55,-327,1650,5203,-7783,1745187386035733520
552928,250,48,-334,1697,5060,-7765,1745187386095453391
553120,260,35,-346,1689,4917,-7715,1745187386095453391
553312,251,15,-354,1606,4805,-7672,1745187386095453391
553504,226,-10,-354,1486,4731,-7627,1745187386095453391
553696,194,-31,-349,1337,4708,-7580,1745187386095453391
553888,166,-43,-350,1227,4732,-7553,1745187386095453391
554080,141,-46,-359,1145,4829,-7523,1745187386095453391
554272,123,-42,-373,1095,4937,-7540,1745187386095453391
554464,115,-36,-388,1143,5078,-7525,1745187386095453391
554656,114,-31,-404,1215,5213,-7525,1745187386095453391
554848,118,-36,-421,1299,5329,-7495,1745187386095453391
555040,127,-48,-435,1344,5391,-7501,1745187386095453391
555232,142,-65,-444,1367,5447,-7554,1745187386167802105
555424,159,-80,-453,1370,5444,-7566,1745187386167802105
555616,177,-89,-466,1372,5360,-7546,1745187386167802105
555808,196,-96,-480,1348,5224,-7466,1745187386167802105
556000,212,-104,-490,1305,5110,-7423,1745187386167802105
556192,219,-113,-495,1245,4992,-7384,1745187386167802105
556384,217,-122,-502,1191,4937,-7347,1745187386167802105
556576,211,-129,-514,1112,4908,-7297,1745187386167802105
556768,204,-132,-530,1070,4906,-7301,1745187386167802105
556960,200,-127,-549,1039,4936,-7313,1745187386167802105
557152,200,-116,-566,1060,4950,-7289,1745187386167802105
557344,208,-108,-581,1092,4956,-7263,1745187386167802105
557536,217,-106,-590,1122,4940,-7242,1745187386209659587
557728,227,-113,-594,1092,4919,-7275,1745187386209659587
557920,238,-122,-595,1042,4883,-7318,1745187386209659587
558112,249,-126,-597,1015,4764,-7381,1745187386209659587
558304,261,-126,-596,996,4588,-7344,1745187386209659587
558496,273,-123,-593,977,4395,-7254,1745187386209659587
558688,274,-125,-588,946,4255,-7225,1745187386209659587
558880,260,-134,-577,889,4156,-7220,1745187386209659587
559072,240,-147,-555,795,4127,-7234,1745187386209659587
559264,223,-160,-531,683,4147,-7186,1745187386209659587
559456,218,-170,-511,562,4172,-7149,1745187386209659587
559648,221,-168,-497,496,4230,-7148,1745187386209659587
559840,232,-158,-491,457,4292,-7143,1745187386269920651
560032,251,-145,-485,498,4325,-7143,1745187386269920651
560224,267,-139,-477,567,4347,-7131,1745187386269920651
560416,274,-140,-473,679,4390,-7154,1745187386269920651
560608,262,-148,-465,773,4339,-7155,1745187386269920651
560800,245,-160,-446,839,4210,-7130,1745187386269920651
560992,236,-173,-413,874,4014,-7124,1745187386269920651
561184,236,-186,-378,902,3808,-7164,1745187386269920651
561376,236,-200,-351,864,3628,-7182,1745187386269920651
561568,232,-213,-330,834,3494,-7204,1745187386269920651
561760,227,-217,-318,804,3388,-7160,1745187386269920651
561952,219,-210,-313,710,3287,-7365,1745187386269920651
562144,185,-233,-300,724,3241,-7261,1745187386334493707
562336,150,-245,-294,758,3220,-7089,1745187386334493707
562528,120,-245,-294,778,3239,-7036,1745187386334493707
562720,87,-244,-296,790,3260,-7023,1745187386334493707
562912,56,-240,-298,812,3285,-6985,1745187386334493707
563104,33,-233,-300,831,3297,-6963,1745187386334493707
563296,18,-230,-304,847,3287,-6898,1745187386334493707
563488,7,-229,-309,823,3268,-6821,1745187386334493707
563680,-6,-231,-314,775,3234,-6740,1745187386334493707
563872,-22,-233,-316,692,3188,-6686,1745187386334493707
564064,-33,-229,-310,567,3084,-6651,1745187386334493707
564256,-33,-223,-302,506,2991,-6620,1745187386334493707
564448,-23,-211,-295,480,2941,-6562,1745187386385007256
564640,-12,-198,-291,474,2922,-6522,1745187386385007256
564832,-7,-188,-287,486,2953,-6491,1745187386385007256
565024,-3,-178,-278,502,2994,-6459,1745187386385007256
565216,5,-172,-265,514,3044,-6419,1745187386385007256
565408,17,-168,-250,525,3125,-6375,1745187386385007256
565600,32,-160,-237,512,3194,-6320,1745187386385007256
565792,50,-151,-228,502,3254,-6235,1745187386385007256
565984,70,-138,-224,504,3317,-6190,1745187386385007256
566176,88,-125,-224,508,3388,-6155,1745187386385007256
566368,104,-110,-224,473,3437,-6126,1745187386385007256
566560,119,-97,-229,434,3509,-6118,1745187386385007256
566752,134,-84,-238,408,3595,-6138,1745187386445503578
566944,144,-71,-256,379,3685,-6146,1745187386445503578
567136,152,-55,-281,365,3811,-6133,1745187386445503578
567328,160,-30,-312,348,3900,-6148,1745187386445503578
567520,168,-6,-341,328,4006,-6169,1745187386445503578
567712,173,13,-369,363,4110,-6146,1745187386445503578
567904,173,29,-399,346,4181,-6079,1745187386445503578
568096,171,42,-429,366,4240,-6019,1745187386445503578
568288,164,53,-463,361,4332,-6022,1745187386445503578
568480,152,64,-496,398,4427,-6046,1745187386445503578
568672,137,78,-532,459,4541,-6096,1745187386445503578
568864,127,105,-573,556,4633,-5947,1745187386445503578
569056,127,148,-616,582,4738,-6099,1745187386505203294
569248,114,168,-655,623,4870,-6089,1745187386505203294
569440,102,182,-692,661,5024,-6126,1745187386505203294
569632,92,195,-730,690,5163,-6202,1745187386505203294
569824,86,208,-774,712,5312,-6288,1745187386505203294
570016,85,218,-820,716,5470,-6307,1745187386505203294
570208,93,230,-866,661,5623,-6235,1745187386505203294
570400,112,240,-910,586,5799,-6215,1745187386505203294
570592,138,238,-955,499,5958,-6288,1745187386505203294
570784,161,223,-1004,401,6116,-6374,1745187386505203294
570976,187,206,-1061,378,6245,-6463,1745187386505203294
571168,224,204,-1125,361,6263,-6535,1745187386505203294
571360,258,205,-1195,359,6250,-6758,1745187386569114168
571552,275,187,-1269,358,6186,-6786,1745187386569114168
571744,284,191,-1339,403,6149,-6825,1745187386569114168
571936,294,226,-1401,606,5970,-6274,1745187386569114168
572128,332,360,-1466,552,6201,-6780,1745187386569114168
572320,306,421,-1569,601,6196,-7110,1745187386569114168
572512,248,442,-1650,732,6301,-7100,1745187386569114168
572704,176,466,-1735,841,6439,-7009,1745187386569114168
572896,98,489,-1823,880,6620,-6740,1745187386569114168
573088,7,506,-1907,873,6883,-6643,1745187386569114168
573280,-105,512,-1985,850,7273,-6614,1745187386569114168
573472,-223,512,-2061,806,7678,-6602,1745187386569114168
573664,-316,514,-2131,804,8031,-6549,1745187386618629341
573856,-358,529,-2200,849,8325,-6476,1745187386618629341
574048,-347,551,-2277,935,8573,-6393,1745187386618629341
574240,-290,580,-2363,1053,8723,-6312,1745187386618629341
574432,-208,609,-2458,1175,8731,-6243,1745187386618629341
574624,-114,632,-2552,1311,8596,-6170,1745187386618629341
574816,-16,648,-2639,1398,8344,-6061,1745187386618629341
575008,72,658,-2718,1497,8072,-6002,1745187386618629341
575200,139,665,-2790,1580,7810,-5965,1745187386618629341
575392,179,673,-2859,1656,7607,-5895,1745187386618629341
575584,191,683,-2926,1715,7465,-5808,1745187386618629341
575776,181,700,-2997,1762,7338,-5689,1745187386618629341
575968,158,717,-3073,1803,7291,-5530,1745187386679438369
576160,128,736,-3150,1882,7321,-5392,1745187386679438369
576352,91,760,-3231,1961,7462,-5232,1745187386679438369
576544,44,785,-3319,2082,7745,-5058,1745187386679438369
576736,-2,817,-3413,2223,8148,-4876,1745187386679438369
576928,-37,860,-3507,2453,8710,-4681,1745187386679438369
577120,-51,915,-3604,2730,9448,-4393,1745187386679438369
577312,-33,984,-3708,3060,10249,-4082,1745187386679438369
577504,29,1069,-3813,3454,11049,-3668,1745187386679438369
577696,136,1163,-3908,3964,11724,-2995,1745187386679438369
577888,283,1245,-3995,4561,12142,-2152,1745187386679438369
578080,464,1307,-4074,5250,12179,-1318,1745187386679438369
578272,667,1331,-4144,5947,11899,-671,1745187386754912367
578464,872,1312,-4196,6626,11250,-210,1745187386754912367
578656,1068,1241,-4224,6966,10329,135,1745187386754912367
578848,1241,1122,-4234,6684,9275,457,1745187386754912367
579040,1381,985,-4227,9011,8210,267,1745187386754912367
579232,1478,918,-4219,8182,7132,-372,1745187386754912367
579424,1529,746,-4255,8002,6147,-423,1745187386754912367
579616,1569,616,-4318,7737,5410,-765,1745187386754912367
579808,1622,441,-4404,7220,4957,-978,1745187386754912367
580000,1687,310,-4501,6569,4702,-1288,1745187386754912367
580192,1743,185,-4607,5816,4493,-1617,1745187386754912367
580384,1790,104,-4699,5053,4118,-1904,1745187386754912367
580576,1820,42,-4760,4325,3558,-2141,1745187386804184208
580768,1834,20,-4779,3674,2858,-2351,1745187386804184208
580960,1830,23,-4766,3124,2073,-2487,1745187386804184208
581152,1796,47,-4736,2641,1259,-2641,1745187386804184208
581344,1725,97,-4698,2245,534,-2819,1745187386804184208
581536,1606,167,-4663,1950,-97,-3102,1745187386804184208
581728,1456,245,-4645,1695,-642,-3404,1745187386804184208
581920,1298,341,-4645,1733,-925,-3655,1745187386804184208
582112,1137,474,-4692,1695,-1654,-3927,1745187386804184208
582304,968,595,-4652,1272,-1150,-4860,1745187386804184208
582496,733,591,-4640,1235,-1456,-4951,1745187386804184208
582688,564,635,-4633,1433,-1235,-4953,1745187386804184208
582880,457,709,-4616,712,-1006,-5257,1745187386854367135
583072,367,744,-4592,1191,-946,-4898,1745187386854367135
583264,344,834,-4557,1166,-884,-5323,1745187386854367135
583456,323,884,-4503,1164,-844,-5505,1745187386854367135
583648,313,932,-4445,1124,-842,-5753,1745187386854367135
583840,327,985,-4383,1043,-882,-5934,1745187386854367135
584032,357,1056,-4315,983,-929,-5967,1745187386854367135
584224,406,1123,-4236,1005,-983,-6015,1745187386854367135
584416,471,1192,-4147,1092,-918,-6200,1745187386854367135
584608,534,1241,-4049,1194,-712,-6467,1745187386854367135
