timestamp,gyr_x,gyr_y,gyr_z,acc_x,acc_y,acc_z,pkt_time_ns
95775,-143,-42,-33,1488,845,-8735,1745153634323216682
95967,-34,-117,-44,1684,56,-7110,1745153634323216682
96159,-178,-80,-63,1298,561,-8051,1745153634323216682
96351,-144,-91,-52,1207,803,-7739,1745153634323216682
96543,-100,-96,-30,1254,941,-7887,1745153634323216682
96735,-56,-76,-13,1277,877,-8093,1745153634323216682
96927,-36,-107,-7,1307,806,-8136,1745153634323216682
97119,-30,-95,-5,1299,654,-8235,1745153634323216682
97311,-30,-99,0,1203,471,-8296,1745153634323216682
97503,-27,-97,7,1135,361,-8381,1745153634323216682
97695,-25,-81,16,1084,332,-8450,1745153634323216682
97887,-32,-73,26,1025,289,-8500,1745153634323216682
98079,-46,-58,31,979,229,-8539,1745153634383468839
98271,-66,-32,31,890,126,-8532,1745153634383468839
98463,-92,-10,24,881,13,-8529,1745153634383468839
98655,-119,18,17,909,-26,-8564,1745153634383468839
98847,-145,43,10,992,82,-8603,1745153634383468839
99039,-158,54,5,1165,411,-8606,1745153634383468839
99231,-148,47,5,1417,856,-8591,1745153634383468839
99423,-109,25,15,1641,1214,-8568,1745153634383468839
99615,-48,-7,26,1673,1459,-8534,1745153634383468839
99807,20,-18,37,1441,1611,-8421,1745153634383468839
99999,-115,-69,54,1535,-654,-8179,1745153634383468839
100191,-44,38,67,609,2903,-8800,1745153634383468839
100383,283,22,120,727,2043,-7002,1745153634435768414
100575,291,69,123,923,1371,-8581,1745153634435768414
100767,384,121,91,899,735,-8035,1745153634435768414
100959,445,102,76,1120,185,-7201,1745153634435768414
101151,280,41,63,1878,-1136,-7255,1745153634435768414
101343,197,-18,56,1780,-1379,-7583,1745153634435768414
101535,100,-36,73,1674,-1366,-7381,1745153634435768414
101727,-3,-53,81,1446,-1120,-7447,1745153634435768414
101919,-85,-25,69,1245,-644,-7609,1745153634435768414
102111,-139,-25,39,1080,-125,-7704,1745153634435768414
102303,-152,-14,-2,1009,338,-7798,1745153634435768414
102495,-134,2,-44,1023,642,-7848,1745153634435768414
102687,-105,29,-84,1122,808,-7889,1745153634494331837
102879,-70,56,-106,1287,808,-7915,1745153634494331837
103071,-43,69,-111,1481,701,-7949,1745153634494331837
103263,-26,67,-98,1688,561,-7979,1745153634494331837
103455,-18,52,-78,1817,390,-7998,1745153634494331837
103647,-19,24,-61,1901,267,-8003,1745153634494331837
103839,-27,-3,-50,1867,202,-8014,1745153634494331837
104031,-36,-29,-44,1781,159,-8057,1745153634494331837
104223,-48,-51,-43,1641,170,-8058,1745153634494331837
104415,-59,-66,-43,1467,186,-8089,1745153634494331837
104607,-72,-72,-41,1320,182,-8102,1745153634494331837
104799,-90,-71,-42,1218,207,-8043,1745153634494331837
104991,-109,-67,-46,1153,213,-7971,1745153634554688421
105183,-131,-61,-49,1157,230,-7843,1745153634554688421
105375,-156,-56,-53,1179,339,-7715,1745153634554688421
105567,-187,-51,-54,1178,519,-7619,1745153634554688421
105759,-218,-47,-54,1200,714,-7592,1745153634554688421
105951,-234,-48,-54,1214,869,-7628,1745153634554688421
106143,-222,-51,-53,1260,967,-7712,1745153634554688421
106335,-186,-64,-52,1357,997,-7802,1745153634554688421
106527,-134,-92,-54,1527,981,-7869,1745153634554688421
106719,-80,-128,-69,1676,923,-7982,1745153634554688421
106911,-37,-167,-98,1780,787,-8064,1745153634554688421
107103,9,-201,-135,1826,619,-8253,1745153634554688421
107295,48,-231,-178,1842,453,-8526,1745153634611370924
107487,79,-259,-227,1888,362,-8722,1745153634611370924
107679,97,-279,-283,1933,287,-8871,1745153634611370924
107871,96,-309,-342,2000,118,-9037,1745153634611370924
108063,99,-366,-384,2031,-178,-9058,1745153634611370924
108255,126,-418,-391,1978,-432,-8943,1745153634611370924
108447,152,-419,-369,1839,-565,-9149,1745153634611370924
108639,140,-392,-335,1720,-587,-9377,1745153634611370924
108831,84,-360,-311,1629,-550,-9351,1745153634611370924
109023,3,-333,-306,1589,-481,-9257,1745153634611370924
109215,-76,-317,-317,1545,-412,-9146,1745153634611370924
109407,-146,-293,-333,1444,-374,-9101,1745153634611370924
109599,-199,-204,-326,1322,-357,-9359,1745153634708584672
109791,-217,-114,-302,1299,-307,-9630,1745153634708584672
109983,-208,-24,-280,1356,-136,-9933,1745153634708584672
110175,-198,64,-287,1478,-45,-10204,1745153634708584672
110367,-176,137,-303,1653,4,-10079,1745153634708584672
110559,-121,228,-327,1741,70,-10335,1745153634708584672
110751,-54,313,-350,1819,104,-10612,1745153634708584672
110943,16,378,-368,2027,61,-10663,1745153634708584672
111135,71,398,-382,2424,-62,-10370,1745153634708584672
111327,89,367,-395,2913,-304,-9889,1745153634708584672
111519,52,307,-404,3397,-480,-9680,1745153634708584672
111711,-13,215,-399,3804,-476,-9511,1745153634708584672
111903,-75,108,-380,4043,-258,-9758,1745153634799946597
112095,-104,11,-359,4258,13,-10159,1745153634799946597
112287,-96,-93,-321,4374,-16,-10181,1745153634799946597
112479,-69,-271,-268,4419,-640,-9812,1745153634799946597
112671,-21,-529,-219,4395,-1568,-9807,1745153634799946597
112863,29,-739,-222,4253,-2195,-10038,1745153634799946597
113055,7,-835,-265,3958,-2293,-10086,1745153634799946597
113247,-123,-828,-298,3542,-2121,-9945,1745153634799946597
113439,-311,-828,-302,3132,-2005,-9839,1745153634799946597
113631,-464,-849,-273,2893,-1837,-9305,1745153634799946597
113823,-572,-795,-184,3281,-779,-9286,1745153634799946597
114015,-726,-626,119,4578,1,-8288,1745153634799946597
114207,-763,-711,442,5586,-362,-8683,1745153634809469010
114399,-551,-1040,582,6050,-1108,-9197,1745153634809469010
114591,-307,-1354,565,5877,-1990,-9603,1745153634809469010
114783,-179,-1555,544,5302,-2737,-9941,1745153634809469010
114975,-166,-1647,599,4563,-3553,-9817,1745153634809469010
115167,-216,-1687,697,3716,-4331,-9265,1745153634809469010
115359,-251,-1706,786,2908,-4869,-8463,1745153634809469010
115551,-273,-1723,844,2301,-4634,-8412,1745153634809469010
115743,-293,-1668,928,1870,-4407,-8472,1745153634809469010
115935,-312,-1591,961,1581,-4292,-8281,1745153634809469010
116127,-315,-1513,959,1375,-4249,-8104,1745153634809469010
116319,-314,-1423,968,1254,-4250,-7995,1745153634809469010
116511,-349,-1329,1015,1250,-4299,-7830,1745153634844551086
116703,-417,-1237,1104,1382,-4391,-7644,1745153634844551086
116895,-502,-1160,1217,1586,-4379,-7488,1745153634844551086
117087,-584,-1103,1329,1792,-4220,-7367,1745153634844551086
117279,-645,-1053,1429,1893,-3909,-7259,1745153634844551086
117471,-669,-1010,1526,1878,-3499,-7260,1745153634844551086
117663,-654,-958,1645,1765,-3144,-7255,1745153634844551086
117855,-589,-914,1762,1662,-2927,-7020,1745153634844551086
118047,-477,-906,1860,1590,-2825,-6748,1745153634844551086
118239,-328,-916,1940,1472,-2493,-6852,1745153634844551086
118431,-179,-884,2057,1333,-2423,-6743,1745153634844551086
118623,-33,-838,2166,1172,-2418,-6616,1745153634844551086
118815,104,-787,2264,997,-2453,-6509,1745153634912132656
119007,226,-730,2361,817,-2444,-6438,1745153634912132656
119199,330,-671,2476,682,-2376,-6370,1745153634912132656
119391,425,-602,2605,538,-2314,-6288,1745153634912132656
119583,518,-540,2733,532,-2158,-6179,1745153634912132656
119775,622,-479,2867,505,-2023,-6021,1745153634912132656
119967,716,-398,2979,479,-2036,-5895,1745153634912132656
120159,805,-309,3049,408,-1936,-5908,1745153634912132656
120351,889,-220,3114,365,-1829,-5997,1745153634912132656
120543,962,-129,3190,383,-1736,-6007,1745153634912132656
120735,1021,-51,3275,493,-1644,-6020,1745153634912132656
120927,1066,36,3369,612,-1550,-6037,1745153634912132656
121119,1098,102,3461,777,-1458,-6138,1745153634961139812
121311,1115,176,3539,921,-1392,-6259,1745153634961139812
121503,1106,236,3592,1061,-1325,-6316,1745153634961139812
121695,1078,302,3621,1156,-1208,-6387,1745153634961139812
121887,1039,369,3645,1197,-1076,-6450,1745153634961139812
122079,998,428,3676,1235,-965,-6529,1745153634961139812
122271,958,489,3717,1264,-826,-6620,1745153634961139812
122463,924,549,3768,1296,-703,-6726,1745153634961139812
122655,896,611,3820,1358,-580,-6880,1745153634961139812
122847,875,676,3859,1450,-477,-7109,1745153634961139812
123039,862,743,3888,1560,-348,-7212,1745153634961139812
123231,852,811,3911,1749,-126,-7267,1745153634961139812
123423,847,883,3935,1969,103,-7350,1745153635019319125
123615,836,949,3954,2262,329,-7382,1745153635019319125
123807,823,1002,3964,2581,559,-7422,1745153635019319125
123999,814,1037,3975,2935,804,-7495,1745153635019319125
124191,815,1062,3981,3250,1021,-7492,1745153635019319125
124383,822,1082,3974,3477,1264,-7467,1745153635019319125
124575,840,1099,3964,3651,1497,-7497,1745153635019319125
124767,860,1096,3971,3856,1611,-7452,1745153635019319125
124959,879,1070,3976,3992,1613,-7479,1745153635019319125
125151,894,1054,3978,4099,1511,-7506,1745153635019319125
125343,905,1037,3977,4132,1338,-7557,1745153635019319125
125535,909,1029,3964,4102,1220,-7672,1745153635019319125
125727,906,1029,3942,4075,1139,-7775,1745153635085331282
125919,895,1035,3916,4066,1068,-7876,1745153635085331282
126111,881,1051,3891,4137,1008,-7986,1745153635085331282
126303,861,1060,3856,4192,991,-8146,1745153635085331282
126495,834,1093,3825,4277,1071,-8231,1745153635085331282
126687,789,1116,3799,4443,1109,-8380,1745153635085331282
126879,739,1138,3763,4610,1195,-8422,1745153635085331282
127071,685,1154,3734,4805,1237,-8379,1745153635085331282
127263,633,1161,3706,5003,1209,-8336,1745153635085331282
127455,576,1149,3676,5175,1124,-8165,1745153635085331282
127647,510,1126,3642,5280,1056,-8068,1745153635085331282
127839,436,1097,3606,5308,973,-7980,1745153635085331282
128031,356,1069,3565,5260,920,-7913,1745153635136842374
128223,274,1045,3518,5276,961,-7848,1745153635136842374
128415,201,1014,3475,5194,1147,-7737,1745153635136842374
128607,137,1001,3441,5056,1140,-7754,1745153635136842374
128799,74,1002,3375,4959,1267,-7744,1745153635136842374
128991,28,1003,3322,4907,1416,-7703,1745153635136842374
129183,0,1017,3293,4934,1610,-7809,1745153635136842374
129375,-12,1018,3276,5011,1736,-7867,1745153635136842374
129567,-16,1023,3247,5140,1737,-8024,1745153635136842374
129759,-17,1017,3197,5244,1730,-8081,1745153635136842374
129951,-16,1012,3141,5299,1668,-8135,1745153635136842374
130143,-13,1005,3081,5339,1674,-8180,1745153635136842374
130335,-13,1000,3022,5275,1695,-8206,1745153635197062189
130527,-18,994,2960,5215,1760,-8237,1745153635197062189
130719,-20,988,2903,5167,1826,-8215,1745153635197062189
130911,-19,974,2853,5123,1870,-8145,1745153635197062189
131103,-24,957,2808,5100,1862,-8103,1745153635197062189
131295,-34,939,2756,5062,1778,-8114,1745153635197062189
131487,-50,908,2690,5032,1710,-8053,1745153635197062189
131679,-62,879,2621,4938,1731,-7889,1745153635197062189
131871,-71,846,2557,4848,1845,-7813,1745153635197062189
132063,-73,811,2494,4750,1937,-7782,1745153635197062189
132255,-68,773,2425,4618,1988,-7814,1745153635197062189
132447,-61,730,2348,4510,1987,-7873,1745153635197062189
132639,-50,697,2272,4374,1982,-7921,1745153635256974454
132831,-40,667,2197,4249,1948,-7945,1745153635256974454
133023,-29,638,2124,4190,1916,-8031,1745153635256974454
133215,-20,607,2049,4107,1799,-8141,1745153635256974454
133407,-24,567,1974,4023,1664,-8238,1745153635256974454
133599,-37,522,1907,3959,1485,-8330,1745153635256974454
133791,-56,481,1850,3886,1300,-8402,1745153635256974454
133983,-77,437,1800,3850,1175,-8296,1745153635256974454
134175,-96,383,1758,3744,1076,-8151,1745153635256974454
134367,-117,354,1712,3685,953,-7997,1745153635256974454
134559,-146,300,1653,3528,774,-7823,1745153635256974454
134751,-185,275,1578,3313,688,-7685,1745153635256974454
134943,-226,250,1517,3062,707,-7585,1745153635312122335
135135,-261,222,1485,2829,776,-7530,1745153635312122335
135327,-279,206,1462,2569,865,-7511,1745153635312122335
135519,-287,209,1429,2320,868,-7513,1745153635312122335
135711,-289,222,1380,2123,822,-7543,1745153635312122335
135903,-285,247,1329,1994,806,-7545,1745153635312122335
136095,-274,278,1295,1931,824,-7610,1745153635312122335
136287,-258,305,1279,1993,873,-7697,1745153635312122335
136479,-233,337,1260,2086,916,-7778,1745153635312122335
136671,-213,359,1218,2194,856,-8047,1745153635312122335
136863,-193,372,1156,2329,782,-8112,1745153635312122335
137055,-176,383,1099,2417,722,-8136,1745153635312122335
137247,-158,382,1059,2525,684,-8139,1745153635377573040
137439,-135,360,1024,2628,714,-8061,1745153635377573040
137631,-109,331,988,2602,766,-8034,1745153635377573040
137823,-79,298,941,2606,819,-8037,1745153635377573040
138015,-46,266,893,2473,809,-8059,1745153635377573040
138207,-18,244,846,2352,719,-8067,1745153635377573040
138399,6,215,793,2251,562,-8071,1745153635377573040
138591,19,204,745,2112,345,-8030,1745153635377573040
138783,15,189,702,2061,101,-7921,1745153635377573040
138975,8,176,677,2013,-90,-7866,1745153635377573040
139167,-8,167,667,2051,-288,-7823,1745153635377573040
139359,-29,145,655,2097,-419,-7789,1745153635377573040
139551,-59,132,650,2081,-532,-7759,1745153635432162749
139743,-96,114,642,2059,-644,-7715,1745153635432162749
139935,-126,110,624,2022,-644,-7719,1745153635432162749
140127,-155,103,599,2011,-562,-7732,1745153635432162749
140319,-179,105,588,1943,-379,-7766,1745153635432162749
140511,-194,114,593,1908,-200,-7775,1745153635432162749
140703,-196,116,593,1875,-41,-7823,1745153635432162749
140895,-188,127,578,1815,78,-7886,1745153635432162749
141087,-174,145,556,1751,96,-7920,1745153635432162749
141279,-153,166,536,1709,51,-7942,1745153635432162749
141471,-129,187,523,1696,-20,-7988,1745153635432162749
141663,-113,203,509,1719,-77,-7994,1745153635432162749
141855,-106,213,492,1752,-137,-8002,1745153635495177069
142047,-101,217,466,1811,-186,-8005,1745153635495177069
142239,-98,218,431,1878,-210,-7989,1745153635495177069
142431,-101,213,391,1949,-291,-7873,1745153635495177069
142623,-103,198,357,2023,-466,-7686,1745153635495177069
142815,-95,174,334,2102,-628,-7546,1745153635495177069
143007,-80,143,320,2143,-741,-7499,1745153635495177069
143199,-73,108,307,2170,-837,-7519,1745153635495177069
143391,-81,75,290,2174,-860,-7531,1745153635495177069
143583,-96,48,266,2107,-835,-7536,1745153635495177069
143775,-106,29,239,2021,-725,-7532,1745153635495177069
143967,-106,19,222,1892,-595,-7567,1745153635495177069
144159,-98,13,214,1774,-500,-7681,1745153635546778629
144351,-81,18,208,1711,-471,-7806,1745153635546778629
144543,-65,28,199,1675,-407,-7927,1745153635546778629
144735,-49,45,194,1663,-337,-8047,1745153635546778629
144927,-35,61,190,1696,-314,-8124,1745153635546778629
145119,-25,72,181,1729,-293,-8192,1745153635546778629
145311,-16,85,171,1745,-311,-8251,1745153635546778629
145503,-9,94,162,1762,-328,-8294,1745153635546778629
145695,-10,103,150,1762,-374,-8297,1745153635546778629
145887,-9,105,138,1777,-509,-8233,1745153635546778629
146079,-1,106,130,1785,-690,-8120,1745153635546778629
146271,10,103,123,1815,-843,-8036,1745153635546778629
146463,18,95,112,1816,-926,-7979,1745153635605543405
146655,20,89,97,1827,-969,-7917,1745153635605543405
146847,17,78,82,1818,-984,-7842,1745153635605543405
147039,15,64,72,1797,-1066,-7712,1745153635605543405
147231,25,50,66,1763,-1182,-7605,1745153635605543405
147423,46,38,65,1765,-1275,-7597,1745153635605543405
147615,62,29,62,1745,-1345,-7686,1745153635605543405
147807,64,24,56,1743,-1349,-7809,1745153635605543405
147999,52,28,45,1755,-1315,-7900,1745153635605543405
148191,34,38,33,1757,-1236,-7997,1745153635605543405
148383,18,51,24,1762,-1112,-8105,1745153635605543405
148575,4,61,23,1778,-961,-8201,1745153635605543405
148767,-2,69,34,1812,-843,-8301,1745153635666191288
148959,-3,75,46,1880,-762,-8351,1745153635666191288
149151,2,76,53,1960,-734,-8363,1745153635666191288
149343,13,71,55,2008,-725,-8334,1745153635666191288
149535,24,60,50,2053,-810,-8238,1745153635666191288
149727,31,46,42,2048,-986,-8128,1745153635666191288
149919,45,30,34,2015,-1210,-8026,1745153635666191288
150111,67,17,28,1948,-1383,-7966,1745153635666191288
150303,83,10,20,1874,-1460,-7959,1745153635666191288
150495,86,10,6,1785,-1449,-7952,1745153635666191288
150687,80,18,-16,1730,-1431,-7970,1745153635666191288
150879,72,32,-41,1716,-1395,-8001,1745153635666191288
151071,61,44,-60,1737,-1352,-8018,1745153635720244128
151263,47,57,-69,1797,-1337,-8027,1745153635720244128
151455,33,62,-74,1893,-1368,-8007,1745153635720244128
151647,20,62,-81,2014,-1416,-7913,1745153635720244128
151839,14,51,-86,2119,-1491,-7876,1745153635720244128
152031,16,32,-87,2165,-1519,-7882,1745153635720244128
152223,20,11,-90,2180,-1492,-7924,1745153635720244128
152415,17,-12,-98,2144,-1493,-7945,1745153635720244128
152607,14,-31,-106,2069,-1487,-7953,1745153635720244128
152799,19,-46,-113,1963,-1526,-7977,1745153635720244128
152991,27,-57,-112,1855,-1571,-8011,1745153635720244128
153183,28,-60,-107,1764,-1623,-8039,1745153635720244128
153375,23,-55,-96,1680,-1648,-8047,1745153635782673297
153567,15,-44,-84,1635,-1617,-8030,1745153635782673297
153759,3,-28,-74,1644,-1574,-8015,1745153635782673297
153951,-8,-10,-69,1667,-1540,-7984,1745153635782673297
154143,-18,5,-70,1733,-1523,-7947,1745153635782673297
154335,-24,17,-78,1812,-1529,-7911,1745153635782673297
154527,-24,25,-88,1892,-1556,-7902,1745153635782673297
154719,-27,27,-99,1969,-1612,-7839,1745153635782673297
154911,-30,22,-109,2014,-1688,-7785,1745153635782673297
155103,-30,14,-120,2037,-1713,-7798,1745153635782673297
155295,-32,6,-130,2044,-1686,-7803,1745153635782673297
155487,-40,-1,-141,2014,-1578,-7823,1745153635782673297
155679,-45,-6,-151,2001,-1462,-7801,1745153635852308911
155871,-36,-10,-160,1997,-1346,-7807,1745153635852308911
156063,-14,-15,-168,2009,-1256,-7833,1745153635852308911
156255,17,-24,-176,2040,-1227,-7855,1745153635852308911
156447,49,-36,-184,2085,-1275,-7858,1745153635852308911
156639,77,-51,-190,2112,-1379,-7858,1745153635852308911
156831,95,-70,-196,2137,-1517,-7837,1745153635852308911
157023,103,-89,-203,2116,-1642,-7798,1745153635852308911
157215,103,-106,-211,2070,-1747,-7769,1745153635852308911
157407,95,-122,-218,1977,-1811,-7724,1745153635852308911
157599,86,-129,-224,1891,-1811,-7708,1745153635852308911
157791,77,-129,-231,1801,-1767,-7726,1745153635852308911
157983,67,-119,-233,1735,-1656,-7758,1745153635907950851
158175,62,-109,-233,1716,-1622,-7734,1745153635907950851
158367,65,-96,-232,1749,-1622,-7753,1745153635907950851
158559,69,-83,-231,1807,-1662,-7809,1745153635907950851
158751,67,-76,-229,1868,-1700,-7840,1745153635907950851
158943,65,-75,-225,1921,-1752,-7832,1745153635907950851
159135,67,-80,-220,1961,-1766,-7801,1745153635907950851
159327,70,-87,-215,1962,-1826,-7748,1745153635907950851
159519,72,-97,-212,1954,-1904,-7612,1745153635907950851
159711,83,-111,-204,1892,-2024,-7508,1745153635907950851
159903,102,-123,-196,1819,-2094,-7495,1745153635907950851
160095,111,-126,-187,1739,-2141,-7526,1745153635907950851
160287,104,-119,-181,1674,-2161,-7553,1745153635956874727
160479,91,-106,-173,1598,-2177,-7588,1745153635956874727
160671,79,-87,-161,1582,-2142,-7634,1745153635956874727
160863,67,-66,-144,1579,-2085,-7668,1745153635956874727
161055,50,-46,-124,1604,-2049,-7701,1745153635956874727
161247,34,-29,-105,1673,-2005,-7751,1745153635956874727
161439,24,-13,-90,1742,-1959,-7762,1745153635956874727
161631,18,-1,-82,1789,-1922,-7728,1745153635956874727
161823,12,6,-79,1846,-1924,-7639,1745153635956874727
162015,13,4,-74,1894,-1945,-7560,1745153635956874727
162207,19,2,-68,1882,-1941,-7544,1745153635956874727
162399,27,-1,-64,1869,-1885,-7562,1745153635956874727
162591,30,-1,-64,1824,-1799,-7567,1745153636034539642
162783,32,5,-69,1763,-1742,-7606,1745153636034539642
162975,39,15,-76,1737,-1692,-7671,1745153636034539642
163167,50,23,-79,1744,-1719,-7694,1745153636034539642
163359,66,29,-76,1785,-1818,-7672,1745153636034539642
163551,82,29,-70,1828,-1950,-7685,1745153636034539642
163743,89,27,-63,1886,-2013,-7728,1745153636034539642
163935,80,25,-57,1920,-2024,-7768,1745153636034539642
164127,65,23,-56,1933,-1976,-7764,1745153636034539642
164319,52,21,-60,1938,-1929,-7723,1745153636034539642
164511,49,18,-65,1930,-1906,-7692,1745153636034539642
164703,51,17,-69,1923,-1889,-7660,1745153636034539642
164895,49,16,-71,1913,-1955,-7674,1745153636137693804
165087,45,15,-71,1887,-1996,-7695,1745153636137693804
165279,42,14,-69,1899,-2060,-7735,1745153636137693804
165471,35,13,-64,1903,-2055,-7757,1745153636137693804
165663,23,12,-59,1873,-1952,-7781,1745153636137693804
165855,10,10,-59,1862,-1787,-7793,1745153636137693804
166047,5,9,-66,1833,-1661,-7776,1745153636137693804
166239,16,8,-75,1783,-1564,-7756,1745153636137693804
166431,45,10,-85,1769,-1525,-7757,1745153636137693804
166623,84,12,-93,1761,-1552,-7806,1745153636137693804
166815,121,13,-100,1794,-1601,-7869,1745153636137693804
167007,150,12,-106,1818,-1719,-7901,1745153636137693804
167199,171,9,-108,1836,-1853,-7874,1745153636151068370
167391,185,3,-106,1884,-2005,-7811,1745153636151068370
167583,193,-5,-102,1919,-2096,-7781,1745153636151068370
167775,190,-13,-100,1945,-2146,-7743,1745153636151068370
167967,178,-23,-101,1935,-2143,-7708,1745153636151068370
168159,162,-29,-101,1916,-2089,-7679,1745153636151068370
168351,146,-32,-99,1901,-2002,-7688,1745153636151068370
168543,131,-32,-96,1902,-1944,-7697,1745153636151068370
168735,117,-31,-95,1916,-1915,-7684,1745153636151068370
168927,104,-30,-96,1951,-1910,-7696,1745153636151068370
169119,93,-32,-94,1968,-1913,-7715,1745153636151068370
169311,87,-36,-91,1983,-1913,-7733,1745153636151068370
169503,84,-41,-88,1960,-1844,-7785,1745153636215855694
169887,77,-54,-93,1886,-1678,-7835,1745153636215855694
170079,76,-56,-100,1837,-1613,-7831,1745153636215855694
170271,80,-54,-108,1784,-1590,-7837,1745153636215855694
170463,88,-47,-113,1758,-1576,-7867,1745153636215855694
170655,93,-38,-117,1760,-1558,-7872,1745153636215855694
170847,92,-27,-119,1772,-1585,-7898,1745153636215855694
171039,82,-18,-121,1818,-1589,-7935,1745153636215855694
171231,64,-12,-125,1867,-1568,-7934,1745153636215855694
171423,40,-9,-135,1951,-1507,-7911,1745153636215855694
171615,16,-7,-145,2005,-1418,-7894,1745153636215855694
171807,-6,-9,-158,2047,-1320,-7872,1745153636215855694
171999,-25,-16,-174,2108,-1204,-7869,1745153636255344657
172191,-35,-22,-192,2111,-1084,-7905,1745153636255344657
172383,-34,-31,-214,2139,-938,-7925,1745153636255344657
172575,-22,-43,-238,2147,-836,-7978,1745153636255344657
172767,-6,-59,-268,2153,-768,-8006,1745153636255344657
172959,9,-75,-298,2152,-703,-8027,1745153636255344657
173151,21,-89,-327,2155,-643,-8065,1745153636255344657
173343,29,-102,-356,2160,-621,-8094,1745153636255344657
173535,33,-114,-386,2186,-568,-8129,1745153636255344657
173727,33,-122,-421,2194,-522,-8148,1745153636255344657
173919,27,-130,-458,2224,-461,-8183,1745153636255344657
174111,17,-138,-496,2286,-376,-8220,1745153636255344657
174303,0,-143,-536,2347,-239,-8299,1745153636378877278
174495,-22,-147,-578,2415,-60,-8461,1745153636378877278
174687,-49,-146,-624,2523,161,-8696,1745153636378877278
174879,-83,-141,-675,2642,403,-8949,1745153636378877278
175071,-127,-136,-731,2829,668,-9154,1745153636378877278
175263,-182,-138,-794,3015,890,-9247,1745153636378877278
175455,-246,-147,-865,3245,1082,-9218,1745153636378877278
175647,-313,-164,-949,3437,1246,-9161,1745153636378877278
175839,-375,-185,-1057,3649,1323,-9015,1745153636378877278
176031,-420,-205,-1194,3884,1361,-8798,1745153636378877278
176223,-447,-230,-1372,4131,1312,-8600,1745153636378877278
176415,-468,-268,-1582,4311,1144,-8425,1745153636378877278
176607,-491,-332,-1792,4406,883,-8305,1745153636391323519
176799,-522,-415,-1961,4459,637,-8219,1745153636391323519
176991,-558,-497,-2087,4436,618,-8081,1745153636391323519
177183,-602,-562,-2198,4377,823,-8006,1745153636391323519
177375,-654,-618,-2320,4253,1180,-7949,1745153636391323519
177567,-693,-657,-2453,4096,1673,-7820,1745153636391323519
177759,-702,-675,-2582,3930,2200,-7599,1745153636391323519
177951,-675,-678,-2692,3803,2708,-7480,1745153636391323519
178143,-614,-672,-2782,3734,3122,-7487,1745153636391323519
178335,-534,-668,-2859,3756,3397,-7540,1745153636391323519
178527,-445,-664,-2925,3873,3535,-7564,1745153636391323519
178719,-354,-664,-2983,4025,3566,-7645,1745153636391323519
178911,-260,-666,-3036,4184,3598,-7772,1745153636433505269
179103,-161,-669,-3086,4372,3618,-7918,1745153636433505269
179295,-64,-691,-3133,4565,3614,-7830,1745153636433505269
179487,48,-722,-3177,4733,3657,-7787,1745153636433505269
179679,162,-761,-3223,4856,3665,-7800,1745153636433505269
179871,279,-815,-3267,4975,3657,-7754,1745153636433505269
180063,387,-869,-3312,4998,3561,-7729,1745153636433505269
180255,474,-939,-3348,4990,3317,-7715,1745153636433505269
180447,547,-1012,-3365,4925,3034,-7709,1745153636433505269
180639,598,-1077,-3369,4788,2720,-7703,1745153636433505269
180831,625,-1134,-3369,4610,2398,-7637,1745153636433505269
181023,632,-1182,-3372,4358,2129,-7658,1745153636433505269
181215,623,-1213,-3382,4071,1917,-7706,1745153636489357727
181407,602,-1228,-3396,3789,1758,-7712,1745153636489357727
181599,572,-1230,-3408,3513,1648,-7738,1745153636489357727
181791,538,-1224,-3419,3250,1536,-7772,1745153636489357727
181983,506,-1207,-3428,3027,1436,-7774,1745153636489357727
182175,471,-1189,-3432,2885,1359,-7810,1745153636489357727
182367,440,-1170,-3430,2794,1266,-7719,1745153636489357727
182559,411,-1150,-3424,2720,1166,-7619,1745153636489357727
182751,388,-1129,-3416,2665,1078,-7545,1745153636489357727
182943,376,-1108,-3409,2607,986,-7495,1745153636489357727
183135,374,-1088,-3403,2549,897,-7467,1745153636489357727
183327,380,-1071,-3401,2499,790,-7441,1745153636489357727
183519,390,-1059,-3396,2430,649,-7404,1745153636555926129
183711,403,-1045,-3391,2348,493,-7397,1745153636555926129
183903,418,-1030,-3385,2235,365,-7425,1745153636555926129
184095,431,-1006,-3378,2147,270,-7448,1745153636555926129
184287,437,-978,-3369,2062,178,-7422,1745153636555926129
184479,436,-951,-3352,1999,32,-7397,1745153636555926129
184671,439,-925,-3334,1939,-135,-7373,1745153636555926129
184863,446,-902,-3317,1897,-317,-7425,1745153636555926129
185055,456,-877,-3299,1843,-434,-7468,1745153636555926129
185247,462,-851,-3281,1795,-563,-7518,1745153636555926129
185439,462,-824,-3263,1758,-698,-7558,1745153636555926129
185631,455,-800,-3243,1749,-811,-7558,1745153636555926129
185823,440,-778,-3224,1779,-959,-7517,1745153636630431334
186015,414,-757,-3205,1795,-1103,-7418,1745153636630431334
186207,378,-744,-3187,1808,-1243,-7334,1745153636630431334
186399,340,-736,-3161,1779,-1360,-7266,1745153636630431334
186591,304,-732,-3129,1737,-1479,-7141,1745153636630431334
186783,269,-729,-3097,1646,-1604,-7032,1745153636630431334
186975,240,-722,-3067,1518,-1699,-6988,1745153636630431334
187167,217,-708,-3037,1392,-1770,-6945,1745153636630431334
187359,197,-681,-3008,1309,-1803,-6908,1745153636630431334
187551,174,-639,-2984,1253,-1785,-6954,1745153636630431334
187743,148,-589,-2968,1231,-1772,-7016,1745153636630431334
187935,124,-542,-2947,1276,-1792,-6988,1745153636630431334
188127,101,-502,-2921,1411,-1855,-6975,1745153636661159491
188319,75,-477,-2891,1549,-1967,-6990,1745153636661159491
188511,51,-461,-2855,1672,-2138,-6974,1745153636661159491
188703,29,-453,-2824,1773,-2278,-6934,1745153636661159491
188895,5,-452,-2804,1830,-2444,-6907,1745153636661159491
189087,-28,-456,-2802,1866,-2622,-6901,1745153636661159491
189279,-68,-469,-2805,1824,-2804,-6890,1745153636661159491
189471,-110,-475,-2808,1736,-2884,-6955,1745153636661159491
189663,-161,-475,-2804,1572,-2911,-7068,1745153636661159491
189855,-218,-470,-2784,1400,-2894,-7249,1745153636661159491
190047,-269,-500,-2753,1167,-2742,-7336,1745153636661159491
190239,-309,-457,-2719,960,-2475,-7390,1745153636661159491
190431,-348,-420,-2689,825,-2141,-7369,1745153636724925002
190623,-378,-376,-2662,723,-1819,-7312,1745153636724925002
190815,-395,-321,-2639,727,-1498,-7318,1745153636724925002
191007,-399,-270,-2617,789,-1180,-7211,1745153636724925002
191199,-393,-213,-2598,913,-884,-7158,1745153636724925002
191391,-377,-166,-2571,1028,-578,-7252,1745153636724925002
191583,-342,-123,-2533,1163,-323,-7344,1745153636724925002
191775,-290,-89,-2484,1317,-143,-7388,1745153636724925002
191967,-225,-66,-2426,1495,-103,-7362,1745153636724925002
192159,-151,-55,-2361,1729,-183,-7390,1745153636724925002
192351,-74,-57,-2294,1906,-373,-7501,1745153636724925002
192543,1,-76,-2234,2026,-636,-7672,1745153636724925002
192735,69,-96,-2184,2039,-889,-7853,1745153636784091962
192927,123,-115,-2143,2015,-1102,-7989,1745153636784091962
193119,155,-135,-2112,1935,-1315,-8055,1745153636784091962
193311,170,-154,-2087,1828,-1535,-8050,1745153636784091962
193503,175,-167,-2066,1675,-1732,-8038,1745153636784091962
193695,174,-178,-2038,1539,-1859,-8047,1745153636784091962
193887,165,-186,-2002,1366,-1901,-8053,1745153636784091962
194079,148,-190,-1961,1254,-1892,-8015,1745153636784091962
194271,126,-192,-1919,1171,-1891,-7933,1745153636784091962
194463,99,-193,-1878,1172,-1890,-7744,1745153636784091962
194655,77,-193,-1841,1138,-1891,-7661,1745153636784091962
194847,47,-167,-1799,1122,-1920,-7702,1745153636784091962
195039,9,-152,-1753,1121,-1974,-7812,1745153636839679423
195231,-29,-139,-1695,1132,-1986,-7905,1745153636839679423
195423,-64,-128,-1631,1137,-1955,-7928,1745153636839679423
195615,-94,-109,-1575,1119,-1873,-7986,1745153636839679423
195807,-123,-88,-1527,1121,-1775,-8052,1745153636839679423
195999,-146,-68,-1480,1121,-1727,-8057,1745153636839679423
196191,-155,-53,-1428,1106,-1713,-8041,1745153636839679423
196383,-152,-40,-1373,1128,-1722,-8081,1745153636839679423
196575,-140,-28,-1318,1107,-1721,-8185,1745153636839679423
196767,-123,-14,-1269,1071,-1746,-8217,1745153636839679423
196959,-100,-4,-1229,1037,-1809,-8271,1745153636839679423
197151,-73,5,-1195,1001,-1849,-8336,1745153636839679423
197343,-40,16,-1156,957,-1861,-8365,1745153636900129443
197535,-6,30,-1115,913,-1814,-8366,1745153636900129443
197727,33,55,-1068,877,-1665,-8325,1745153636900129443
197919,72,82,-1016,907,-1519,-8238,1745153636900129443
198111,112,110,-966,979,-1385,-8164,1745153636900129443
198303,152,134,-922,1066,-1276,-8196,1745153636900129443
198495,191,153,-882,1173,-1200,-8237,1745153636900129443
198687,218,163,-842,1260,-1165,-8263,1745153636900129443
198879,230,167,-797,1360,-1209,-8264,1745153636900129443
199071,227,166,-748,1416,-1317,-8285,1745153636900129443
199263,216,165,-696,1446,-1439,-8307,1745153636900129443
199455,200,162,-645,1438,-1572,-8332,1745153636900129443
199647,184,161,-597,1395,-1678,-8311,1745153636967901637
199839,168,164,-555,1347,-1786,-8237,1745153636967901637
200031,151,171,-516,1284,-1884,-8150,1745153636967901637
200223,133,176,-483,1243,-1991,-8019,1745153636967901637
200415,117,182,-455,1216,-2085,-7856,1745153636967901637
200607,97,188,-434,1163,-2180,-7759,1745153636967901637
200799,75,195,-417,1137,-2228,-7691,1745153636967901637
200991,53,204,-404,1086,-2253,-7587,1745153636967901637
201183,34,212,-387,1062,-2278,-7525,1745153636967901637
201375,17,214,-361,1036,-2266,-7495,1745153636967901637
201567,10,221,-319,971,-2256,-7471,1745153636967901637
201759,11,242,-279,960,-2200,-7474,1745153636967901637
201951,14,273,-256,967,-2169,-7569,1745153637035013732
202143,14,312,-244,960,-2131,-7696,1745153637035013732
202335,14,357,-235,963,-2054,-7798,1745153637035013732
202527,14,404,-220,1030,-1932,-7851,1745153637035013732
202719,14,450,-197,1141,-1805,-7952,1745153637035013732
202911,18,496,-172,1263,-1683,-8041,1745153637035013732
203103,25,532,-150,1389,-1586,-8088,1745153637035013732
203295,36,564,-135,1516,-1525,-8180,1745153637035013732
203487,49,594,-124,1630,-1517,-8274,1745153637035013732
203679,53,620,-121,1748,-1550,-8312,1745153637035013732
203871,43,637,-117,1855,-1639,-8286,1745153637035013732
204063,27,643,-99,1961,-1715,-8229,1745153637035013732
204255,4,636,-67,2038,-1826,-8107,1745153637075699246
204447,-20,620,-29,2108,-1917,-7885,1745153637075699246
204639,-45,599,2,2156,-2012,-7702,1745153637075699246
204831,-71,578,17,2164,-2103,-7554,1745153637075699246
205023,-95,559,18,2139,-2130,-7419,1745153637075699246
205215,-114,533,12,2119,-2180,-7253,1745153637075699246
205407,-132,507,6,2071,-2163,-7109,1745153637075699246
205599,-147,486,-2,2029,-2103,-7073,1745153637075699246
205791,-163,475,-8,1973,-1983,-7106,1745153637075699246
205983,-173,478,-21,1906,-1893,-7189,1745153637075699246
206175,-181,485,-40,1864,-1687,-7288,1745153637075699246
206367,-181,494,-44,1852,-1479,-7357,1745153637075699246
206559,-170,505,-38,1869,-1285,-7434,1745153637144287786
206751,-145,515,-29,1887,-1104,-7556,1745153637144287786
206943,-109,533,-18,1917,-937,-7718,1745153637144287786
207135,-67,552,-3,1996,-793,-7884,1745153637144287786
207327,-18,574,14,2095,-713,-8014,1745153637144287786
207519,33,595,38,2250,-660,-8052,1745153637144287786
207711,77,608,66,2403,-737,-8086,1745153637144287786
207903,106,616,90,2543,-880,-8090,1745153637144287786
208095,118,611,110,2674,-1048,-8069,1745153637144287786
208287,120,600,126,2751,-1271,-8069,1745153637144287786
208479,113,582,140,2786,-1480,-7999,1745153637144287786
208671,101,555,144,2796,-1673,-7919,1745153637144287786
208863,82,527,142,2734,-1799,-7794,1745153637191048453
209055,55,502,142,2659,-1865,-7643,1745153637191048453
209247,19,478,139,2558,-1856,-7535,1745153637191048453
209439,-18,462,137,2413,-1749,-7427,1745153637191048453
209631,-59,446,143,2280,-1636,-7307,1745153637191048453
209823,-91,434,150,2269,-1624,-7222,1745153637191048453
210015,-116,423,154,2299,-1644,-7150,1745153637191048453
210207,-138,408,154,2373,-1712,-7112,1745153637191048453
210399,-161,385,159,2483,-1798,-7262,1745153637191048453
210591,-191,350,175,2636,-1934,-7616,1745153637191048453
210783,-230,300,203,2816,-2005,-8058,1745153637191048453
210975,-275,240,235,2997,-1950,-8487,1745153637191048453
211167,-315,177,256,3136,-1831,-8755,1745153637353962746
211359,-336,108,255,3265,-1594,-8897,1745153637353962746
211551,-323,37,235,3349,-1291,-9016,1745153637353962746
211743,-273,-30,207,3377,-1003,-9034,1745153637353962746
211935,-199,-95,172,3375,-709,-9032,1745153637353962746
212127,-122,-156,136,3304,-482,-9076,1745153637353962746
212319,-68,-212,100,3214,-382,-9052,1745153637353962746
212511,-41,-259,72,3037,-387,-9014,1745153637353962746
212703,-44,-290,57,2819,-508,-8954,1745153637353962746
212895,-76,-305,56,2611,-685,-8832,1745153637353962746
213087,-131,-304,67,2355,-842,-8681,1745153637353962746
213279,-199,-283,87,2126,-970,-8487,1745153637353962746
213471,-272,-249,109,1926,-1000,-8245,1745153637399556444
213663,-337,-205,129,1770,-982,-8044,1745153637399556444
213855,-387,-160,136,1649,-866,-7902,1745153637399556444
214047,-411,-116,127,1578,-697,-7760,1745153637399556444
214239,-410,-75,104,1561,-464,-7648,1745153637399556444
214431,-391,-40,71,1613,-220,-7581,1745153637399556444
214623,-358,-15,39,1676,22,-7538,1745153637399556444
214815,-317,0,11,1749,162,-7567,1745153637399556444
215007,-268,4,-9,1850,243,-7655,1745153637399556444
215199,-216,-5,-21,1935,245,-7732,1745153637399556444
215391,-165,-23,-28,2030,191,-7807,1745153637399556444
215583,-117,-50,-32,2065,93,-7858,1745153637399556444
215775,-72,-82,-35,2085,-53,-7898,1745153637408323655
215967,-33,-112,-35,2088,-205,-7935,1745153637408323655
216159,-5,-138,-31,2053,-354,-7973,1745153637408323655
216351,12,-157,-28,1952,-477,-8016,1745153637408323655
216543,22,-166,-28,1809,-529,-8072,1745153637408323655
216735,22,-167,-33,1671,-591,-8167,1745153637408323655
216927,16,-161,-39,1514,-600,-8284,1745153637408323655
217119,3,-151,-41,1404,-577,-8391,1745153637408323655
217311,-11,-141,-37,1310,-514,-8465,1745153637408323655
217503,-21,-130,-29,1262,-371,-8524,1745153637408323655
217695,-26,-118,-19,1272,-245,-8566,1745153637408323655
217887,-32,-104,-19,1272,-100,-8600,1745153637408323655
218079,-38,-88,-31,1315,66,-8661,1745153637421569524
218271,-39,-77,-46,1352,213,-8693,1745153637421569524
218463,-37,-69,-59,1360,313,-8713,1745153637421569524
218655,-31,-62,-63,1353,390,-8694,1745153637421569524
218847,-24,-56,-52,1329,438,-8619,1745153637421569524
219039,-16,-49,-31,1333,422,-8595,1745153637421569524
219231,-8,-49,-5,1332,372,-8595,1745153637421569524
219423,-1,-49,17,1336,351,-8573,1745153637421569524
219615,10,-49,31,1327,303,-8520,1745153637421569524
219807,21,-46,39,1308,202,-8454,1745153637421569524
219999,30,-38,44,1285,104,-8431,1745153637421569524
220191,35,-28,48,1251,-30,-8411,1745153637421569524
220383,35,-25,56,1232,-169,-8347,1745153637484930456
220575,31,-23,69,1226,-327,-8321,1745153637484930456
220767,26,-19,89,1226,-465,-8295,1745153637484930456
220959,22,-17,107,1234,-568,-8223,1745153637484930456
221151,19,-16,119,1249,-654,-8156,1745153637484930456
221343,20,-13,123,1261,-679,-8114,1745153637484930456
221535,22,-10,117,1293,-682,-8063,1745153637484930456
221727,24,-6,105,1307,-671,-8006,1745153637484930456
221919,28,-4,88,1362,-655,-7928,1745153637484930456
222111,32,-4,68,1410,-647,-7858,1745153637484930456
222303,34,-2,49,1440,-598,-7856,1745153637484930456
222495,34,-2,35,1463,-571,-7881,1745153637484930456
222687,30,-4,26,1491,-546,-7908,1745153637603718797
222879,27,-8,23,1538,-512,-7904,1745153637603718797
223071,26,-12,23,1559,-503,-7891,1745153637603718797
223263,25,-15,21,1578,-452,-7886,1745153637603718797
223455,22,-16,19,1578,-399,-7895,1745153637603718797
223647,17,-14,12,1598,-338,-7871,1745153637603718797
223839,14,-6,7,1604,-287,-7847,1745153637603718797
224031,14,-26,2,1589,-236,-7830,1745153637603718797
224223,21,-22,-2,1578,-208,-7829,1745153637603718797
224415,28,-8,-5,1587,-191,-7885,1745153637603718797
224607,34,-10,-7,1581,-220,-7929,1745153637603718797
224799,37,-11,-9,1592,-272,-7995,1745153637603718797
224991,39,-18,-9,1601,-338,-8055,1745153637614724739
225183,40,-25,-6,1614,-383,-8150,1745153637614724739
225375,41,-31,-2,1584,-459,-8234,1745153637614724739
225567,37,-35,-2,1544,-528,-8262,1745153637614724739
225759,28,-35,0,1502,-566,-8291,1745153637614724739
225951,16,-34,2,1446,-599,-8277,1745153637614724739
226143,7,-30,6,1415,-610,-8266,1745153637614724739
226335,0,-25,13,1386,-569,-8227,1745153637614724739
226527,-7,-21,14,1362,-496,-8216,1745153637614724739
226719,-14,-17,13,1343,-422,-8164,1745153637614724739
226911,-23,-13,10,1321,-343,-8097,1745153637614724739
227103,-29,-10,6,1303,-288,-8053,1745153637614724739
227295,-33,-7,5,1280,-229,-8027,1745153637666762649
227487,-33,-6,8,1270,-188,-7992,1745153637666762649
227679,-29,-1,12,1263,-160,-7960,1745153637666762649
227871,-20,1,17,1286,-151,-7953,1745153637666762649
228063,-10,3,19,1293,-173,-7918,1745153637666762649
228255,-3,4,19,1331,-206,-7885,1745153637666762649
228447,2,1,18,1359,-258,-7893,1745153637666762649
228639,2,0,16,1365,-327,-7878,1745153637666762649
228831,1,-5,14,1361,-379,-7850,1745153637666762649
229023,2,-9,15,1348,-398,-7854,1745153637666762649
229215,6,-11,16,1329,-425,-7877,1745153637666762649
229407,12,-14,15,1300,-429,-7909,1745153637666762649
229599,16,-17,12,1275,-428,-7940,1745153637715416163
229791,19,-17,8,1265,-427,-7978,1745153637715416163
229983,20,-16,5,1236,-440,-8037,1745153637715416163
230175,20,-12,3,1225,-447,-8098,1745153637715416163
230367,18,-6,1,1240,-436,-8162,1745153637715416163
230559,16,-1,0,1273,-454,-8194,1745153637715416163
230751,12,3,-2,1279,-456,-8256,1745153637715416163
230943,7,5,-6,1297,-450,-8259,1745153637715416163
231135,0,7,-7,1298,-439,-8240,1745153637715416163
231327,-8,9,-7,1317,-434,-8214,1745153637715416163
231519,-16,12,-2,1303,-424,-8181,1745153637715416163
231711,-22,16,4,1333,-393,-8125,1745153637715416163
231903,-25,18,8,1355,-365,-8076,1745153637858068245
232095,-26,18,8,1385,-331,-8036,1745153637858068245
232287,-28,18,4,1400,-322,-7986,1745153637858068245
232479,-30,17,-2,1408,-330,-7959,1745153637858068245
232671,-32,18,-7,1390,-327,-7930,1745153637858068245
232863,-31,16,-6,1391,-315,-7906,1745153637858068245
233055,-58,-40,-7,2009,-245,-7070,1745153637858068245
233247,-333,-173,-49,2141,-1537,-7328,1745153637858068245
233439,-572,-303,-272,1801,-2307,-7464,1745153637858068245
233631,-304,-283,-242,1444,-1376,-8651,1745153637858068245
233823,-319,-121,-79,1492,-577,-7590,1745153637858068245
234015,-245,-143,-44,1251,704,-7399,1745153637858068245
234207,-130,-136,-16,1106,1458,-7510,1745153637868968666
234399,-24,-143,-34,1121,1357,-7650,1745153637868968666
234591,45,-144,-80,1237,689,-7758,1745153637868968666
234783,83,-159,-118,1366,-88,-7880,1745153637868968666
234975,94,-176,-121,1435,-703,-7967,1745153637868968666
235167,78,-183,-90,1428,-1002,-8058,1745153637868968666
235359,38,-184,-50,1340,-950,-8069,1745153637868968666
235551,-4,-186,-18,1265,-608,-8069,1745153637868968666
235743,-34,-189,-2,1231,-274,-8056,1745153637868968666
235935,-47,-195,-9,1229,-101,-8047,1745153637868968666
236127,-50,-195,-31,1194,-115,-8085,1745153637868968666
236319,-51,-184,-54,1134,-206,-8099,1745153637868968666
273183,-123,34,-24,1475,647,-8151,1745153638826526429
273375,-62,-2,-27,1119,-491,-7628,1745153638826526429
273567,-145,7,-58,1125,-270,-8127,1745153638826526429
273759,-92,-21,-51,1110,338,-7758,1745153638826526429
273951,-65,-1,-4,1059,453,-7765,1745153638826526429
274143,-18,-16,10,1047,333,-7976,1745153638826526429
274335,-5,-31,-2,1126,316,-7884,1745153638826526429
274527,5,-25,-7,1160,249,-7912,1745153638826526429
274719,29,-49,-2,1144,158,-7954,1745153638826526429
274911,43,-50,8,1155,162,-7966,1745153638826526429
275103,60,-62,18,1158,193,-8016,1745153638826526429
275295,69,-83,22,1178,181,-8061,1745153638826526429
275487,64,-92,18,1139,66,-8113,1745153638884213506
275679,68,-97,13,1008,35,-8126,1745153638884213506
275871,71,-96,11,939,-83,-8169,1745153638884213506
276063,67,-87,11,903,-232,-8212,1745153638884213506
276255,58,-81,13,885,-295,-8255,1745153638884213506
276447,45,-73,16,874,-303,-8278,1745153638884213506
276639,34,-63,21,864,-300,-8298,1745153638884213506
276831,24,-48,23,861,-326,-8348,1745153638884213506
277023,10,-28,20,835,-339,-8419,1745153638884213506
277215,-4,1,13,735,-364,-8479,1745153638884213506
277407,-17,35,5,656,-315,-8544,1745153638884213506
277599,-23,75,2,668,-208,-8606,1745153638884213506
277791,-22,108,7,787,5,-8641,1745153638940726636
277983,-11,130,16,988,210,-8768,1745153638940726636
278175,-1,147,23,1075,293,-8871,1745153638940726636
278367,4,162,29,1117,312,-8901,1745153638940726636
278559,19,176,39,1180,399,-8887,1745153638940726636
278751,44,175,45,1376,350,-8900,1745153638940726636
278943,53,164,45,1479,132,-8921,1745153638940726636
279135,57,155,46,1511,-7,-8955,1745153638940726636
279327,9,130,46,1254,-1608,-8994,1745153638940726636
279519,222,169,19,1870,1020,-8985,1745153638940726636
279711,480,174,82,1380,798,-8089,1745153638940726636
279903,429,209,101,1495,-54,-8647,1745153638940726636
280095,606,217,61,1409,-148,-9077,1745153638999446464
280287,345,128,6,1623,-68,-8312,1745153638999446464
280479,210,37,-4,1473,-261,-9123,1745153638999446464
280671,-461,-40,41,2904,-6320,-8408,1745153638999446464
280863,-571,-99,-162,2505,-5119,-8838,1745153638999446464
281055,-764,-140,-170,1969,-3871,-8521,1745153638999446464
281247,-918,-149,-97,1590,-2347,-8319,1745153638999446464
281439,-944,-93,-63,1368,-695,-8409,1745153638999446464
281631,-924,-24,-104,1192,737,-8471,1745153638999446464
281823,-868,18,-204,1148,1570,-8470,1745153638999446464
282015,-753,60,-304,1206,1937,-8384,1745153638999446464
282207,-595,93,-367,1398,1828,-8356,1745153638999446464
282399,-441,103,-380,1686,1405,-8371,1745153639059823308
282591,-320,114,-352,1953,846,-8456,1745153639059823308
282783,-255,110,-306,2283,361,-8557,1745153639059823308
282975,-266,99,-274,2478,7,-8512,1745153639059823308
283167,-335,90,-266,2438,-196,-8337,1745153639059823308
283359,-400,89,-269,2242,-220,-8768,1745153639059823308
283551,-431,82,-270,2081,-103,-8943,1745153639059823308
283743,-465,87,-264,1989,-19,-8672,1745153639059823308
283935,-485,94,-257,1906,51,-8594,1745153639059823308
284127,-470,84,-247,1899,161,-8545,1745153639059823308
284319,-422,70,-241,2001,309,-8497,1745153639059823308
284511,-373,64,-254,2112,463,-8549,1745153639059823308
284703,-340,65,-283,2222,456,-8620,1745153639138745348
284895,-320,64,-315,2294,303,-8688,1745153639138745348
285087,-307,67,-329,2267,97,-8828,1745153639138745348
285279,-294,76,-321,2208,-52,-9020,1745153639138745348
285471,-273,92,-300,2159,-95,-9278,1745153639138745348
285663,-238,113,-281,2174,-50,-9531,1745153639138745348
285855,-192,123,-272,2274,-50,-9743,1745153639138745348
286047,-141,112,-272,2457,-198,-9885,1745153639138745348
286239,-91,71,-273,2699,-482,-9920,1745153639138745348
286431,-51,11,-274,2960,-749,-10061,1745153639138745348
286623,-34,-54,-278,3254,-913,-10410,1745153639138745348
286815,-51,-118,-257,3557,-1066,-10876,1745153639138745348
287007,-131,-134,-138,3910,-1285,-10764,1745153639187129281
287199,-249,-238,-20,4063,-1922,-10047,1745153639187129281
287391,-261,-446,-8,3923,-2560,-9293,1745153639187129281
287583,-225,-631,-92,3566,-2963,-9034,1745153639187129281
287775,-240,-741,-223,3086,-2979,-9032,1745153639187129281
287967,-350,-732,-340,2600,-2708,-9034,1745153639187129281
288159,-545,-681,-392,2273,-2258,-9019,1745153639187129281
288351,-778,-599,-329,2397,-1577,-8925,1745153639187129281
288543,-999,-511,-129,3012,-1062,-8513,1745153639187129281
288735,-1084,-558,90,3432,-811,-8664,1745153639187129281
288927,-963,-732,212,3760,-565,-8637,1745153639187129281
289119,-751,-908,238,3960,-402,-8567,1745153639187129281
289311,-571,-1035,233,4073,-553,-8545,1745153639234115987
289503,-450,-1145,225,4056,-1034,-8488,1745153639234115987
289695,-345,-1265,246,3945,-1687,-8452,1745153639234115987
289887,-237,-1392,323,3760,-2309,-8467,1745153639234115987
290079,-136,-1515,444,3495,-2713,-8506,1745153639234115987
290271,-69,-1620,570,3135,-2911,-8593,1745153639234115987
290463,-44,-1701,675,2731,-3017,-8607,1745153639234115987
290655,-53,-1745,757,2247,-3108,-8502,1745153639234115987
290847,-73,-1748,825,1761,-3130,-8403,1745153639234115987
291039,-91,-1716,893,1332,-3239,-8246,1745153639234115987
291231,-102,-1655,964,967,-3262,-8163,1745153639234115987
291423,-103,-1575,1041,709,-3225,-8123,1745153639234115987
291615,-92,-1485,1122,599,-3208,-8019,1745153639291679940
291807,-68,-1399,1198,553,-3215,-7983,1745153639291679940
291999,-53,-1312,1261,553,-3263,-8004,1745153639291679940
292191,-32,-1223,1318,569,-3344,-7962,1745153639291679940
292383,-5,-1144,1386,625,-3409,-7866,1745153639291679940
292575,31,-1076,1470,708,-3401,-7768,1745153639291679940
292767,71,-1018,1570,787,-3367,-7615,1745153639291679940
292959,112,-966,1655,798,-3348,-7468,1745153639291679940
293151,157,-913,1719,753,-3231,-7323,1745153639291679940
293343,216,-855,1772,630,-3110,-7204,1745153639291679940
293535,292,-797,1828,500,-2985,-7070,1745153639291679940
293727,383,-740,1894,371,-2841,-7002,1745153639291679940
293919,489,-683,1972,282,-2721,-6924,1745153639351930953
294111,602,-631,2057,257,-2642,-6907,1745153639351930953
294303,720,-579,2152,256,-2598,-6827,1745153639351930953
294495,833,-524,2242,254,-2688,-6698,1745153639351930953
294687,934,-466,2312,228,-2791,-6697,1745153639351930953
294879,1019,-398,2366,161,-2848,-6732,1745153639351930953
295071,1085,-329,2421,88,-2853,-6707,1745153639351930953
295263,1142,-252,2485,-2,-2803,-6734,1745153639351930953
295455,1191,-171,2562,-75,-2658,-6852,1745153639351930953
295647,1236,-84,2645,-77,-2479,-6951,1745153639351930953
295839,1273,6,2724,-23,-2342,-6955,1745153639351930953
296031,1300,91,2794,92,-2235,-6986,1745153639351930953
296223,1319,173,2856,258,-2107,-7007,1745153639409905527
296415,1331,246,2917,434,-1979,-7026,1745153639409905527
296607,1336,312,2979,618,-1851,-7024,1745153639409905527
296799,1335,370,3040,784,-1722,-6984,1745153639409905527
296991,1326,431,3096,907,-1633,-6970,1745153639409905527
297183,1320,491,3145,1016,-1554,-6922,1745153639409905527
297375,1314,548,3190,1075,-1483,-6941,1745153639409905527
297567,1307,603,3233,1148,-1428,-6949,1745153639409905527
297759,1292,651,3273,1235,-1412,-6939,1745153639409905527
297951,1267,692,3316,1338,-1473,-6941,1745153639409905527
298143,1233,731,3350,1392,-1547,-6994,1745153639409905527
298335,1190,770,3378,1450,-1645,-7023,1745153639409905527
298527,1142,811,3406,1507,-1700,-7112,1745153639468770510
298719,1092,848,3439,1643,-1637,-7195,1745153639468770510
298911,1040,891,3478,1773,-1554,-7185,1745153639468770510
299103,987,934,3498,1952,-1387,-7305,1745153639468770510
299295,937,1003,3504,2095,-1090,-7511,1745153639468770510
299487,895,1081,3512,2244,-699,-7679,1745153639468770510
299679,866,1150,3525,2437,-227,-7855,1745153639468770510
299871,852,1213,3545,2696,290,-7968,1745153639468770510
300063,851,1264,3575,2972,840,-8023,1745153639468770510
300255,868,1308,3612,3240,1242,-8040,1745153639468770510
300447,895,1337,3635,3497,1503,-8063,1745153639468770510
300639,934,1357,3650,3706,1608,-7981,1745153639468770510
300831,980,1362,3669,3884,1594,-7860,1745153639525392962
301023,1015,1337,3688,4014,1347,-7781,1745153639525392962
301215,1027,1296,3694,4049,979,-7653,1745153639525392962
301407,1007,1244,3692,3950,591,-7476,1745153639525392962
301599,957,1211,3691,3747,142,-7240,1745153639525392962
301791,868,1187,3679,3514,-300,-7008,1745153639525392962
301983,741,1186,3644,3271,-660,-6651,1745153639525392962
302175,580,1207,3600,3029,-883,-6277,1745153639525392962
302367,396,1239,3562,2894,-956,-5989,1745153639525392962
302559,196,1281,3523,2836,-877,-5807,1745153639525392962
302751,-16,1336,3473,2856,-696,-5788,1745153639525392962
302943,-217,1412,3420,2982,-267,-5924,1745153639525392962
303135,-374,1494,3377,3257,251,-6126,1745153639595918932
303327,-477,1567,3337,3655,858,-6461,1745153639595918932
303519,-526,1635,3294,4115,1497,-6944,1745153639595918932
303711,-522,1692,3249,4602,2109,-7376,1745153639595918932
303903,-475,1724,3201,5120,2671,-7678,1745153639595918932
304095,-382,1720,3163,5584,3131,-7871,1745153639595918932
304287,-244,1701,3141,5994,3412,-7973,1745153639595918932
304479,-78,1653,3118,6291,3465,-8019,1745153639595918932
304671,91,1571,3078,6460,3315,-8102,1745153639595918932
304863,249,1474,3018,6523,3002,-8101,1745153639595918932
305055,381,1382,2945,6415,2560,-8191,1745153639595918932
305247,480,1273,2872,6138,2112,-8185,1745153639595918932
305439,550,1192,2808,5776,1702,-8217,1745153639647030236
305631,587,1126,2743,5378,1351,-8209,1745153639647030236
305823,588,1075,2678,5025,1136,-8134,1745153639647030236
306015,561,1050,2614,4723,979,-8059,1745153639647030236
306207,515,1024,2548,4462,904,-8052,1745153639647030236
306399,457,1011,2482,4320,862,-7937,1745153639647030236
306591,390,1030,2423,4235,822,-8026,1745153639647030236
306783,320,1003,2368,4208,833,-8009,1745153639647030236
306975,242,995,2314,4212,807,-8072,1745153639647030236
307167,162,976,2258,4239,780,-8141,1745153639647030236
307359,86,930,2204,4261,729,-8184,1745153639647030236
307551,11,906,2146,4287,708,-8175,1745153639647030236
307743,-53,876,2090,4274,703,-8210,1745153639703114567
307935,-102,823,2037,4276,746,-8144,1745153639703114567
308127,-136,781,1982,4193,791,-8148,1745153639703114567
308319,-159,727,1926,4094,791,-8142,1745153639703114567
308511,-173,674,1868,4000,766,-8117,1745153639703114567
308703,-186,626,1809,3939,729,-8099,1745153639703114567
308895,-198,582,1755,3758,682,-8039,1745153639703114567
309087,-210,546,1698,3561,590,-7998,1745153639703114567
309279,-217,505,1626,3325,460,-7837,1745153639703114567
309471,-210,482,1550,3074,330,-7627,1745153639703114567
309663,-182,453,1492,2912,265,-7413,1745153639703114567
309855,-137,426,1460,2775,217,-7349,1745153639703114567
310047,-96,395,1437,2651,134,-7395,1745153639761125652
310239,-70,370,1402,2527,-9,-7487,1745153639761125652
310431,-55,367,1354,2439,-135,-7589,1745153639761125652
310623,-54,371,1298,2335,-261,-7718,1745153639761125652
310815,-66,388,1243,2292,-315,-7892,1745153639761125652
311007,-94,407,1194,2253,-299,-8042,1745153639761125652
311199,-125,435,1166,2252,-249,-8190,1745153639761125652
311391,-155,457,1153,2281,-245,-8331,1745153639761125652
311583,-177,469,1140,2363,-287,-8373,1745153639761125652
311775,-192,475,1128,2441,-325,-8357,1745153639761125652
311967,-212,472,1112,2539,-411,-8348,1745153639761125652
312159,-241,459,1094,2606,-535,-8261,1745153639761125652
312351,-272,432,1079,2661,-657,-8152,1745153639819544285
312543,-303,395,1069,2675,-744,-8046,1745153639819544285
312735,-337,355,1056,2635,-773,-7875,1745153639819544285
312927,-367,315,1037,2536,-787,-7768,1745153639819544285
313119,-384,276,1012,2353,-774,-7701,1745153639819544285
313311,-386,248,983,2164,-716,-7704,1745153639819544285
313503,-380,239,957,1940,-658,-7781,1745153639819544285
313695,-371,250,933,1749,-627,-7889,1745153639819544285
313887,-358,268,913,1658,-580,-7976,1745153639819544285
314079,-338,292,896,1667,-547,-8022,1745153639819544285
314271,-318,312,885,1762,-534,-7988,1745153639819544285
314463,-299,323,885,1880,-640,-7953,1745153639819544285
314655,-273,331,889,2041,-780,-7992,1745153639876688398
314847,-244,328,876,2217,-844,-8060,1745153639876688398
315039,-228,323,856,2299,-785,-8086,1745153639876688398
315231,-227,312,837,2359,-717,-8055,1745153639876688398
315423,-230,286,817,2396,-688,-7967,1745153639876688398
315615,-220,258,800,2349,-701,-7885,1745153639876688398
315807,-202,232,783,2237,-715,-7911,1745153639876688398
315999,-187,214,764,2134,-762,-8000,1745153639876688398
316191,-184,205,742,2026,-850,-8108,1745153639876688398
316383,-192,205,722,1945,-927,-8173,1745153639876688398
316575,-205,204,707,1916,-1038,-8155,1745153639876688398
316767,-218,203,691,1896,-1139,-8140,1745153639876688398
316959,-230,202,676,1901,-1242,-8104,1745153639938374345
317151,-243,199,657,1924,-1287,-8065,1745153639938374345
317343,-265,195,636,1926,-1322,-7987,1745153639938374345
317535,-292,192,614,1933,-1342,-7938,1745153639938374345
317727,-316,190,593,1921,-1383,-7914,1745153639938374345
317919,-332,191,574,1935,-1342,-7947,1745153639938374345
318111,-348,191,555,1928,-1282,-7942,1745153639938374345
318303,-364,191,537,1952,-1185,-7970,1745153639938374345
318495,-378,190,519,1955,-1061,-7987,1745153639938374345
318687,-381,188,504,1951,-966,-8023,1745153639938374345
318879,-372,183,495,1992,-855,-8049,1745153639938374345
319071,-350,175,487,2027,-769,-8059,1745153639938374345
319263,-323,166,477,2068,-674,-8041,1745153639995145285
319455,-292,151,463,2111,-622,-8049,1745153639995145285
319647,-262,135,444,2139,-652,-8068,1745153639995145285
319839,-233,119,424,2099,-769,-8081,1745153639995145285
320031,-206,102,404,2083,-911,-8099,1745153639995145285
320223,-187,90,384,2034,-1041,-8150,1745153639995145285
320415,-185,83,369,1998,-1116,-8185,1745153639995145285
320607,-199,77,355,1969,-1155,-8170,1745153639995145285
320799,-220,73,342,1875,-1213,-8104,1745153639995145285
320991,-241,73,327,1809,-1229,-8043,1745153639995145285
321183,-262,76,309,1767,-1219,-7970,1745153639995145285
321375,-279,75,297,1731,-1111,-7934,1745153639995145285
321567,-282,84,296,1712,-1007,-7866,1745153640051947475
321759,-273,84,290,1730,-872,-7876,1745153640051947475
321951,-260,88,271,1724,-755,-7962,1745153640051947475
322143,-244,98,244,1736,-695,-8009,1745153640051947475
322335,-216,108,222,1792,-659,-8040,1745153640051947475
322527,-178,113,211,1874,-640,-8074,1745153640051947475
322719,-142,102,202,1991,-637,-8100,1745153640051947475
322911,-115,87,190,2061,-707,-8087,1745153640051947475
323103,-97,68,168,2092,-809,-8046,1745153640051947475
323295,-81,48,145,2081,-953,-7996,1745153640051947475
323487,-67,30,132,2040,-1049,-7961,1745153640051947475
323679,-57,15,123,1969,-1105,-7938,1745153640051947475
323871,-60,6,114,1889,-1157,-7931,1745153640115381270
324063,-71,4,96,1827,-1222,-7892,1745153640115381270
324255,-78,7,76,1781,-1228,-7855,1745153640115381270
324447,-76,12,67,1746,-1204,-7838,1745153640115381270
324639,-64,12,68,1771,-1154,-7835,1745153640115381270
324831,-47,12,71,1791,-1132,-7830,1745153640115381270
325023,-28,10,68,1822,-1068,-7863,1745153640115381270
325215,-12,9,60,1856,-1037,-7932,1745153640115381270
325407,4,8,53,1855,-987,-7973,1745153640115381270
325599,24,8,48,1849,-934,-7999,1745153640115381270
325791,50,9,42,1833,-903,-8008,1745153640115381270
325983,78,9,34,1807,-949,-8016,1745153640115381270
326175,102,10,25,1791,-1014,-8025,1745153640168591305
326367,115,12,19,1782,-1113,-8014,1745153640168591305
326559,112,14,15,1824,-1262,-7971,1745153640168591305
326751,98,13,14,1841,-1462,-7892,1745153640168591305
326943,82,9,13,1853,-1677,-7819,1745153640168591305
327135,71,4,13,1860,-1805,-7791,1745153640168591305
327327,60,-2,13,1864,-1817,-7796,1745153640168591305
327519,41,-7,9,1851,-1803,-7815,1745153640168591305
327711,20,-8,3,1820,-1737,-7810,1745153640168591305
327903,0,-11,-6,1809,-1683,-7770,1745153640168591305
328095,-11,-14,-11,1796,-1665,-7714,1745153640168591305
328287,-9,-17,-5,1789,-1626,-7693,1745153640168591305
328479,-5,-19,4,1767,-1582,-7699,1745153640228010866
328671,-3,-21,10,1762,-1627,-7691,1745153640228010866
328863,-1,-21,11,1777,-1654,-7708,1745153640228010866
329055,6,-18,11,1743,-1664,-7721,1745153640228010866
329247,14,-13,17,1728,-1651,-7715,1745153640228010866
329439,17,-7,25,1730,-1631,-7707,1745153640228010866
329631,18,0,32,1754,-1646,-7706,1745153640228010866
329823,23,11,32,1754,-1662,-7682,1745153640228010866
330015,29,22,31,1778,-1649,-7718,1745153640228010866
330207,28,31,30,1790,-1647,-7737,1745153640228010866
330399,20,36,33,1794,-1657,-7735,1745153640228010866
330591,12,40,38,1779,-1651,-7750,1745153640228010866
330783,7,45,44,1788,-1683,-7777,1745153640287385063
330975,0,52,48,1779,-1691,-7804,1745153640287385063
331167,-13,57,50,1817,-1690,-7796,1745153640287385063
331359,-25,64,49,1832,-1669,-7784,1745153640287385063
331551,-32,69,44,1859,-1649,-7785,1745153640287385063
331743,-39,67,33,1873,-1653,-7734,1745153640287385063
331935,-42,62,22,1884,-1694,-7682,1745153640287385063
332127,-39,55,15,1889,-1718,-7672,1745153640287385063
332319,-34,48,8,1887,-1727,-7665,1745153640287385063
332511,-34,40,2,1883,-1750,-7630,1745153640287385063
332703,-34,31,-5,1896,-1780,-7608,1745153640287385063
332895,-27,23,-11,1885,-1803,-7618,1745153640287385063
333087,-24,18,-14,1865,-1736,-7629,1745153640347354932
333279,-29,13,-19,1869,-1686,-7622,1745153640347354932
333471,-33,10,-24,1882,-1639,-7608,1745153640347354932
333663,-29,6,-33,1881,-1630,-7613,1745153640347354932
333855,-22,2,-38,1891,-1639,-7638,1745153640347354932
334047,-13,-1,-41,1901,-1638,-7670,1745153640347354932
334239,-7,-3,-44,1917,-1628,-7715,1745153640347354932
334431,-2,-7,-47,1911,-1626,-7751,1745153640347354932
334623,2,-8,-48,1896,-1638,-7748,1745153640347354932
334815,7,-12,-49,1894,-1676,-7722,1745153640347354932
335007,12,-16,-49,1853,-1728,-7710,1745153640347354932
335199,22,-15,-48,1825,-1753,-7754,1745153640347354932
335391,24,-11,-47,1786,-1757,-7788,1745153640421468578
335583,17,-6,-47,1761,-1725,-7773,1745153640421468578
335775,6,1,-47,1777,-1772,-7704,1745153640421468578
335967,6,7,-46,1772,-1829,-7663,1745153640421468578
336159,13,11,-41,1781,-1891,-7613,1745153640421468578
336351,17,13,-33,1815,-1904,-7630,1745153640421468578
336543,11,13,-27,1839,-1907,-7661,1745153640421468578
336735,3,12,-23,1849,-1840,-7701,1745153640421468578
336927,-2,13,-23,1854,-1727,-7710,1745153640421468578
337119,-6,13,-26,1864,-1646,-7746,1745153640421468578
337311,-5,10,-30,1875,-1623,-7735,1745153640421468578
337503,3,7,-36,1866,-1632,-7674,1745153640421468578
337695,15,2,-40,1877,-1691,-7658,1745153640462073520
337887,27,-5,-43,1884,-1773,-7618,1745153640462073520
338079,35,-13,-43,1866,-1839,-7599,1745153640462073520
338271,39,-20,-41,1817,-1907,-7580,1745153640462073520
338463,36,-23,-39,1778,-1919,-7614,1745153640462073520
338655,29,-18,-37,1740,-1926,-7652,1745153640462073520
338847,18,-9,-37,1735,-1871,-7673,1745153640462073520
339039,6,2,-39,1739,-1807,-7667,1745153640462073520
339231,0,14,-41,1764,-1746,-7671,1745153640462073520
339423,-1,22,-41,1810,-1704,-7701,1745153640462073520
339615,2,27,-37,1871,-1684,-7769,1745153640462073520
339807,5,30,-31,1919,-1635,-7818,1745153640462073520
339999,5,27,-27,1960,-1598,-7815,1745153640523521188
340191,9,19,-27,1963,-1633,-7789,1745153640523521188
340383,18,11,-29,1946,-1629,-7750,1745153640523521188
340575,28,2,-33,1909,-1669,-7667,1745153640523521188
340767,36,-8,-37,1836,-1761,-7596,1745153640523521188
340959,47,-17,-39,1757,-1890,-7575,1745153640523521188
341151,63,-20,-41,1685,-1974,-7645,1745153640523521188
341343,72,-14,-40,1640,-1978,-7716,1745153640523521188
341535,67,-2,-38,1620,-1909,-7779,1745153640523521188
341727,55,12,-35,1636,-1872,-7826,1745153640523521188
341919,46,26,-32,1672,-1855,-7831,1745153640523521188
342111,46,37,-23,1754,-1858,-7838,1745153640523521188
342303,48,44,-13,1831,-1863,-7849,1745153640590265526
342495,46,43,-2,1922,-1839,-7843,1745153640590265526
342687,40,37,4,1966,-1767,-7818,1745153640590265526
342879,36,26,4,1987,-1741,-7743,1745153640590265526
343071,38,16,1,1946,-1707,-7668,1745153640590265526
343263,49,5,-4,1864,-1679,-7650,1745153640590265526
343455,67,-2,-11,1773,-1650,-7669,1745153640590265526
343647,84,-5,-15,1691,-1619,-7732,1745153640590265526
343839,95,2,-20,1646,-1576,-7813,1745153640590265526
344031,101,15,-26,1637,-1602,-7853,1745153640590265526
344223,107,28,-29,1677,-1667,-7866,1745153640590265526
344415,112,36,-28,1746,-1718,-7883,1745153640590265526
344607,112,40,-25,1812,-1799,-7896,1745153640658888076
344799,101,38,-24,1892,-1860,-7908,1745153640658888076
344991,83,32,-25,1949,-1879,-7878,1745153640658888076
345183,64,24,-26,1983,-1879,-7848,1745153640658888076
345375,50,14,-26,1991,-1813,-7836,1745153640658888076
345567,45,6,-30,1952,-1750,-7828,1745153640658888076
345759,44,-2,-38,1931,-1717,-7790,1745153640658888076
345951,45,-7,-46,1899,-1748,-7766,1745153640658888076
346143,48,-9,-49,1876,-1804,-7780,1745153640658888076
346335,51,-13,-46,1851,-1854,-7829,1745153640658888076
346527,49,-16,-41,1865,-1863,-7872,1745153640658888076
346719,42,-17,-37,1838,-1812,-7904,1745153640658888076
346911,31,-16,-36,1823,-1747,-7887,1745153640700796235
347103,28,-14,-35,1830,-1690,-7842,1745153640700796235
347295,34,-10,-37,1854,-1694,-7787,1745153640700796235
347487,45,-9,-38,1896,-1737,-7764,1745153640700796235
347679,53,-9,-39,1904,-1777,-7762,1745153640700796235
347871,53,-11,-42,1930,-1839,-7756,1745153640700796235
348063,45,-11,-44,1914,-1822,-7749,1745153640700796235
348255,32,-9,-49,1925,-1796,-7750,1745153640700796235
348447,24,-9,-54,1932,-1764,-7738,1745153640700796235
348639,23,-10,-58,1935,-1739,-7701,1745153640700796235
348831,27,-12,-64,1947,-1738,-7676,1745153640700796235
349023,33,-16,-69,1961,-1767,-7658,1745153640700796235
349215,35,-25,-74,1981,-1824,-7615,1745153640760621470
349407,34,-34,-78,1952,-1878,-7608,1745153640760621470
349599,32,-41,-80,1915,-1909,-7650,1745153640760621470
349791,24,-45,-81,1877,-1885,-7698,1745153640760621470
349983,10,-46,-83,1846,-1830,-7695,1745153640760621470
350175,-3,-42,-87,1827,-1778,-7683,1745153640760621470
350367,-11,-38,-92,1813,-1779,-7648,1745153640760621470
350559,-14,-35,-93,1811,-1828,-7578,1745153640760621470
350751,-11,-35,-89,1825,-1885,-7552,1745153640760621470
350943,0,-34,-82,1807,-1952,-7572,1745153640760621470
351135,8,-31,-74,1812,-1948,-7626,1745153640760621470
351327,5,-27,-71,1815,-1892,-7689,1745153640760621470
351519,-4,-21,-72,1817,-1844,-7645,1745153640833882415
351711,-8,-17,-73,1817,-1852,-7562,1745153640833882415
351903,1,-12,-71,1818,-1881,-7547,1745153640833882415
352095,14,-7,-63,1826,-1909,-7552,1745153640833882415
352287,20,-3,-55,1835,-1900,-7546,1745153640833882415
352479,17,1,-48,1837,-1871,-7564,1745153640833882415
352671,12,4,-45,1853,-1838,-7551,1745153640833882415
352863,5,6,-45,1848,-1797,-7515,1745153640833882415
353055,-1,6,-45,1851,-1825,-7463,1745153640833882415
353247,0,4,-45,1854,-1922,-7441,1745153640833882415
353439,10,3,-41,1839,-1979,-7467,1745153640833882415
353631,14,2,-38,1823,-1948,-7528,1745153640833882415
353823,2,2,-39,1831,-1945,-7547,1745153640879986525
354015,-14,2,-44,1830,-1916,-7474,1745153640879986525
354207,-22,1,-48,1836,-1911,-7455,1745153640879986525
354399,-24,3,-49,1828,-1922,-7470,1745153640879986525
354591,-28,6,-46,1836,-1904,-7487,1745153640879986525
354783,-36,9,-44,1840,-1854,-7516,1745153640879986525
354975,-43,13,-42,1854,-1760,-7559,1745153640879986525
355167,-41,17,-41,1861,-1660,-7561,1745153640879986525
355359,-27,20,-41,1862,-1573,-7549,1745153640879986525
355551,-5,20,-49,1858,-1518,-7557,1745153640879986525
355743,16,18,-57,1890,-1508,-7564,1745153640879986525
355935,31,16,-68,1890,-1570,-7508,1745153640879986525
356127,41,9,-77,1879,-1665,-7411,1745153640933553119
356319,61,0,-80,1846,-1785,-7362,1745153640933553119
356511,84,-5,-77,1803,-1807,-7406,1745153640933553119
356703,94,-7,-76,1772,-1784,-7443,1745153640933553119
356895,93,-4,-77,1756,-1733,-7450,1745153640933553119
357087,92,1,-77,1750,-1689,-7458,1745153640933553119
357279,94,9,-80,1774,-1672,-7511,1745153640933553119
357471,95,17,-82,1802,-1685,-7536,1745153640933553119
357663,94,25,-78,1858,-1754,-7535,1745153640933553119
357855,91,28,-68,1933,-1853,-7543,1745153640933553119
358047,82,28,-58,2005,-1939,-7522,1745153640933553119
358239,66,26,-50,2021,-1933,-7540,1745153640933553119
358431,42,25,-46,2014,-1874,-7547,1745153640994863496
358623,19,24,-47,1980,-1784,-7551,1745153640994863496
358815,4,24,-52,1910,-1655,-7530,1745153640994863496
359007,0,29,-53,1836,-1555,-7541,1745153640994863496
359199,4,37,-53,1802,-1521,-7562,1745153640994863496
359391,5,47,-52,1782,-1577,-7600,1745153640994863496
359583,2,57,-49,1803,-1652,-7652,1745153640994863496
359775,-8,70,-44,1835,-1710,-7712,1745153640994863496
359967,-28,82,-38,1861,-1653,-7717,1745153640994863496
360159,-53,91,-35,1912,-1546,-7723,1745153640994863496
360351,-77,97,-38,1935,-1412,-7665,1745153640994863496
360543,-91,100,-45,1996,-1289,-7549,1745153640994863496
360735,-88,101,-54,2030,-1185,-7503,1745153641052499480
360927,-70,101,-65,2067,-1109,-7514,1745153641052499480
361119,-51,98,-79,2125,-1060,-7537,1745153641052499480
361311,-41,95,-93,2175,-1032,-7555,1745153641052499480
361503,-35,90,-110,2227,-995,-7576,1745153641052499480
361695,-32,83,-128,2258,-950,-7580,1745153641052499480
361887,-31,71,-146,2288,-900,-7602,1745153641052499480
362079,-34,59,-166,2318,-853,-7666,1745153641052499480
362271,-40,46,-187,2298,-796,-7752,1745153641052499480
362463,-50,34,-211,2292,-763,-7784,1745153641052499480
362655,-62,23,-240,2305,-708,-7843,1745153641052499480
362847,-75,12,-270,2307,-639,-7874,1745153641052499480
363039,-89,2,-300,2315,-545,-7926,1745153641111886490
363231,-106,-9,-335,2310,-414,-7989,1745153641111886490
363423,-125,-18,-373,2317,-258,-8063,1745153641111886490
363615,-142,-24,-416,2311,-18,-8185,1745153641111886490
363807,-159,-24,-467,2333,272,-8314,1745153641111886490
363999,-180,-21,-525,2368,591,-8440,1745153641111886490
364191,-206,-18,-590,2440,895,-8537,1745153641111886490
364383,-227,-15,-661,2566,1182,-8537,1745153641111886490
364575,-234,-13,-736,2712,1432,-8491,1745153641111886490
364767,-224,-17,-817,2893,1589,-8430,1745153641111886490
364959,-199,-30,-908,3099,1704,-8390,1745153641111886490
365151,-165,-53,-1005,3280,1727,-8383,1745153641111886490
365343,-128,-83,-1108,3456,1678,-8329,1745153641167417024
365535,-89,-119,-1214,3641,1602,-8304,1745153641167417024
365727,-45,-163,-1322,3756,1522,-8284,1745153641167417024
365919,-4,-209,-1432,3867,1463,-8275,1745153641167417024
366111,38,-254,-1538,3977,1420,-8287,1745153641167417024
366303,80,-300,-1637,4070,1399,-8294,1745153641167417024
366495,115,-346,-1732,4196,1384,-8255,1745153641167417024
366687,142,-389,-1824,4275,1343,-8202,1745153641167417024
366879,155,-428,-1915,4366,1275,-8105,1745153641167417024
367071,161,-472,-2000,4455,1228,-8053,1745153641167417024
367263,163,-514,-2075,4520,1252,-8012,1745153641167417024
367455,164,-555,-2140,4582,1300,-8090,1745153641167417024
367647,164,-593,-2200,4654,1381,-8101,1745153641225699409
367839,162,-632,-2260,4727,1417,-8092,1745153641225699409
368031,160,-672,-2324,4804,1418,-8053,1745153641225699409
368223,166,-710,-2386,4837,1434,-8037,1745153641225699409
368415,164,-751,-2442,4895,1386,-7991,1745153641225699409
368607,164,-791,-2496,4912,1339,-8021,1745153641225699409
368799,162,-826,-2547,4882,1272,-8031,1745153641225699409
368991,164,-857,-2598,4827,1221,-8059,1745153641225699409
369183,169,-882,-2643,4765,1198,-8039,1745153641225699409
369375,175,-900,-2682,4701,1216,-8005,1745153641225699409
369567,182,-912,-2722,4652,1209,-7994,1745153641225699409
369759,184,-924,-2762,4605,1159,-7987,1745153641225699409
369951,178,-932,-2799,4576,1088,-7983,1745153641297644012
370143,170,-936,-2832,4534,983,-8043,1745153641297644012
370335,166,-934,-2856,4475,903,-8097,1745153641297644012
370527,161,-939,-2873,4462,813,-8001,1745153641297644012
370719,164,-945,-2890,4437,764,-7944,1745153641297644012
370911,166,-951,-2908,4411,751,-7872,1745153641297644012
371103,170,-959,-2927,4385,757,-7805,1745153641297644012
371295,178,-972,-2943,4324,767,-7773,1745153641297644012
371487,199,-992,-2953,4257,751,-7723,1745153641297644012
371679,233,-1015,-2957,4144,780,-7730,1745153641297644012
371871,271,-1033,-2961,4043,767,-7726,1745153641297644012
372063,306,-1055,-2968,3947,702,-7743,1745153641297644012
372255,334,-1076,-2977,3846,570,-7746,1745153641346349609
372447,353,-1095,-2982,3741,326,-7665,1745153641346349609
372639,364,-1111,-2986,3641,48,-7661,1745153641346349609
372831,368,-1126,-2987,3502,-252,-7658,1745153641346349609
373023,363,-1136,-2986,3353,-499,-7690,1745153641346349609
373215,355,-1143,-2982,3183,-666,-7766,1745153641346349609
373407,339,-1142,-2975,3008,-743,-7855,1745153641346349609
373599,315,-1134,-2969,2842,-748,-7930,1745153641346349609
373791,288,-1123,-2961,2725,-744,-7919,1745153641346349609
373983,259,-1110,-2954,2625,-777,-7879,1745153641346349609
374175,235,-1099,-2950,2567,-845,-7847,1745153641346349609
374367,215,-1087,-2946,2504,-895,-7859,1745153641346349609
374559,199,-1078,-2938,2436,-943,-7879,1745153641401764154
374751,179,-1065,-2935,2379,-992,-7869,1745153641401764154
374943,154,-1051,-2937,2305,-1039,-7891,1745153641401764154
375135,123,-1031,-2937,2202,-1094,-7853,1745153641401764154
375327,89,-1012,-2933,2112,-1174,-7824,1745153641401764154
375519,60,-999,-2923,2030,-1257,-7811,1745153641401764154
375711,37,-986,-2911,1981,-1286,-7794,1745153641401764154
375903,10,-974,-2904,1925,-1243,-7883,1745153641401764154
376095,-27,-961,-2901,1869,-1198,-7925,1745153641401764154
376287,-67,-950,-2899,1800,-1112,-7932,1745153641401764154
376479,-102,-936,-2896,1736,-993,-7933,1745153641401764154
376671,-130,-918,-2890,1665,-869,-7884,1745153641401764154
376863,-154,-898,-2880,1613,-788,-7833,1745153641461402568
377055,-171,-877,-2869,1543,-783,-7796,1745153641461402568
377247,-178,-857,-2858,1456,-807,-7810,1745153641461402568
377439,-172,-834,-2843,1363,-854,-7881,1745153641461402568
377631,-165,-810,-2827,1278,-891,-7927,1745153641461402568
377823,-165,-783,-2811,1228,-920,-7895,1745153641461402568
378015,-176,-754,-2797,1182,-987,-7878,1745153641461402568
378207,-193,-727,-2787,1147,-1094,-7840,1745153641461402568
378399,-212,-702,-2776,1107,-1178,-7742,1745153641461402568
378591,-231,-674,-2766,1041,-1264,-7697,1745153641461402568
378783,-248,-642,-2759,965,-1305,-7740,1745153641461402568
378975,-265,-608,-2755,911,-1288,-7790,1745153641461402568
379167,-282,-580,-2755,883,-1265,-7780,1745153641538718268
379359,-299,-552,-2755,886,-1246,-7664,1745153641538718268
379551,-320,-525,-2754,901,-1220,-7532,1745153641538718268
379743,-340,-500,-2747,887,-1214,-7413,1745153641538718268
379935,-360,-473,-2733,875,-1183,-7343,1745153641538718268
380127,-376,-445,-2712,831,-1122,-7288,1745153641538718268
380319,-394,-420,-2692,777,-1086,-7212,1745153641538718268
380511,-407,-396,-2672,728,-1039,-7116,1745153641538718268
380703,-409,-370,-2654,682,-984,-7065,1745153641538718268
380895,-397,-343,-2635,631,-932,-7040,1745153641538718268
381087,-372,-309,-2616,593,-886,-7022,1745153641538718268
381279,-336,-266,-2600,556,-885,-7109,1745153641538718268
381471,-295,-220,-2590,542,-924,-7241,1745153641582334484
381663,-245,-179,-2576,539,-985,-7366,1745153641582334484
381855,-195,-143,-2558,555,-1052,-7446,1745153641582334484
382047,-153,-106,-2535,601,-1104,-7479,1745153641582334484
382239,-117,-77,-2506,671,-1158,-7424,1745153641582334484
382431,-81,-61,-2475,743,-1208,-7393,1745153641582334484
382623,-41,-38,-2445,755,-1233,-7338,1745153641582334484
382815,-3,-16,-2419,731,-1217,-7252,1745153641582334484
383007,31,4,-2392,661,-1182,-7198,1745153641582334484
383199,60,28,-2368,621,-1145,-7131,1745153641582334484
383391,90,52,-2340,555,-1098,-7087,1745153641582334484
383583,129,77,-2301,531,-1060,-7103,1745153641582334484
383775,176,103,-2254,507,-1129,-7177,1745153641652673112
383967,226,126,-2205,529,-1171,-7268,1745153641652673112
384159,274,148,-2162,575,-1235,-7318,1745153641652673112
384351,308,169,-2125,661,-1332,-7370,1745153641652673112
384543,326,191,-2092,729,-1474,-7383,1745153641652673112
384735,331,210,-2062,790,-1675,-7432,1745153641652673112
384927,327,222,-2024,799,-1897,-7530,1745153641652673112
385119,324,230,-1976,806,-2084,-7607,1745153641652673112
385311,313,236,-1921,781,-2166,-7665,1745153641652673112
385503,290,248,-1866,731,-2200,-7701,1745153641652673112
385695,260,261,-1815,705,-2203,-7681,1745153641652673112
385887,230,272,-1766,681,-2152,-7625,1745153641652673112
386079,195,277,-1715,709,-2107,-7439,1745153641693377584
386271,165,281,-1660,733,-2014,-7253,1745153641693377584
386463,137,295,-1605,731,-1966,-7179,1745153641693377584
386655,111,311,-1556,720,-1944,-7283,1745153641693377584
386847,91,328,-1506,703,-1905,-7458,1745153641693377584
387039,82,347,-1454,704,-1842,-7656,1745153641693377584
387231,88,367,-1397,764,-1698,-7814,1745153641693377584
387423,110,387,-1340,869,-1501,-7919,1745153641693377584
387615,151,406,-1284,1029,-1341,-7993,1745153641693377584
387807,205,422,-1236,1221,-1217,-8098,1745153641693377584
387999,268,424,-1194,1389,-1233,-8231,1745153641693377584
388191,337,419,-1154,1556,-1316,-8359,1745153641693377584
388383,404,401,-1112,1675,-1526,-8417,1745153641753742449
388575,462,371,-1062,1735,-1841,-8378,1745153641753742449
388767,499,337,-1007,1761,-2128,-8349,1745153641753742449
388959,507,299,-953,1759,-2384,-8253,1745153641753742449
389151,476,268,-908,1687,-2555,-8071,1745153641753742449
389343,416,244,-870,1566,-2686,-7891,1745153641753742449
389535,340,224,-833,1432,-2794,-7715,1745153641753742449
389727,263,211,-790,1279,-2862,-7572,1745153641753742449
389919,193,199,-737,1120,-2869,-7464,1745153641753742449
390111,132,198,-679,992,-2807,-7396,1745153641753742449
390303,69,207,-621,911,-2696,-7338,1745153641753742449
390495,9,227,-571,861,-2552,-7377,1745153641753742449
390687,-41,254,-524,847,-2378,-7539,1745153641812691234
390879,-77,286,-479,876,-2163,-7731,1745153641812691234
391071,-94,321,-435,1006,-1888,-7872,1745153641812691234
391263,-95,360,-394,1181,-1609,-7974,1745153641812691234
391455,-87,397,-358,1391,-1392,-8095,1745153641812691234
391647,-75,427,-327,1621,-1230,-8164,1745153641812691234
391839,-58,441,-294,1866,-1192,-8137,1745153641812691234
392031,-30,438,-257,2040,-1184,-8083,1745153641812691234
392223,3,426,-219,2190,-1203,-8064,1745153641812691234
392415,32,405,-185,2299,-1237,-8004,1745153641812691234
392607,52,372,-152,2343,-1260,-7854,1745153641812691234
392799,60,338,-112,2273,-1339,-7732,1745153641812691234
392991,58,309,-68,2193,-1449,-7646,1745153641880180044
393183,45,285,-40,2062,-1651,-7583,1745153641880180044
393375,19,271,-32,1938,-1805,-7512,1745153641880180044
393567,-17,264,-30,1805,-1906,-7523,1745153641880180044
393759,-58,268,-25,1684,-1940,-7463,1745153641880180044
393951,-102,282,-19,1603,-1909,-7359,1745153641880180044
394143,-148,307,-15,1580,-1814,-7314,1745153641880180044
394335,-190,339,-14,1578,-1659,-7413,1745153641880180044
394527,-220,379,-13,1603,-1412,-7660,1745153641880180044
394719,-237,418,-6,1666,-1159,-7887,1745153641880180044
394911,-240,464,7,1799,-928,-8047,1745153641880180044
395103,-236,516,21,1988,-774,-8164,1745153641880180044
395295,-225,558,33,2218,-724,-8199,1745153641927744089
395487,-211,591,50,2476,-704,-8234,1745153641927744089
395679,-199,608,69,2698,-702,-8246,1745153641927744089
395871,-190,606,92,2881,-717,-8206,1745153641927744089
396063,-185,590,108,2995,-740,-8166,1745153641927744089
396255,-189,569,116,3037,-789,-8041,1745153641927744089
396447,-174,546,126,3010,-861,-7861,1745153641927744089
396639,-155,514,140,2959,-939,-7727,1745153641927744089
396831,-133,485,149,2880,-1036,-7645,1745153641927744089
397023,-113,461,150,2762,-1098,-7558,1745153641927744089
397215,-101,438,140,2650,-1155,-7493,1745153641927744089
397407,-96,427,120,2545,-1223,-7431,1745153641927744089
397599,-93,429,95,2442,-1220,-7417,1745153642009796048
397791,-91,437,76,2378,-1182,-7382,1745153642009796048
397983,-90,457,66,2329,-1106,-7391,1745153642009796048
398175,-90,480,58,2329,-1040,-7438,1745153642009796048
398367,-89,506,49,2345,-965,-7499,1745153642009796048
398559,-84,533,40,2401,-912,-7543,1745153642009796048
398751,-74,557,34,2520,-860,-7564,1745153642009796048
398943,-60,573,32,2669,-851,-7603,1745153642009796048
399135,-40,588,36,2806,-874,-7612,1745153642009796048
399327,-18,592,44,2947,-863,-7577,1745153642009796048
399519,7,585,52,3068,-902,-7500,1745153642009796048
399711,27,573,53,3158,-903,-7468,1745153642009796048
399903,45,553,52,3206,-915,-7402,1745153642053609710
400095,59,524,52,3198,-936,-7370,1745153642053609710
400287,73,497,64,3167,-953,-7425,1745153642053609710
400479,101,454,95,3176,-1078,-7596,1745153642053609710
400671,144,394,138,3245,-1327,-7917,1745153642053609710
400863,188,299,186,3416,-1697,-8339,1745153642053609710
401055,221,168,234,3645,-2138,-8831,1745153642053609710
401247,239,9,269,3881,-2575,-9292,1745153642053609710
401439,243,-152,280,4025,-2900,-9523,1745153642053609710
401631,224,-292,264,3998,-3057,-9521,1745153642053609710
401823,186,-381,229,3788,-2979,-9348,1745153642053609710
402015,145,-424,195,3408,-2677,-9110,1745153642053609710
402207,108,-432,176,2954,-2271,-8851,1745153642109518679
402399,71,-410,172,2529,-1840,-8526,1745153642109518679
402591,37,-373,175,2121,-1458,-8286,1745153642109518679
402783,5,-322,175,1771,-1176,-8184,1745153642109518679
402975,-28,-259,173,1577,-1009,-8156,1745153642109518679
403167,-64,-198,174,1499,-943,-8176,1745153642109518679
403359,-98,-139,169,1592,-907,-8253,1745153642109518679
403551,-124,-89,154,1742,-797,-8312,1745153642109518679
403743,-139,-49,131,1947,-626,-8315,1745153642109518679
403935,-136,-21,103,2191,-351,-8289,1745153642109518679
404127,-120,-7,77,2396,-15,-8279,1745153642109518679
404319,-92,-6,52,2565,273,-8267,1745153642109518679
404511,-57,-18,28,2669,584,-8187,1745153642163451676
404703,-17,-38,9,2706,810,-8112,1745153642163451676
404895,33,-66,-2,2691,960,-8076,1745153642163451676
405087,91,-97,-8,2600,998,-8104,1745153642163451676
405279,153,-128,-11,2466,930,-8167,1745153642163451676
405471,212,-153,-15,2291,774,-8258,1745153642163451676
405663,258,-170,-9,2087,554,-8339,1745153642163451676
405855,290,-183,7,1889,250,-8409,1745153642163451676
406047,308,-186,30,1708,-96,-8462,1745153642163451676
406239,314,-179,53,1564,-438,-8547,1745153642163451676
406431,307,-162,72,1473,-732,-8591,1745153642163451676
406623,289,-133,85,1363,-941,-8643,1745153642163451676
406815,256,-97,95,1252,-1085,-8715,1745153642219246530
407007,213,-61,108,1164,-1166,-8725,1745153642219246530
407199,169,-21,118,1129,-1158,-8633,1745153642219246530
407391,129,15,122,1126,-1086,-8548,1745153642219246530
407583,92,39,115,1194,-947,-8487,1745153642219246530
407775,64,51,99,1319,-808,-8439,1745153642219246530
407967,49,57,76,1406,-697,-8376,1745153642219246530
408159,39,62,52,1498,-603,-8336,1745153642219246530
408351,30,64,39,1542,-560,-8308,1745153642219246530
408543,26,62,34,1582,-567,-8280,1745153642219246530
408735,29,58,36,1585,-607,-8237,1745153642219246530
408927,34,53,39,1558,-665,-8190,1745153642219246530
409119,38,49,43,1518,-688,-8148,1745153642292800963
409311,34,52,47,1470,-722,-8109,1745153642292800963
409503,26,53,54,1514,-737,-8024,1745153642292800963
409695,18,54,58,1551,-738,-7913,1745153642292800963
409887,10,53,57,1622,-726,-7834,1745153642292800963
410079,3,46,54,1693,-707,-7758,1745153642292800963
410271,-2,40,50,1739,-673,-7715,1745153642292800963
410463,-2,34,48,1763,-663,-7692,1745153642292800963
410655,-2,29,45,1762,-641,-7669,1745153642292800963
410847,-2,29,44,1754,-651,-7628,1745153642292800963
411039,-5,28,42,1738,-673,-7647,1745153642292800963
411231,-7,25,40,1754,-691,-7694,1745153642292800963
411423,-8,22,36,1770,-682,-7727,1745153642362875166
411615,-12,18,31,1764,-679,-7740,1745153642362875166
411807,-16,14,26,1785,-666,-7766,1745153642362875166
411999,-20,13,21,1790,-658,-7815,1745153642362875166
412191,-21,9,23,1819,-670,-7837,1745153642362875166
412383,-19,4,28,1827,-692,-7869,1745153642362875166
412575,-16,1,30,1827,-725,-7901,1745153642362875166
412767,-13,-1,29,1845,-744,-7916,1745153642362875166
412959,-9,-5,27,1836,-761,-7912,1745153642362875166
413151,-6,-6,25,1823,-773,-7938,1745153642362875166
413343,-3,-9,23,1792,-765,-7946,1745153642362875166
413535,0,-13,21,1765,-760,-7916,1745153642362875166
413727,4,-14,20,1754,-729,-7910,1745153642392390053
413919,7,-14,19,1739,-726,-7908,1745153642392390053
414111,10,-13,15,1722,-722,-7907,1745153642392390053
414303,11,-10,11,1707,-721,-7885,1745153642392390053
414495,10,-12,10,1707,-704,-7875,1745153642392390053
414687,10,-11,10,1698,-689,-7888,1745153642392390053
414879,9,-12,9,1691,-649,-7889,1745153642392390053
415071,8,-14,8,1687,-636,-7932,1745153642392390053
415263,1,-18,2,1445,-658,-7235,1745153642392390053
415455,-400,-121,-153,173,-2638,-5053,1745153642392390053
415647,-858,-53,-280,680,-5376,-9352,1745153642392390053
415839,-686,144,-220,1703,-3252,-8762,1745153642392390053
416031,-728,87,-138,1718,-1213,-6724,1745153642518207758
416223,-633,161,-25,908,801,-7238,1745153642518207758
416415,-451,235,11,1187,1740,-7580,1745153642518207758
416607,-315,196,-61,1993,1903,-7505,1745153642518207758
416799,-193,132,-157,2647,1623,-7718,1745153642518207758
416991,-80,12,-211,2839,1101,-7728,1745153642518207758
417183,35,-72,-201,2839,530,-7735,1745153642518207758
417375,140,-136,-136,2707,171,-7880,1745153642518207758
417567,203,-191,-56,2487,86,-8002,1745153642518207758
417759,229,-238,9,2147,162,-8073,1745153642518207758
417951,250,-278,49,1808,209,-8128,1745153642518207758
418143,281,-292,67,1508,161,-8185,1745153642518207758
418335,319,-278,68,1267,25,-8233,1745153642527332883
418527,359,-238,63,1061,-166,-8304,1745153642527332883
418719,389,-193,59,1080,-386,-8384,1745153642527332883
418911,404,-162,61,1250,-535,-8459,1745153642527332883
419103,408,-136,76,1383,-636,-8515,1745153642527332883
419295,401,-119,101,1439,-714,-8549,1745153642527332883
419487,384,-103,123,1454,-818,-8553,1745153642527332883
419679,363,-83,129,1386,-902,-8531,1745153642527332883
419871,340,-60,119,1273,-990,-8437,1745153642527332883
420063,311,-38,101,1184,-1101,-8295,1745153642527332883
420255,283,-11,82,1133,-1158,-8169,1745153642527332883
420447,254,10,67,1216,-1218,-8072,1745153642527332883
420639,226,24,56,1354,-1243,-7929,1745153642569521560
420831,199,34,47,1494,-1201,-7832,1745153642569521560
421023,172,43,40,1582,-1139,-7760,1745153642569521560
421215,149,47,35,1645,-1016,-7689,1745153642569521560
421407,134,44,33,1687,-860,-7696,1745153642569521560
421599,127,40,31,1682,-778,-7719,1745153642569521560
421791,125,37,27,1662,-782,-7769,1745153642569521560
421983,121,35,22,1640,-850,-7816,1745153642569521560
422175,117,38,17,1580,-915,-7863,1745153642569521560
422367,115,44,16,1544,-968,-7917,1745153642569521560
422559,113,51,16,1523,-1026,-7976,1745153642569521560
422751,104,57,18,1560,-1035,-8043,1745153642569521560
1696095,-96,-137,54,861,1575,-8668,1745153674977428482
1696287,-156,-93,57,718,274,-7266,1745153674977428482
1696479,-85,-231,39,786,276,-8796,1745153674977428482
1696671,-36,-265,40,512,237,-7967,1745153674977428482
1696863,-61,-269,60,371,233,-8298,1745153674977428482
1697055,-85,-248,80,357,77,-8380,1745153674977428482
1697247,-110,-271,85,317,166,-8319,1745153674977428482
1697439,-145,-252,91,182,266,-8420,1745153674977428482
1697631,-156,-235,96,30,311,-8401,1745153674977428482
1697823,-158,-214,94,-111,339,-8407,1745153674977428482
1698015,-159,-169,88,-213,384,-8407,1745153674977428482
1698207,-156,-128,79,-331,380,-8405,1745153674977428482
1698399,-151,-77,78,-455,409,-8430,1745153675038859744
1698591,-140,-10,84,-482,710,-8471,1745153675038859744
1698783,-113,43,74,-424,1066,-8572,1745153675038859744
1698975,-73,97,40,-374,1304,-8629,1745153675038859744
1699167,-14,153,-6,-294,1428,-8683,1745153675038859744
1699359,59,192,-49,-173,1514,-8721,1745153675038859744
1699551,142,231,-69,-60,1633,-8688,1745153675038859744
1699743,261,267,-63,167,1666,-7273,1745153675038859744
1699935,257,236,-60,156,565,-10715,1745153675038859744
1700127,484,351,-28,89,2844,-7764,1745153675038859744
1700319,766,307,-16,-160,2235,-7705,1745153675038859744
1700511,804,440,4,164,1402,-8643,1745153675038859744
1700703,546,458,98,1150,-1194,-6480,1745153675092360297
1700895,330,280,5,1450,-1721,-6754,1745153675092360297
1701087,147,148,92,1515,-1948,-7407,1745153675092360297
1701279,32,81,208,1455,-1973,-7049,1745153675092360297
1701471,-83,0,163,1096,-1078,-7424,1745153675092360297
1701663,-179,-39,109,669,-259,-7749,1745153675092360297
1701855,-221,-45,54,285,506,-7854,1745153675092360297
1702047,-204,-47,5,31,1071,-8051,1745153675092360297
1702239,-141,-9,-27,-69,1395,-8163,1745153675092360297
1702431,-66,36,-43,37,1497,-8217,1745153675092360297
1702623,5,65,-44,251,1362,-8266,1745153675092360297
1702815,61,69,-36,486,1094,-8288,1745153675092360297
1703007,87,50,-23,657,747,-8278,1745153675164089485
1703199,86,23,-10,704,426,-8274,1745153675164089485
1703391,70,-6,7,653,227,-8117,1745153675164089485
1703583,50,-25,24,547,301,-7881,1745153675164089485
1703775,9,-20,38,449,451,-7906,1745153675164089485
1703967,-42,-1,45,414,528,-8057,1745153675164089485
1704159,-58,5,46,399,443,-8098,1745153675164089485
1704351,-31,-6,47,395,358,-8099,1745153675164089485
1704543,-10,-11,37,331,327,-8116,1745153675164089485
1704735,-11,-7,19,282,327,-8098,1745153675164089485
1704927,-14,-3,4,201,305,-8083,1745153675164089485
1705119,-10,-5,-2,137,236,-8102,1745153675164089485
1705311,-9,-10,-4,62,216,-8119,1745153675284648124
1705503,-16,-7,-2,14,210,-8116,1745153675284648124
1705695,-25,-3,4,-10,291,-8082,1745153675284648124
1705887,-28,4,14,18,408,-8044,1745153675284648124
1706079,-25,10,22,77,543,-8003,1745153675284648124
1706271,-19,16,25,152,650,-7969,1745153675284648124
1706463,-11,22,25,235,708,-8002,1745153675284648124
1706655,2,25,23,338,734,-7999,1745153675284648124
1706847,19,25,22,405,686,-8024,1745153675284648124
1707039,32,22,19,470,618,-8043,1745153675284648124
1707231,36,20,13,481,532,-8077,1745153675284648124
1707423,32,19,9,479,416,-8116,1745153675284648124
1707615,31,19,7,456,328,-8135,1745153675293753822
1707807,28,18,7,443,266,-8151,1745153675293753822
1707999,23,19,8,455,237,-8161,1745153675293753822
1708191,12,23,8,458,251,-8157,1745153675293753822
1708383,3,26,9,460,270,-8141,1745153675293753822
1708575,-2,28,9,469,319,-8126,1745153675293753822
1708767,-5,28,9,494,371,-8131,1745153675293753822
1708959,-7,28,9,487,435,-8122,1745153675293753822
1709151,-10,26,8,495,489,-8104,1745153675293753822
1709343,-10,26,6,477,555,-8099,1745153675293753822
1709535,-8,25,6,446,582,-8087,1745153675293753822
1709727,-3,24,4,437,576,-8077,1745153675293753822
1709919,4,24,1,409,542,-8066,1745153675342511085
1710111,11,23,-1,390,475,-8047,1745153675342511085
1710303,17,25,-4,343,411,-8052,1745153675342511085
1710495,18,26,-5,331,349,-8051,1745153675342511085
1710687,14,28,-6,328,309,-8047,1745153675342511085
1710879,8,31,-5,340,293,-8058,1745153675342511085
1711071,1,35,-3,377,326,-8059,1745153675342511085
1711263,-6,38,-4,388,367,-8127,1745153675342511085
1711455,-16,37,-4,408,393,-8127,1745153675342511085
1711647,-14,34,-3,445,403,-8098,1745153675342511085
1711839,-3,32,-4,484,432,-8082,1745153675342511085
1712031,5,30,-9,499,457,-8050,1745153675342511085
1712223,3,29,-15,482,468,-8042,1745153675387064428
1712415,-1,26,-16,484,449,-8034,1745153675387064428
1712607,-3,21,-14,453,425,-8034,1745153675387064428
1712799,-2,18,-13,437,425,-7999,1745153675387064428
1712991,-1,20,-15,416,417,-7992,1745153675387064428
1713183,-9,24,-17,394,398,-7968,1745153675387064428
1713375,-6,25,-17,401,393,-8015,1745153675387064428
1713567,-6,29,-19,402,412,-8069,1745153675387064428
1713759,-11,28,-19,425,438,-8021,1745153675387064428
1713951,-9,31,-15,443,431,-8060,1745153675387064428
1714143,-1,33,-14,474,427,-8139,1745153675387064428
1714335,2,34,-17,521,419,-8097,1745153675387064428
1714527,5,36,-23,566,388,-8164,1745153675451408111
1714719,10,39,-29,581,355,-8229,1745153675451408111
1714911,10,45,-36,572,342,-8271,1745153675451408111
1715103,15,53,-43,578,345,-8355,1745153675451408111
1715295,19,68,-54,577,384,-8443,1745153675451408111
1715487,20,84,-75,590,401,-8520,1745153675451408111
1715679,21,106,-104,617,376,-8605,1745153675451408111
1715871,21,132,-137,655,303,-8789,1745153675451408111
1716063,25,160,-169,715,223,-8996,1745153675451408111
1716255,13,176,-191,778,80,-9165,1745153675451408111
1716447,-19,191,-207,843,-21,-9294,1745153675451408111
1716639,-73,212,-216,885,-98,-9341,1745153675451408111
1716831,-154,247,-224,815,-140,-9065,1745153675515443047
1717023,-262,309,-227,740,-363,-9264,1745153675515443047
1717215,-351,338,-205,754,-571,-9531,1745153675515443047
1717407,-370,333,-173,851,-513,-9251,1745153675515443047
1717599,-441,342,-163,1004,-332,-9137,1745153675515443047
1717791,-541,358,-211,1242,-47,-9466,1745153675515443047
1717983,-611,313,-310,1540,412,-9711,1745153675515443047
1718175,-654,241,-419,1748,927,-9691,1745153675515443047
1718367,-653,199,-501,1903,1339,-9429,1745153675515443047
1718559,-611,173,-525,2039,1473,-9299,1745153675515443047
1718751,-546,149,-494,2162,1283,-9259,1745153675515443047
1718943,-474,114,-424,2300,829,-9177,1745153675515443047
1719135,-402,57,-344,2366,303,-9053,1745153675559486811
1719327,-336,5,-285,2327,-182,-8728,1745153675559486811
1719519,-277,-27,-267,2233,-550,-8570,1745153675559486811
1719711,-239,-49,-283,2089,-813,-8688,1745153675559486811
1719903,-256,-64,-305,1965,-1023,-8288,1745153675559486811
1720095,-323,-72,-322,1922,-1128,-7730,1745153675559486811
1720287,-428,-70,-347,1871,-1088,-8155,1745153675559486811
1720479,-586,-62,-371,1754,-919,-8363,1745153675559486811
1720671,-736,-59,-381,1649,-557,-8091,1745153675559486811
1720863,-823,-57,-377,1662,-105,-8256,1745153675559486811
1721055,-862,-45,-362,1790,365,-8256,1745153675559486811
1721247,-883,-26,-350,1975,783,-8105,1745153675559486811
1721439,-884,-25,-330,2142,1027,-7909,1745153675648503342
1721631,-842,-30,-300,2298,1159,-7768,1745153675648503342
1721823,-761,-53,-271,2388,1275,-7903,1745153675648503342
1722015,-639,-79,-254,2413,1507,-8263,1745153675648503342
1722207,-504,-98,-259,2419,1835,-9027,1745153675648503342
1722399,-384,-124,-276,2126,2354,-9647,1745153675648503342
1722591,-265,-33,-303,1455,2948,-11352,1745153675648503342
1722783,-106,78,-321,1114,2922,-12229,1745153675648503342
1722975,217,87,-343,1191,2280,-10998,1745153675648503342
1723167,637,-4,-373,1380,1621,-9585,1745153675648503342
1723359,994,-144,-441,1468,1382,-9502,1745153675648503342
1723551,1142,-236,-505,1391,1111,-9233,1745153675648503342
1723743,1085,-278,-489,1282,443,-8803,1745153675673258428
1723935,922,-269,-322,1576,-516,-8198,1745153675673258428
1724127,727,-357,-128,1362,-2093,-7183,1745153675673258428
1724319,607,-577,-172,887,-2857,-7830,1745153675673258428
1724511,311,-569,-244,1233,-2152,-9414,1745153675673258428
1724703,-268,-209,92,4271,135,-9271,1745153675673258428
1724895,-924,-37,806,6157,-1206,-7037,1745153675673258428
1725087,-855,-526,1220,7020,-1905,-7823,1745153675673258428
1725279,-251,-1114,1011,6653,-1328,-8487,1745153675673258428
1725471,69,-1475,608,5227,-889,-8984,1745153675673258428
1725663,123,-1603,418,3656,-1403,-8768,1745153675673258428
1725855,154,-1630,441,2283,-2290,-8492,1745153675673258428
1726047,203,-1669,567,1182,-2932,-8526,1745153675750829594
1726239,241,-1666,747,449,-3316,-8779,1745153675750829594
1726431,241,-1617,919,80,-3524,-9055,1745153675750829594
1726623,206,-1537,1030,7,-3619,-9074,1745153675750829594
1726815,155,-1433,1080,156,-3544,-8960,1745153675750829594
1727007,109,-1328,1106,456,-3270,-8950,1745153675750829594
1727199,86,-1245,1145,829,-2854,-8717,1745153675750829594
1727391,84,-1193,1218,1236,-2481,-8457,1745153675750829594
1727583,105,-1165,1314,1578,-2260,-8359,1745153675750829594
1727775,138,-1163,1406,1848,-2168,-8254,1745153675750829594
1727967,175,-1181,1485,1974,-2232,-8072,1745153675750829594
1728159,212,-1194,1548,1908,-2357,-7898,1745153675750829594
1728351,242,-1199,1600,1707,-2540,-7752,1745153675793773942
1728543,261,-1198,1649,1442,-2747,-7534,1745153675793773942
1728735,269,-1187,1706,1124,-2909,-7236,1745153675793773942
1728927,267,-1155,1773,768,-3003,-7037,1745153675793773942
1729119,257,-1106,1837,477,-3070,-6892,1745153675793773942
1729311,246,-1047,1894,254,-3160,-6805,1745153675793773942
1729503,235,-985,1947,94,-3217,-6804,1745153675793773942
1729695,225,-921,1993,56,-3254,-6820,1745153675793773942
1729887,214,-856,2040,74,-3285,-6893,1745153675793773942
1730079,201,-799,2095,165,-3288,-6910,1745153675793773942
1730271,186,-752,2159,259,-3246,-6844,1745153675793773942
1730463,176,-707,2230,333,-3144,-6756,1745153675793773942
1730655,172,-665,2301,381,-3061,-6713,1745153675854722656
1730847,174,-622,2358,422,-2893,-6635,1745153675854722656
1731039,175,-577,2404,369,-2720,-6533,1745153675854722656
1731231,178,-534,2449,342,-2556,-6438,1745153675854722656
1731423,186,-486,2500,292,-2379,-6370,1745153675854722656
1731615,192,-439,2556,259,-2209,-6303,1745153675854722656
1731807,196,-385,2614,250,-2030,-6241,1745153675854722656
1731999,198,-326,2673,244,-1861,-6151,1745153675854722656
1732191,202,-266,2734,276,-1695,-6034,1745153675854722656
1732383,214,-203,2798,322,-1536,-5971,1745153675854722656
1732575,230,-141,2862,365,-1353,-5947,1745153675854722656
1732767,248,-80,2923,428,-1189,-5967,1745153675854722656
1732959,266,-23,2981,487,-1057,-5940,1745153675911084380
1733151,286,33,3038,551,-946,-5900,1745153675911084380
1733343,311,85,3096,612,-849,-5921,1745153675911084380
1733535,337,140,3157,688,-713,-5960,1745153675911084380
1733727,363,203,3219,747,-587,-5973,1745153675911084380
1733919,389,265,3279,820,-487,-5993,1745153675911084380
1734111,418,330,3331,854,-450,-6037,1745153675911084380
1734303,452,399,3378,848,-367,-6184,1745153675911084380
1734495,488,472,3427,850,-253,-6320,1745153675911084380
1734687,518,557,3477,883,-69,-6409,1745153675911084380
1734879,542,649,3526,1028,121,-6511,1745153675911084380
1735071,557,741,3573,1240,327,-6593,1745153675911084380
1735263,565,829,3614,1506,511,-6635,1745153675968800468
1735455,570,905,3649,1799,682,-6635,1745153675968800468
1735647,573,973,3677,2085,844,-6680,1745153675968800468
1735839,573,1033,3700,2335,961,-6718,1745153675968800468
1736031,574,1081,3717,2505,1046,-6765,1745153675968800468
1736223,583,1125,3734,2680,1103,-6805,1745153675968800468
1736415,600,1157,3754,2808,1142,-6875,1745153675968800468
1736607,617,1187,3781,2949,1132,-6797,1745153675968800468
1736799,637,1210,3808,3059,1110,-6712,1745153675968800468
1736991,661,1232,3830,3155,1075,-6699,1745153675968800468
1737183,682,1257,3843,3221,1047,-6717,1745153675968800468
1737375,696,1286,3850,3291,1075,-6789,1745153675968800468
1737567,714,1325,3860,3356,1169,-6903,1745153676029248978
1737759,742,1375,3880,3505,1382,-7050,1745153676029248978
1737951,779,1428,3899,3721,1647,-7184,1745153676029248978
1738143,819,1479,3914,4009,1910,-7213,1745153676029248978
1738335,860,1522,3921,4356,2121,-7157,1745153676029248978
1738527,900,1551,3924,4680,2141,-7139,1745153676029248978
1738719,941,1575,3926,4935,2055,-7092,1745153676029248978
1738911,971,1587,3925,5193,1875,-7074,1745153676029248978
1739103,984,1582,3921,5371,1597,-6984,1745153676029248978
1739295,974,1575,3917,5492,1251,-6969,1745153676029248978
1739487,931,1568,3894,5552,961,-7027,1745153676029248978
1739679,857,1572,3855,5578,688,-7079,1745153676029248978
1739871,752,1592,3802,5574,543,-7088,1745153676095592747
1740063,624,1622,3740,5559,466,-7162,1745153676095592747
1740255,487,1652,3684,5620,485,-7249,1745153676095592747
1740447,353,1673,3636,5754,583,-7355,1745153676095592747
1740639,228,1690,3594,5947,705,-7524,1745153676095592747
1740831,118,1699,3550,6197,867,-7663,1745153676095592747
1741023,30,1699,3505,6474,1027,-7760,1745153676095592747
1741215,-35,1690,3455,6784,1221,-7873,1745153676095592747
1741407,-80,1666,3398,6998,1466,-8054,1745153676095592747
1741599,-111,1635,3344,7137,1774,-8234,1745153676095592747
1741791,-125,1603,3297,7184,2114,-8339,1745153676095592747
1741983,-117,1563,3253,7213,2444,-8423,1745153676095592747
1742175,-84,1516,3207,7214,2758,-8446,1745153676157943792
1742367,-34,1462,3154,7214,2956,-8429,1745153676157943792
1742559,22,1403,3094,7161,3025,-8483,1745153676157943792
1742751,71,1343,3024,7054,2994,-8594,1745153676157943792
1742943,96,1275,2948,7096,2894,-8658,1745153676157943792
1743135,107,1178,2881,7043,2919,-8695,1745153676157943792
1743327,105,1115,2836,6818,2748,-8767,1745153676157943792
1743519,80,1046,2767,6616,2662,-8788,1745153676157943792
1743711,43,965,2686,6353,2631,-8759,1745153676157943792
1743903,-3,901,2594,6044,2587,-8810,1745153676157943792
1744095,-44,853,2498,5746,2658,-8820,1745153676157943792
1744287,-78,819,2409,5445,2710,-8743,1745153676157943792
1744479,-109,787,2309,5195,2754,-8716,1745153676202757654
1744671,-143,762,2193,4990,2719,-8680,1745153676202757654
1744863,-184,736,2070,4830,2692,-8665,1745153676202757654
1745055,-231,717,1955,4709,2626,-8571,1745153676202757654
1745247,-281,721,1856,4650,2540,-8595,1745153676202757654
1745439,-333,694,1764,4696,2424,-8544,1745153676202757654
1745631,-390,658,1674,4750,2280,-8496,1745153676202757654
1745823,-448,630,1585,4821,1995,-8346,1745153676202757654
1746015,-498,593,1491,4877,1695,-8174,1745153676202757654
1746207,-551,528,1394,4919,1388,-7971,1745153676202757654
1746399,-614,456,1296,4861,1085,-7671,1745153676202757654
1746591,-672,386,1210,4703,893,-7411,1745153676202757654
1746783,-709,318,1141,4475,830,-7240,1745153676269204599
1746975,-729,255,1075,4155,885,-7167,1745153676269204599
1747167,-733,210,1008,3808,1004,-7140,1745153676269204599
1747359,-715,183,950,3511,1141,-7080,1745153676269204599
1747551,-662,175,905,3275,1307,-7031,1745153676269204599
1747743,-583,178,871,3153,1450,-7013,1745153676269204599
1747935,-490,182,846,3105,1451,-7010,1745153676269204599
1748127,-387,182,819,3105,1334,-7037,1745153676269204599
1748319,-278,177,791,3121,1196,-7204,1745153676269204599
1748511,-178,169,768,3111,1039,-7352,1745153676269204599
1748703,-97,164,754,3016,840,-7516,1745153676269204599
1748895,-41,169,741,2910,682,-7719,1745153676269204599
1749087,-3,186,731,2799,664,-7916,1745153676319673565
1749279,23,218,733,2736,744,-8074,1745153676319673565
1749471,39,255,752,2763,861,-8120,1745153676319673565
1749663,60,287,784,2842,888,-8074,1745153676319673565
1749855,92,314,818,3000,789,-7952,1745153676319673565
1750047,134,330,835,3191,606,-7863,1745153676319673565
1750239,165,337,836,3352,426,-7778,1745153676319673565
1750431,176,330,839,3469,274,-7721,1745153676319673565
1750623,175,315,848,3513,201,-7721,1745153676319673565
1750815,166,298,857,3478,160,-7702,1745153676319673565
1751007,151,276,857,3439,98,-7715,1745153676319673565
1751199,138,257,846,3318,-44,-7722,1745153676319673565
1751391,127,243,830,3208,-215,-7699,1745153676380020982
1751583,116,235,815,3086,-349,-7667,1745153676380020982
1751775,94,238,801,2963,-583,-7636,1745153676380020982
1751967,60,244,787,2923,-767,-7615,1745153676380020982
1752159,19,250,778,2917,-910,-7635,1745153676380020982
1752351,-27,256,778,2939,-935,-7664,1745153676380020982
1752543,-87,267,779,2995,-850,-7713,1745153676380020982
1752735,-156,278,774,3057,-719,-7755,1745153676380020982
1752927,-222,287,762,3147,-542,-7759,1745153676380020982
1753119,-274,290,745,3238,-312,-7775,1745153676380020982
1753311,-306,288,729,3329,-43,-7801,1745153676380020982
1753503,-326,280,717,3430,210,-7769,1745153676380020982
1753695,-337,262,701,3471,332,-7722,1745153676502633612
1753887,-337,237,681,3445,307,-7679,1745153676502633612
1754079,-323,209,658,3380,188,-7693,1745153676502633612
1754271,-300,188,635,3286,80,-7742,1745153676502633612
1754463,-289,173,617,3156,-12,-7814,1745153676502633612
1754655,-292,167,597,3035,-44,-7883,1745153676502633612
1754847,-301,168,573,2935,-36,-7913,1745153676502633612
1755039,-306,174,540,2856,5,-7862,1745153676502633612
1755231,-301,186,506,2818,43,-7759,1745153676502633612
1755423,-279,201,478,2805,55,-7739,1745153676502633612
1755615,-249,217,453,2846,131,-7779,1745153676502633612
1755807,-222,231,430,2929,239,-7821,1745153676502633612
1755999,-199,240,404,3025,351,-7865,1745153676511042441
1756191,-177,243,381,3119,445,-7892,1745153676511042441
1756383,-150,237,361,3225,489,-7911,1745153676511042441
1756575,-119,223,343,3303,438,-7920,1745153676511042441
1756767,-86,207,321,3350,337,-7968,1745153676511042441
1756959,-61,189,291,3375,207,-8022,1745153676511042441
1757151,-49,172,255,3332,63,-8014,1745153676511042441
1757343,-48,155,220,3298,-89,-7985,1745153676511042441
1757535,-50,139,193,3236,-302,-7915,1745153676511042441
1757727,-50,125,172,3199,-475,-7865,1745153676511042441
1757919,-47,112,160,3159,-604,-7846,1745153676511042441
1758111,-53,103,147,3150,-646,-7849,1745153676511042441
1758303,-72,95,132,3134,-661,-7842,1745153676564718514
1758495,-98,86,116,3122,-641,-7809,1745153676564718514
1758687,-119,79,102,3111,-595,-7747,1745153676564718514
1758879,-128,74,92,3105,-498,-7735,1745153676564718514
1759071,-128,72,84,3092,-360,-7739,1745153676564718514
1759263,-123,72,75,3086,-254,-7724,1745153676564718514
1759455,-111,68,64,3104,-256,-7713,1745153676564718514
1759647,-86,64,54,3129,-289,-7737,1745153676564718514
1759839,-54,57,49,3125,-398,-7754,1745153676564718514
1760031,-22,47,52,3148,-558,-7770,1745153676564718514
1760223,6,41,49,3166,-656,-7841,1745153676564718514
1760415,19,29,35,3160,-759,-7905,1745153676564718514
1760607,19,19,20,3124,-873,-7920,1745153676616241116
1760799,12,11,8,3045,-986,-7913,1745153676616241116
1760991,3,8,1,2988,-1060,-7935,1745153676616241116
1761183,-9,10,-3,2944,-1079,-7911,1745153676616241116
1761375,-28,15,-4,2898,-1090,-7856,1745153676616241116
1761567,-48,22,-2,2883,-1138,-7817,1745153676616241116
1761759,-62,29,1,2914,-1174,-7758,1745153676616241116
1761951,-74,34,5,2967,-1163,-7739,1745153676616241116
1762143,-96,39,7,3012,-1140,-7685,1745153676616241116
1762335,-120,41,5,3083,-1119,-7599,1745153676616241116
1762527,-136,40,0,3141,-1131,-7568,1745153676616241116
1762719,-136,37,-3,3156,-1097,-7555,1745153676616241116
1762911,-131,33,-7,3195,-1036,-7616,1745153676677926438
1763103,-127,30,-17,3198,-954,-7671,1745153676677926438
1763295,-123,23,-27,3204,-899,-7697,1745153676677926438
1763487,-110,13,-34,3212,-877,-7674,1745153676677926438
1763679,-89,0,-37,3214,-921,-7615,1745153676677926438
1763871,-65,-14,-37,3216,-1019,-7520,1745153676677926438
1764063,-40,-32,-35,3166,-1169,-7472,1745153676677926438
1764255,-14,-47,-32,3119,-1305,-7457,1745153676677926438
1764447,4,-55,-28,3066,-1355,-7448,1745153676677926438
1764639,8,-60,-27,3011,-1389,-7426,1745153676677926438
1764831,4,-58,-27,2955,-1400,-7442,1745153676677926438
1765023,-4,-52,-29,2923,-1383,-7468,1745153676677926438
1765215,-16,-41,-33,2903,-1358,-7492,1745153676766011206
1765407,-33,-26,-32,2932,-1325,-7516,1745153676766011206
1765599,-47,-9,-27,2956,-1319,-7507,1745153676766011206
1765791,-57,4,-18,3022,-1326,-7503,1745153676766011206
1765983,-61,12,-6,3098,-1338,-7467,1745153676766011206
1766175,-65,16,6,3158,-1335,-7479,1745153676766011206
1766367,-73,18,15,3190,-1320,-7526,1745153676766011206
1766559,-91,20,16,3211,-1253,-7568,1745153676766011206
1766751,-119,22,10,3181,-1187,-7559,1745153676766011206
1766943,-140,24,3,3133,-1181,-7484,1745153676766011206
1767135,-145,29,0,3069,-1200,-7417,1745153676766011206
1767327,-135,34,2,3017,-1224,-7397,1745153676766011206
1767519,-118,43,9,3010,-1192,-7436,1745153676802454519
1767711,-113,52,15,3006,-1124,-7502,1745153676802454519
1767903,-118,61,17,3030,-1088,-7517,1745153676802454519
1768095,-124,64,16,3097,-1081,-7431,1745153676802454519
1768287,-119,62,18,3164,-1144,-7357,1745153676802454519
1768479,-102,55,21,3227,-1221,-7331,1745153676802454519
1768671,-83,43,23,3257,-1270,-7353,1745153676802454519
1768863,-75,23,21,3271,-1334,-7384,1745153676802454519
1769055,-77,6,16,3262,-1350,-7349,1745153676802454519
1769247,-78,14,9,3223,-1351,-7370,1745153676802454519
1769439,-76,-10,1,3209,-1346,-7367,1745153676802454519
1769631,-69,-25,-4,3149,-1345,-7326,1745153676802454519
1769823,-61,-26,-5,3075,-1322,-7307,1745153676850491059
1770015,-57,-29,-7,3016,-1306,-7313,1745153676850491059
1770207,-58,-28,-10,2982,-1232,-7333,1745153676850491059
1770399,-57,-27,-12,2955,-1136,-7330,1745153676850491059
1770591,-50,-23,-15,2924,-1070,-7284,1745153676850491059
1770783,-34,-18,-15,2927,-1033,-7256,1745153676850491059
1770975,-10,-13,-17,2947,-1052,-7302,1745153676850491059
1771167,15,-6,-20,2991,-1107,-7339,1745153676850491059
1771359,34,-2,-24,3038,-1170,-7423,1745153676850491059
1771551,43,1,-28,3081,-1213,-7484,1745153676850491059
1771743,43,0,-32,3134,-1274,-7484,1745153676850491059
1771935,38,-6,-35,3171,-1368,-7456,1745153676850491059
1772127,34,-13,-35,3175,-1445,-7455,1745153676908609851
1772319,32,-21,-31,3130,-1506,-7474,1745153676908609851
1772511,29,-25,-28,3107,-1492,-7501,1745153676908609851
1772703,17,-26,-25,3090,-1446,-7525,1745153676908609851
1772895,0,-24,-25,3060,-1376,-7485,1745153676908609851
1773087,-12,-23,-23,3052,-1359,-7435,1745153676908609851
1773279,-13,-20,-20,3052,-1361,-7402,1745153676908609851
1773471,-6,-17,-16,3066,-1323,-7373,1745153676908609851
1773663,0,-14,-11,3083,-1272,-7396,1745153676908609851
1773855,-3,-11,-9,3128,-1202,-7414,1745153676908609851
1774047,-7,-12,-13,3170,-1163,-7392,1745153676908609851
1774239,-6,-16,-17,3179,-1160,-7352,1745153676908609851
1774431,5,-22,-22,3156,-1147,-7368,1745153676981481165
1774623,17,-25,-25,3144,-1127,-7407,1745153676981481165
1774815,19,-27,-29,3122,-1118,-7409,1745153676981481165
1775007,17,-30,-34,3098,-1201,-7371,1745153676981481165
1775199,21,-35,-36,3061,-1293,-7319,1745153676981481165
1775391,30,-37,-34,3029,-1330,-7304,1745153676981481165
1775583,33,-37,-31,3003,-1377,-7319,1745153676981481165
1775775,27,-32,-27,2976,-1410,-7340,1745153676981481165
1775967,15,-25,-24,2957,-1459,-7343,1745153676981481165
1776159,0,-18,-20,2960,-1477,-7354,1745153676981481165
1776351,-15,-10,-15,2978,-1482,-7363,1745153676981481165
1776543,-29,-2,-8,3001,-1460,-7373,1745153676981481165
1776735,-38,6,3,3054,-1406,-7403,1745153677022395531
1776927,-46,14,13,3075,-1317,-7475,1745153677022395531
1777119,-56,19,21,3120,-1186,-7487,1745153677022395531
1777311,-66,20,26,3133,-1063,-7476,1745153677022395531
1777503,-66,17,27,3137,-990,-7437,1745153677022395531
1777695,-57,14,28,3141,-948,-7382,1745153677022395531
1777887,-39,8,28,3108,-994,-7335,1745153677022395531
1778079,-18,1,30,3089,-1113,-7322,1745153677022395531
1778271,6,-5,32,3047,-1216,-7359,1745153677022395531
1778463,21,-9,34,3021,-1233,-7412,1745153677022395531
1778655,22,-7,32,2987,-1231,-7437,1745153677022395531
1778847,13,-4,27,2977,-1248,-7444,1745153677022395531
1779039,6,-1,22,2973,-1227,-7441,1745153677086518851
1779231,-3,2,21,3000,-1175,-7437,1745153677086518851
1779423,-14,4,21,3022,-1151,-7422,1745153677086518851
1779615,-27,5,22,3068,-1169,-7425,1745153677086518851
1779807,-37,7,23,3091,-1174,-7440,1745153677086518851
1779999,-41,8,22,3120,-1186,-7453,1745153677086518851
1780191,-46,6,20,3153,-1139,-7452,1745153677086518851
1780383,-54,3,14,3160,-1131,-7431,1745153677086518851
1780575,-62,0,6,3156,-1129,-7429,1745153677086518851
1780767,-68,-2,-1,3128,-1119,-7421,1745153677086518851
1780959,-68,-4,-7,3085,-1112,-7428,1745153677086518851
1781151,-65,-6,-11,3068,-1102,-7439,1745153677086518851
1781343,-62,-7,-14,3041,-1143,-7444,1745153677143046616
1781535,-55,-8,-13,3032,-1158,-7474,1745153677143046616
1781727,-46,-8,-11,3014,-1165,-7499,1745153677143046616
1781919,-39,-7,-7,3024,-1154,-7497,1745153677143046616
1782111,-33,-8,-1,3036,-1167,-7467,1745153677143046616
1782303,-25,-11,6,3029,-1167,-7481,1745153677143046616
1782495,-17,-11,11,3006,-1132,-7515,1745153677143046616
1782687,-15,-9,14,2986,-1095,-7528,1745153677143046616
1782879,-15,-5,14,2971,-1053,-7525,1745153677143046616
1783071,-16,-2,11,2940,-1044,-7513,1745153677143046616
1783263,-11,3,7,2950,-1029,-7507,1745153677143046616
1783455,-4,10,4,2954,-1015,-7501,1745153677143046616
1783647,2,17,0,2982,-1014,-7479,1745153677210437198
1783839,5,22,-4,3006,-1007,-7472,1745153677210437198
1784031,9,22,-9,3039,-1042,-7419,1745153677210437198
1784223,13,21,-15,3072,-1099,-7383,1745153677210437198
1784415,19,16,-20,3070,-1169,-7372,1745153677210437198
1784607,22,12,-26,3077,-1236,-7352,1745153677210437198
1784799,21,9,-32,3060,-1256,-7349,1745153677210437198
1784991,13,7,-37,3080,-1273,-7336,1745153677210437198
1785183,3,3,-41,3090,-1295,-7301,1745153677210437198
1785375,-5,-1,-44,3093,-1323,-7286,1745153677210437198
1785567,-11,-8,-42,3105,-1308,-7315,1745153677210437198
1785759,-17,-12,-39,3105,-1261,-7336,1745153677210437198
1785951,-30,-15,-34,3102,-1179,-7357,1745153677259391439
1786143,-43,-17,-31,3090,-1144,-7372,1745153677259391439
1786335,-48,-20,-27,3096,-1124,-7374,1745153677259391439
1786527,-43,-22,-22,3089,-1092,-7381,1745153677259391439
1786719,-37,-24,-16,3065,-1066,-7377,1745153677259391439
1786911,-30,-23,-11,3035,-1012,-7398,1745153677259391439
1787103,-22,-20,-10,3026,-982,-7398,1745153677259391439
1787295,-10,-16,-11,3013,-959,-7417,1745153677259391439
1787487,6,-10,-14,2981,-955,-7431,1745153677259391439
1787679,23,-3,-17,2977,-963,-7430,1745153677259391439
1787871,37,3,-19,2960,-1024,-7423,1745153677259391439
1788063,48,10,-20,2974,-1083,-7423,1745153677259391439
1788255,54,14,-19,2971,-1145,-7384,1745153677320317965
1788447,56,18,-18,2962,-1174,-7363,1745153677320317965
1788639,56,24,-17,2972,-1179,-7374,1745153677320317965
1788831,51,28,-17,2996,-1176,-7353,1745153677320317965
1789023,44,32,-18,3016,-1194,-7369,1745153677320317965
1789215,36,35,-19,3027,-1207,-7399,1745153677320317965
1789407,24,36,-20,3068,-1201,-7410,1745153677320317965
1789599,10,37,-22,3090,-1205,-7404,1745153677320317965
1789791,-7,34,-21,3119,-1168,-7391,1745153677320317965
1789983,-23,32,-21,3129,-1135,-7359,1745153677320317965
1790175,-30,25,-19,3117,-1100,-7336,1745153677320317965
1790367,-25,19,-19,3120,-1030,-7333,1745153677320317965
1790559,-17,15,-23,3104,-983,-7361,1745153677382431252
1790751,-11,13,-29,3107,-963,-7371,1745153677382431252
1790943,0,9,-36,3127,-976,-7388,1745153677382431252
1791135,15,7,-42,3116,-1036,-7410,1745153677382431252
1791327,29,3,-45,3118,-1102,-7446,1745153677382431252
1791519,34,0,-47,3106,-1138,-7477,1745153677382431252
1791711,29,-2,-51,3094,-1182,-7492,1745153677382431252
1791903,19,-5,-54,3072,-1233,-7486,1745153677382431252
1792095,8,-6,-56,3054,-1258,-7481,1745153677382431252
1792287,-2,-6,-55,3007,-1276,-7462,1745153677382431252
1792479,-14,-2,-56,2990,-1247,-7447,1745153677382431252
1792671,-30,3,-58,2969,-1236,-7431,1745153677382431252
1792863,-42,8,-59,2942,-1172,-7427,1745153677434535099
1793055,-49,14,-60,2953,-1129,-7450,1745153677434535099
1793247,-49,20,-59,2988,-1073,-7443,1745153677434535099
1793439,-46,26,-60,3014,-1009,-7426,1745153677434535099
1793631,-37,28,-61,3073,-1015,-7394,1745153677434535099
1793823,-23,26,-59,3123,-1062,-7352,1745153677434535099
1794015,-3,22,-56,3145,-1115,-7386,1745153677434535099
1794207,18,16,-52,3151,-1167,-7432,1745153677434535099
1794399,31,11,-48,3155,-1158,-7472,1745153677434535099
1794591,39,7,-45,3131,-1123,-7500,1745153677434535099
1794783,44,6,-44,3110,-1121,-7479,1745153677434535099
1794975,49,3,-44,3079,-1130,-7458,1745153677434535099
1795167,59,0,-41,3062,-1224,-7469,1745153677495129233
1795359,70,-1,-35,3029,-1292,-7538,1745153677495129233
1795551,71,-2,-27,3016,-1329,-7612,1745153677495129233
1795743,56,1,-22,3005,-1337,-7625,1745153677495129233
1795935,30,5,-21,3000,-1348,-7614,1745153677495129233
1796127,5,6,-22,3008,-1340,-7545,1745153677495129233
1796319,-15,9,-20,2997,-1339,-7484,1745153677495129233
1796511,-29,9,-17,2978,-1343,-7466,1745153677495129233
1796703,-36,12,-14,2996,-1313,-7488,1745153677495129233
1796895,-44,17,-16,3015,-1245,-7508,1745153677495129233
1797087,-53,22,-21,3066,-1179,-7505,1745153677495129233
1797279,-60,24,-29,3113,-1164,-7469,1745153677495129233
1797471,-59,23,-34,3147,-1190,-7483,1745153677551499083
1797663,-48,19,-36,3186,-1213,-7498,1745153677551499083
1797855,-38,13,-35,3198,-1221,-7526,1745153677551499083
1798047,-36,6,-34,3214,-1180,-7557,1745153677551499083
1798239,-38,0,-36,3173,-1106,-7539,1745153677551499083
1798431,-37,-4,-39,3136,-1065,-7487,1745153677551499083
1798623,-28,-8,-39,3071,-1052,-7447,1745153677551499083
1798815,-9,-10,-38,3037,-1049,-7464,1745153677551499083
1799007,11,-10,-37,3021,-1071,-7487,1745153677551499083
1799199,25,-7,-37,3023,-1139,-7494,1745153677551499083
1799391,35,-5,-38,3019,-1200,-7497,1745153677551499083
1799583,44,-1,-37,3027,-1237,-7492,1745153677551499083
1799775,49,4,-34,3046,-1243,-7515,1745153677625756842
1799967,49,6,-31,3070,-1207,-7522,1745153677625756842
1800159,44,6,-30,3080,-1172,-7555,1745153677625756842
1800351,35,6,-32,3080,-1157,-7538,1745153677625756842
1800543,27,3,-37,3088,-1237,-7501,1745153677625756842
1800735,24,2,-37,3076,-1313,-7485,1745153677625756842
1800927,24,3,-32,3060,-1340,-7517,1745153677625756842
1801119,18,3,-27,3055,-1300,-7566,1745153677625756842
1801311,1,5,-25,3060,-1220,-7535,1745153677625756842
1801503,-13,5,-27,3062,-1173,-7467,1745153677625756842
1801695,-15,4,-29,3062,-1143,-7384,1745153677625756842
1801887,-8,3,-28,3080,-1186,-7324,1745153677625756842
1802079,-1,1,-26,3094,-1239,-7293,1745153677668269735
1802271,5,-2,-23,3092,-1314,-7306,1745153677668269735
1802463,8,-4,-20,3082,-1305,-7360,1745153677668269735
1802655,4,-3,-18,3063,-1241,-7440,1745153677668269735
1802847,-3,0,-16,3052,-1199,-7449,1745153677668269735
1803039,-3,3,-14,3076,-1152,-7438,1745153677668269735
1803231,4,6,-10,3079,-1140,-7453,1745153677668269735
1803423,11,7,-7,3103,-1132,-7451,1745153677668269735
1803615,13,7,-5,3101,-1158,-7453,1745153677668269735
1803807,9,7,-7,3122,-1181,-7425,1745153677668269735
1803999,6,4,-8,3100,-1255,-7395,1745153677668269735
1804191,6,2,-5,3078,-1314,-7353,1745153677668269735
1804383,6,1,-2,3057,-1333,-7369,1745153677729593029
1804575,0,3,0,3028,-1319,-7384,1745153677729593029
1804767,-12,8,-3,3018,-1284,-7364,1745153677729593029
1804959,-23,14,-7,3005,-1231,-7361,1745153677729593029
1805151,-28,22,-10,3022,-1171,-7357,1745153677729593029
1805343,-27,30,-8,3054,-1168,-7364,1745153677729593029
1805535,-23,34,-4,3112,-1180,-7385,1745153677729593029
1805727,-19,35,-3,3151,-1203,-7414,1745153677729593029
1805919,-22,32,-1,3211,-1234,-7425,1745153677729593029
1806111,-28,28,-2,3211,-1193,-7457,1745153677729593029
1806303,-35,24,-5,3175,-1140,-7448,1745153677729593029
1806495,-36,19,-8,3145,-1125,-7404,1745153677729593029
1806687,-27,16,-11,3113,-1080,-7367,1745153677789665136
1806879,-13,15,-15,3076,-1050,-7406,1745153677789665136
1807071,0,16,-20,3056,-1001,-7410,1745153677789665136
1807263,11,18,-28,3056,-1037,-7397,1745153677789665136
1807455,24,18,-35,3076,-1105,-7360,1745153677789665136
1807647,42,15,-36,3107,-1179,-7348,1745153677789665136
1807839,61,11,-33,3132,-1247,-7395,1745153677789665136
1808031,73,6,-27,3143,-1293,-7424,1745153677789665136
1808223,74,-1,-25,3151,-1300,-7454,1745153677789665136
1808415,67,-7,-24,3151,-1318,-7444,1745153677789665136
1808607,58,-11,-24,3121,-1299,-7450,1745153677789665136
1808799,49,-12,-23,3084,-1307,-7452,1745153677789665136
1808991,37,-11,-19,3052,-1330,-7432,1745153677843889120
1809183,27,-8,-13,3025,-1365,-7440,1745153677843889120
1809375,15,-3,-6,2991,-1380,-7456,1745153677843889120
1809567,3,5,-1,3005,-1348,-7443,1745153677843889120
1809759,-8,13,3,3014,-1298,-7426,1745153677843889120
1809951,-19,20,4,3034,-1268,-7410,1745153677843889120
1810143,-25,26,5,3045,-1234,-7404,1745153677843889120
1810335,-28,31,6,3082,-1200,-7389,1745153677843889120
1810527,-29,34,4,3096,-1171,-7408,1745153677843889120
1810719,-29,36,0,3118,-1149,-7405,1745153677843889120
1810911,-28,34,-2,3148,-1135,-7413,1745153677843889120
1811103,-25,32,-3,3171,-1138,-7422,1745153677843889120
1811295,-23,29,-5,3183,-1162,-7396,1745153677903081861
1811487,-23,22,-8,3181,-1185,-7377,1745153677903081861
1811679,-23,16,-10,3166,-1225,-7349,1745153677903081861
1811871,-22,10,-11,3138,-1273,-7357,1745153677903081861
1812063,-21,7,-11,3108,-1245,-7369,1745153677903081861
1812255,-20,7,-10,3086,-1220,-7389,1745153677903081861
1812447,-20,9,-10,3069,-1168,-7410,1745153677903081861
1812639,-17,11,-11,3087,-1152,-7428,1745153677903081861
1812831,-12,13,-13,3091,-1116,-7442,1745153677903081861
1813023,-10,15,-13,3098,-1115,-7460,1745153677903081861
1813215,-10,16,-13,3124,-1085,-7453,1745153677903081861
1813407,-9,15,-10,3136,-1089,-7444,1745153677903081861
1813599,-6,13,-7,3139,-1091,-7431,1745153677975635208
1813791,3,10,-4,3126,-1076,-7403,1745153677975635208
1813983,11,7,-3,3098,-1105,-7384,1745153677975635208
1814175,17,5,-5,3078,-1181,-7365,1745153677975635208
1814367,24,7,-9,3044,-1225,-7404,1745153677975635208
1814559,27,12,-9,3013,-1219,-7434,1745153677975635208
1814751,24,18,-10,3014,-1212,-7428,1745153677975635208
1814943,20,23,-10,3034,-1223,-7417,1745153677975635208
1815135,20,27,-7,3076,-1232,-7413,1745153677975635208
1815327,18,29,-3,3114,-1257,-7411,1745153677975635208
1815519,13,30,2,3126,-1269,-7400,1745153677975635208
1815711,7,27,8,3155,-1287,-7365,1745153677975635208
1815903,3,21,14,3153,-1315,-7385,1745153678018912053
1816095,-3,17,20,3126,-1292,-7386,1745153678018912053
1816287,-13,16,24,3101,-1311,-7355,1745153678018912053
1816479,-24,16,27,3061,-1278,-7346,1745153678018912053
1816671,-29,18,30,3047,-1269,-7379,1745153678018912053
1816863,-34,23,31,3026,-1190,-7427,1745153678018912053
1817055,-44,29,30,3035,-1126,-7450,1745153678018912053
1817247,-50,34,28,3076,-1085,-7429,1745153678018912053
1817439,-46,40,27,3116,-1032,-7449,1745153678018912053
1817631,-38,38,26,3152,-948,-7446,1745153678018912053
1817823,-34,36,23,3180,-897,-7455,1745153678018912053
1818015,-30,30,14,3212,-857,-7446,1745153678018912053
1818207,-21,22,3,3217,-887,-7403,1745153678079480145
1818399,-6,15,-7,3212,-970,-7376,1745153678079480145
1818591,7,7,-15,3187,-1016,-7403,1745153678079480145
1818783,13,3,-25,3164,-1063,-7414,1745153678079480145
1818975,15,0,-35,3136,-1078,-7443,1745153678079480145
1819167,12,1,-44,3115,-1072,-7464,1745153678079480145
1819359,8,3,-52,3090,-1032,-7455,1745153678079480145
1819551,4,5,-57,3096,-1039,-7436,1745153678079480145
1819743,2,5,-58,3124,-1122,-7366,1745153678079480145
1819935,2,3,-54,3142,-1240,-7336,1745153678079480145
1820127,5,0,-45,3142,-1308,-7373,1745153678079480145
1820319,6,0,-36,3143,-1323,-7450,1745153678079480145
1820511,-6,1,-29,3133,-1249,-7494,1745153678145153087
1820703,-25,6,-26,3091,-1121,-7491,1745153678145153087
1820895,-37,11,-25,3093,-1044,-7451,1745153678145153087
1821087,-35,14,-22,3088,-999,-7396,1745153678145153087
