timestamp,gyr_x,gyr_y,gyr_z,acc_x,acc_y,acc_z,pkt_time_ns
245345,-50,-109,255,1884,4077,-6632,1745187642423490352
245537,-22,-73,264,1526,3204,-7239,1745187642423490352
245729,33,-108,194,1600,3464,-7017,1745187642423490352
245921,83,-83,157,1636,2959,-7244,1745187642423490352
246113,80,-40,127,1763,2474,-7329,1745187642423490352
246305,84,-39,115,1966,2134,-7443,1745187642423490352
246497,67,-16,124,1952,2153,-7596,1745187642423490352
246689,56,20,134,1915,2295,-7774,1745187642423490352
246881,47,42,117,1957,2419,-7908,1745187642423490352
247073,25,67,87,2043,2425,-7944,1745187642423490352
247265,15,84,64,2090,2382,-7914,1745187642423490352
247457,10,91,54,2167,2251,-7868,1745187642423490352
247649,1,83,51,2298,2261,-7742,1745187642479944419
247841,2,63,63,2289,2633,-7508,1745187642479944419
248033,5,39,85,2309,3006,-7298,1745187642479944419
248225,-1,20,93,2345,3109,-7160,1745187642479944419
248417,-17,8,80,2233,3090,-7032,1745187642479944419
248609,-36,10,63,2192,3054,-7044,1745187642479944419
248801,-51,18,41,2239,2980,-7157,1745187642479944419
248993,-68,16,16,2306,2736,-7265,1745187642479944419
249185,-86,13,-3,2358,2601,-7474,1745187642479944419
249377,-97,12,-13,2434,2661,-7718,1745187642479944419
249569,-103,4,-17,2490,2686,-7915,1745187642479944419
249761,-108,-15,-17,2547,2618,-8097,1745187642479944419
249953,-96,-47,33,2335,2510,-8213,1745187642540667458
250145,-57,-70,165,2354,3126,-8312,1745187642540667458
250337,-14,-78,248,2437,3923,-8364,1745187642540667458
250529,69,-72,219,2533,4389,-8278,1745187642540667458
250721,188,-46,108,2509,4481,-8136,1745187642540667458
250913,237,-24,-32,2653,2937,-8412,1745187642540667458
251105,288,-25,-204,3100,4665,-7716,1745187642540667458
251297,619,-20,-336,2960,5584,-7917,1745187642540667458
251489,765,-39,-417,2453,5072,-7868,1745187642540667458
251681,874,-127,-401,2093,3604,-7621,1745187642540667458
251873,790,-174,-346,2743,-2153,-7678,1745187642540667458
252065,-81,-361,-412,2916,-7737,-6778,1745187642540667458
252257,-662,-417,-389,1647,-5418,-6833,1745187642600001395
252449,-1175,-436,-170,1010,-1420,-7817,1745187642600001395
252641,-1917,-388,-21,1320,1561,-8698,1745187642600001395
252833,-2210,-400,-78,929,4027,-5641,1745187642600001395
253025,-1478,-615,-288,809,5945,-5710,1745187642600001395
253217,-936,-403,-308,972,7888,-6216,1745187642600001395
253409,-468,-271,-344,1243,7801,-5987,1745187642600001395
253601,-17,-125,-400,1213,6446,-6182,1745187642600001395
253793,303,-21,-384,1354,4636,-6565,1745187642600001395
253985,477,6,-354,1658,3158,-6385,1745187642600001395
254177,523,93,-379,1942,2781,-6133,1745187642600001395
254369,464,143,-427,1363,907,-7167,1745187642600001395
254561,293,80,-295,1729,1525,-7323,1745187642655281880
254753,102,-64,-303,1664,1617,-7213,1745187642655281880
254945,-33,-134,-301,1540,1948,-7000,1745187642655281880
255137,-98,-152,-297,1407,2447,-7031,1745187642655281880
255329,-123,-153,-301,1279,2918,-7079,1745187642655281880
255521,-107,-153,-311,1207,3213,-7140,1745187642655281880
255713,-61,-142,-314,1194,3328,-7133,1745187642655281880
255905,-7,-127,-308,1200,3240,-7138,1745187642655281880
256097,44,-115,-302,1199,3040,-7110,1745187642655281880
256289,72,-106,-305,1268,2998,-7114,1745187642655281880
256481,78,-107,-321,1323,2929,-7118,1745187642655281880
256673,65,-110,-326,1385,2914,-7107,1745187642655281880
256865,35,-114,-320,1442,2891,-7030,1745187642716696007
257057,-20,-120,-314,1492,2833,-7022,1745187642716696007
257249,-78,-132,-309,1499,2852,-7006,1745187642716696007
257441,-118,-143,-302,1435,3006,-6987,1745187642716696007
257633,-136,-148,-290,1380,3185,-7002,1745187642716696007
257825,-133,-146,-285,1332,3374,-7077,1745187642716696007
258017,-117,-139,-289,1312,3517,-7109,1745187642716696007
258209,-98,-133,-294,1332,3525,-7157,1745187642716696007
258401,-83,-128,-293,1359,3465,-7237,1745187642716696007
258593,-73,-124,-283,1425,3428,-7314,1745187642716696007
258785,-69,-121,-272,1476,3429,-7395,1745187642716696007
258977,-69,-122,-268,1528,3433,-7479,1745187642716696007
259169,-70,-126,-270,1546,3451,-7531,1745187642771919929
259361,-78,-127,-271,1565,3371,-7484,1745187642771919929
259553,-99,-128,-269,1573,3184,-7445,1745187642771919929
259745,-121,-135,-262,1553,3023,-7423,1745187642771919929
259937,-134,-143,-252,1479,2932,-7408,1745187642771919929
260129,-144,-150,-241,1362,2965,-7431,1745187642771919929
260321,-159,-150,-236,1249,3061,-7400,1745187642771919929
260513,-175,-143,-238,1166,3145,-7397,1745187642771919929
260705,-186,-132,-241,1121,3207,-7375,1745187642771919929
260897,-185,-115,-239,1112,3251,-7349,1745187642771919929
261089,-177,-101,-233,1189,3240,-7421,1745187642771919929
261281,-159,-91,-225,1245,3230,-7472,1745187642771919929
261473,-144,-83,-218,1266,3240,-7488,1745187642832842393
261665,-132,-73,-213,1323,3314,-7500,1745187642832842393
261857,-123,-63,-208,1364,3492,-7543,1745187642832842393
262049,-111,-52,-208,1397,3629,-7554,1745187642832842393
262241,-92,-39,-203,1404,3697,-7580,1745187642832842393
262433,-65,-27,-193,1399,3768,-7586,1745187642832842393
262625,-36,-17,-183,1378,3834,-7601,1745187642832842393
262817,-13,-10,-178,1357,3868,-7644,1745187642832842393
263009,6,-5,-175,1313,3855,-7633,1745187642832842393
263201,26,3,-170,1265,3909,-7661,1745187642832842393
263393,36,18,-165,1205,3961,-7627,1745187642832842393
263585,37,31,-162,1210,4023,-7645,1745187642832842393
263777,50,39,-158,1210,4057,-7608,1745187642912597394
263969,69,44,-149,1200,3986,-7633,1745187642912597394
264161,87,48,-139,1182,3876,-7644,1745187642912597394
264353,101,53,-130,1133,3718,-7626,1745187642912597394
264545,116,61,-125,1059,3682,-7611,1745187642912597394
264737,125,71,-116,1035,3664,-7631,1745187642912597394
264929,147,79,-105,1026,3698,-7578,1745187642912597394
265121,173,86,-92,1017,3757,-7586,1745187642912597394
265313,199,95,-82,1015,3797,-7569,1745187642912597394
265505,225,103,-77,978,3798,-7539,1745187642912597394
265697,248,112,-77,955,3797,-7513,1745187642912597394
265889,270,120,-76,937,3742,-7427,1745187642912597394
266081,291,127,-73,927,3682,-7364,1745187642958183280
266273,305,140,-71,891,3553,-7197,1745187642958183280
266465,312,159,-66,894,3343,-7048,1745187642958183280
266657,307,181,-60,959,3185,-6996,1745187642958183280
266849,278,200,-59,1067,3120,-6996,1745187642958183280
267041,237,219,-68,1238,3179,-6901,1745187642958183280
267233,215,234,-86,1386,3451,-6766,1745187642958183280
267425,221,247,-113,1479,3791,-6762,1745187642958183280
267617,245,252,-142,1530,3932,-6966,1745187642958183280
267809,280,248,-162,1541,3725,-7184,1745187642958183280
268001,323,242,-163,1476,3333,-7387,1745187642958183280
268193,362,238,-154,1417,3013,-7540,1745187642958183280
268385,376,234,-144,1388,2869,-7637,1745187643005575243
268577,374,228,-140,1342,2854,-7767,1745187643005575243
268769,367,221,-140,1316,2927,-7858,1745187643005575243
268961,367,214,-140,1319,3074,-7894,1745187643005575243
269153,374,212,-141,1334,3275,-7938,1745187643005575243
269345,385,208,-144,1361,3387,-8052,1745187643005575243
269537,397,207,-148,1419,3396,-7990,1745187643005575243
269729,406,210,-152,1462,3332,-8006,1745187643005575243
269921,399,210,-150,1509,3251,-7954,1745187643005575243
270113,374,202,-139,1565,3162,-7879,1745187643005575243
270305,333,189,-124,1600,3043,-7756,1745187643005575243
270497,287,178,-107,1639,2907,-7537,1745187643005575243
270689,243,169,-91,1710,2788,-7463,1745187643064800222
270881,205,160,-77,1783,2741,-7481,1745187643064800222
271073,166,147,-67,1842,2671,-7523,1745187643064800222
271265,133,125,-61,1868,2602,-7512,1745187643064800222
271457,112,99,-60,1817,2602,-7438,1745187643064800222
271649,96,72,-67,1692,2645,-7403,1745187643064800222
271841,78,50,-75,1522,2611,-7392,1745187643064800222
272033,66,33,-75,1356,2533,-7402,1745187643064800222
272225,66,20,-66,1199,2490,-7363,1745187643064800222
272417,63,15,-56,1066,2513,-7299,1745187643064800222
272609,47,17,-52,968,2590,-7251,1745187643064800222
272801,25,21,-54,890,2619,-7184,1745187643064800222
272993,6,28,-53,851,2618,-7166,1745187643127629596
273185,-10,39,-48,870,2624,-7183,1745187643127629596
273377,-28,56,-37,917,2616,-7172,1745187643127629596
273569,-41,73,-27,1035,2628,-7154,1745187643127629596
273761,-52,87,-20,1178,2679,-7163,1745187643127629596
273953,-57,97,-17,1329,2738,-7197,1745187643127629596
274145,-55,103,-17,1453,2827,-7247,1745187643127629596
274337,-44,103,-21,1548,2938,-7327,1745187643127629596
274529,-25,102,-26,1601,2976,-7371,1745187643127629596
274721,7,101,-28,1617,2966,-7418,1745187643127629596
274913,50,98,-30,1646,2926,-7584,1745187643127629596
275105,92,98,-28,1636,2879,-7776,1745187643127629596
275297,133,98,-22,1643,2788,-7918,1745187643187315249
275489,178,100,-11,1678,2713,-8004,1745187643187315249
275681,226,105,4,1732,2637,-8043,1745187643187315249
275873,267,109,23,1795,2597,-8085,1745187643187315249
276065,296,115,43,1863,2551,-8058,1745187643187315249
276257,313,121,63,1937,2570,-8049,1745187643187315249
276449,324,126,77,2001,2696,-8038,1745187643187315249
276641,333,129,89,2060,2851,-8002,1745187643187315249
276833,339,130,102,2090,2964,-8010,1745187643187315249
277025,340,129,117,2103,3078,-8043,1745187643187315249
277217,335,125,132,2083,3150,-8092,1745187643187315249
277409,328,118,145,2033,3250,-8201,1745187643187315249
277601,329,111,154,1946,3327,-8291,1745187643238690457
277793,345,106,161,1847,3429,-8317,1745187643238690457
277985,371,103,166,1732,3479,-8386,1745187643238690457
278177,403,105,174,1660,3455,-8494,1745187643238690457
278369,437,109,183,1616,3370,-8587,1745187643238690457
278561,470,113,195,1591,3234,-8691,1745187643238690457
278753,506,115,211,1608,3123,-8776,1745187643238690457
278945,544,115,225,1608,2976,-8841,1745187643238690457
279137,573,116,232,1607,2844,-8887,1745187643238690457
279329,585,113,237,1648,2723,-9006,1745187643238690457
279521,574,108,240,1714,2631,-9085,1745187643238690457
279713,547,100,240,1788,2610,-9052,1745187643238690457
279905,517,91,240,1852,2647,-9005,1745187643299227664
280097,494,79,237,1879,2763,-8973,1745187643299227664
280289,475,68,227,1887,2929,-8954,1745187643299227664
280481,462,58,209,1887,3134,-8968,1745187643299227664
280673,450,52,184,1855,3244,-8927,1745187643299227664
280865,444,47,158,1804,3267,-8853,1745187643299227664
281057,446,46,135,1748,3234,-8817,1745187643299227664
281249,452,52,119,1707,3110,-8822,1745187643299227664
281441,453,64,113,1671,2735,-8898,1745187643299227664
281633,458,83,119,1664,2275,-9006,1745187643299227664
281825,464,107,132,1737,1805,-9155,1745187643299227664
282017,465,134,140,1845,1452,-9309,1745187643299227664
282209,461,167,143,2064,1191,-9555,1745187643358190094
282401,448,203,136,2353,1004,-9600,1745187643358190094
282593,424,230,126,2681,795,-9585,1745187643358190094
282785,397,249,121,3032,628,-9734,1745187643358190094
282977,366,260,118,3379,545,-9875,1745187643358190094
283169,341,269,117,3683,453,-9755,1745187643358190094
283361,358,322,116,3809,188,-9723,1745187643358190094
283553,351,350,127,3945,-50,-10139,1745187643358190094
283745,330,357,115,4273,-308,-10249,1745187643358190094
283937,238,337,91,4391,-338,-10899,1745187643358190094
284129,129,272,67,4481,-258,-10592,1745187643358190094
284321,84,315,34,4662,-23,-11010,1745187643358190094
284513,50,337,7,4836,188,-11215,1745187643418340066
284705,16,360,-8,5063,325,-11521,1745187643418340066
284897,19,360,-30,5220,464,-12072,1745187643418340066
285089,50,345,-63,5358,753,-11937,1745187643418340066
285281,31,356,-96,5548,938,-11917,1745187643418340066
285473,-26,385,-119,5838,1017,-11924,1745187643418340066
285665,-135,402,-130,6196,862,-11920,1745187643418340066
285857,-281,389,-109,6600,394,-11872,1745187643418340066
286049,-455,352,-42,6942,-314,-11873,1745187643418340066
286241,-619,283,72,7282,-907,-11783,1745187643418340066
286433,-760,216,199,7630,-1251,-11754,1745187643418340066
286625,-885,132,288,7933,-1277,-11771,1745187643418340066
286817,-1003,37,317,8206,-1203,-11838,1745187643476820000
287009,-1138,-57,305,8468,-1132,-11955,1745187643476820000
287201,-1296,-151,288,8531,-1153,-11992,1745187643476820000
287393,-1448,-251,298,8656,-1227,-11971,1745187643476820000
287585,-1571,-350,345,9179,-1187,-11953,1745187643476820000
287777,-1694,-441,415,9234,-1043,-11765,1745187643476820000
287969,-1795,-538,490,9158,-858,-11610,1745187643476820000
288161,-1869,-640,571,9298,-666,-11594,1745187643476820000
288353,-1927,-748,662,9497,-581,-11622,1745187643476820000
288545,-1954,-873,766,9686,-683,-11466,1745187643476820000
288737,-1937,-1022,875,9829,-920,-11180,1745187643476820000
288929,-1857,-1166,967,9848,-1165,-10844,1745187643476820000
289121,-1791,-1301,1012,9792,-1394,-10631,1745187643538795163
289313,-1788,-1455,1026,9676,-1712,-10527,1745187643538795163
289505,-1843,-1599,1026,9506,-1995,-10312,1745187643538795163
289697,-1936,-1708,1035,9309,-2132,-10055,1745187643538795163
289889,-2045,-1797,1061,9106,-2020,-9817,1745187643538795163
290081,-2147,-1884,1096,8966,-1645,-9681,1745187643538795163
290273,-2250,-1975,1128,8795,-1170,-9571,1745187643538795163
290465,-2341,-2071,1159,8615,-673,-9410,1745187643538795163
290657,-2397,-2159,1203,8465,-183,-9160,1745187643538795163
290849,-2405,-2245,1260,8314,340,-8882,1745187643538795163
291041,-2371,-2335,1320,8190,825,-8605,1745187643538795163
291233,-2306,-2426,1376,8081,1286,-8359,1745187643538795163
291425,-2226,-2518,1428,7944,1656,-8203,1745187643598779459
291617,-2141,-2613,1482,7858,1891,-8022,1745187643598779459
291809,-2034,-2704,1549,7766,2100,-7659,1745187643598779459
292001,-1906,-2792,1629,7670,2272,-7297,1745187643598779459
292193,-1774,-2882,1716,7618,2373,-6978,1745187643598779459
292385,-1665,-2980,1796,7574,2436,-6752,1745187643598779459
292577,-1594,-3088,1861,7501,2464,-6536,1745187643598779459
292769,-1550,-3203,1918,7380,2463,-6205,1745187643598779459
292961,-1515,-3319,1978,7207,2546,-5759,1745187643598779459
293153,-1473,-3438,2046,7013,2694,-5248,1745187643598779459
293345,-1424,-3561,2121,6820,2938,-4812,1745187643598779459
293537,-1380,-3692,2193,6606,3257,-4513,1745187643598779459
293729,-1341,-3827,2262,6346,3600,-4075,1745187643651626581
293921,-1300,-3950,2330,6077,3881,-3791,1745187643651626581
294113,-1254,-4069,2398,5851,4121,-3568,1745187643651626581
294305,-1203,-4172,2463,5606,4350,-3320,1745187643651626581
294497,-1149,-4258,2531,5419,4473,-3163,1745187643651626581
294689,-1095,-4339,2605,5288,4518,-3027,1745187643651626581
294881,-1056,-4403,2666,5230,4541,-2821,1745187643651626581
295073,-1033,-4466,2709,5153,4458,-2584,1745187643651626581
295265,-1018,-4526,2741,5109,4485,-2439,1745187643651626581
295457,-1015,-4585,2760,5109,4431,-2277,1745187643651626581
295649,-1032,-4639,2779,5133,4389,-2078,1745187643651626581
295841,-1058,-4698,2798,5180,4403,-1818,1745187643651626581
296033,-1093,-4750,2818,5222,4448,-1532,1745187643707210656
296225,-1142,-4804,2839,5303,4456,-1259,1745187643707210656
296417,-1199,-4858,2854,5345,4504,-941,1745187643707210656
296609,-1255,-4917,2867,5423,4561,-741,1745187643707210656
296801,-1305,-4986,2883,5528,4642,-691,1745187643707210656
296993,-1343,-5062,2901,5625,4734,-576,1745187643707210656
297185,-1383,-5141,2917,5689,4793,-516,1745187643707210656
297377,-1419,-5220,2926,5780,4842,-375,1745187643707210656
297569,-1447,-5297,2925,5841,4903,-208,1745187643707210656
297761,-1467,-5363,2913,5884,4994,-17,1745187643707210656
297953,-1478,-5412,2898,5912,5059,223,1745187643707210656
298145,-1487,-5439,2876,5906,5019,529,1745187643707210656
298337,-1506,-5453,2850,5901,4860,822,1745187643767983903
298529,-1546,-5460,2821,5924,4628,1104,1745187643767983903
298721,-1610,-5468,2797,5974,4385,1334,1745187643767983903
298913,-1687,-5484,2790,6124,4256,1425,1745187643767983903
299105,-1770,-5505,2805,6355,4222,1252,1745187643767983903
299297,-1865,-5522,2829,6571,4314,957,1745187643767983903
299489,-1988,-5529,2841,6795,4566,612,1745187643767983903
299681,-2135,-5527,2822,6976,4857,544,1745187643767983903
299873,-2278,-5520,2772,7122,5147,762,1745187643767983903
300065,-2385,-5491,2707,7001,5372,1147,1745187643767983903
300257,-2410,-5429,2649,7734,5256,1871,1745187643767983903
300449,-2354,-5315,2539,7593,5292,2840,1745187643767983903
300641,-2228,-5190,2428,7611,5315,3898,1745187643823181472
300833,-2100,-5043,2330,7727,5254,5039,1745187643823181472
301025,-2022,-4913,2245,7769,5236,6051,1745187643823181472
301217,-1950,-4809,2188,7770,5362,7632,1745187643823181472
301409,-1960,-4673,2146,7890,5513,8099,1745187643823181472
301601,-2015,-4627,2132,7960,5967,8680,1745187643823181472
301793,-2151,-4622,2133,7913,6834,9110,1745187643823181472
301985,-2367,-4660,2139,7654,8039,9675,1745187643823181472
302177,-2613,-4709,2134,7221,9535,10332,1745187643823181472
302369,-2843,-4767,2019,5857,11391,10152,1745187643823181472
302561,-2997,-4986,2215,4251,12139,8673,1745187643823181472
302753,-3743,-5416,2103,3108,14206,13651,1745187643823181472
302945,-3904,-5539,1744,-293,16101,19029,1745187643892405058
303137,-3300,-4174,1554,-4022,17320,14085,1745187643892405058
303329,-3079,-3287,1324,-6913,16694,10086,1745187643892405058
303521,-2451,-2782,1100,-8703,15593,8039,1745187643892405058
303713,-1624,-2198,814,-9422,14405,6166,1745187643892405058
303905,-862,-1606,531,-8903,12563,4483,1745187643892405058
304097,-199,-1144,254,-7277,10331,3656,1745187643892405058
304289,311,-787,13,-5496,8259,3320,1745187643892405058
304481,654,-517,-136,-3974,6707,3286,1745187643892405058
304673,799,-392,-187,-2791,5737,3573,1745187643892405058
304865,779,-342,-183,-2218,5329,3875,1745187643892405058
305057,655,-330,-143,-1977,5381,4257,1745187643892405058
305249,485,-360,-115,-2094,5766,4573,1745187643944345417
305441,304,-364,-111,-2480,6465,4665,1745187643944345417
305633,140,-349,-107,-2793,7296,4681,1745187643944345417
305825,18,-320,-107,-3005,8132,4436,1745187643944345417
306017,-65,-263,-110,-3073,8905,3934,1745187643944345417
306209,-126,-223,-120,-2843,9452,3553,1745187643944345417
306401,-171,-182,-135,-2505,9686,3197,1745187643944345417
306593,-198,-163,-139,-2076,9695,2952,1745187643944345417
306785,-200,-184,-131,-1606,9530,2630,1745187643944345417
306977,-198,-217,-112,-1187,9345,2421,1745187643944345417
307169,-219,-263,-89,-863,9112,2313,1745187643944345417
307361,-242,-328,-63,-684,8908,2171,1745187643944345417
307553,-264,-398,-27,-712,8798,2088,1745187644009887266
307745,-279,-463,20,-880,8822,2017,1745187644009887266
307937,-289,-513,59,-1091,8920,1961,1745187644009887266
308129,-298,-553,67,-1293,9057,1967,1745187644009887266
308321,-292,-580,53,-1438,9203,1910,1745187644009887266
308513,-254,-596,38,-1509,9350,1840,1745187644009887266
308705,-184,-606,38,-1496,9451,1774,1745187644009887266
308897,-91,-605,47,-1459,9458,1676,1745187644009887266
309089,3,-599,47,-1421,9397,1578,1745187644009887266
309281,86,-595,33,-1412,9268,1519,1745187644009887266
309473,161,-587,20,-1423,9126,1520,1745187644009887266
309665,220,-573,14,-1391,8915,1595,1745187644009887266
309857,264,-561,8,-1370,8664,1711,1745187644066943255
310049,297,-546,4,-1321,8403,1750,1745187644066943255
310241,313,-530,1,-1266,8165,1610,1745187644066943255
310433,313,-515,-1,-1201,7966,1410,1745187644066943255
310625,305,-497,-5,-1136,7809,1279,1745187644066943255
310817,292,-479,-12,-1096,7751,1062,1745187644066943255
311009,270,-462,-10,-1091,7775,941,1745187644066943255
311201,245,-454,6,-1064,7844,882,1745187644066943255
311393,231,-455,19,-1055,7866,866,1745187644066943255
311585,222,-465,23,-1112,7887,828,1745187644066943255
311777,208,-464,28,-1180,7920,844,1745187644066943255
311969,199,-451,39,-1257,7966,839,1745187644066943255
312161,197,-432,58,-1309,8047,822,1745187644116035099
312353,193,-416,83,-1281,8113,876,1745187644116035099
312545,186,-408,103,-1257,8193,987,1745187644116035099
312737,180,-397,108,-1173,8207,1123,1745187644116035099
312929,181,-387,106,-1110,8268,1262,1745187644116035099
313121,195,-389,102,-981,8282,1337,1745187644116035099
313313,212,-398,105,-955,8317,1391,1745187644116035099
313505,237,-403,125,-941,8225,1436,1745187644116035099
313697,260,-412,141,-1002,8136,1502,1745187644116035099
313889,270,-409,144,-1076,8062,1525,1745187644116035099
314081,259,-394,129,-1181,7977,1597,1745187644116035099
314273,240,-368,111,-1243,7940,1677,1745187644116035099
314465,231,-334,98,-1267,7891,1693,1745187644183341775
314657,230,-290,88,-1182,7857,1673,1745187644183341775
314849,237,-253,74,-1038,7790,1543,1745187644183341775
315041,244,-224,52,-908,7767,1395,1745187644183341775
315233,242,-201,32,-784,7683,1289,1745187644183341775
315425,235,-179,17,-676,7583,1211,1745187644183341775
315617,227,-165,7,-652,7480,1136,1745187644183341775
315809,219,-159,4,-676,7390,1106,1745187644183341775
316001,208,-155,1,-770,7333,1047,1745187644183341775
316193,194,-150,0,-912,7313,966,1745187644183341775
316385,174,-136,7,-1012,7350,843,1745187644183341775
316577,159,-111,23,-1075,7450,763,1745187644183341775
316769,154,-85,41,-1060,7542,792,1745187644237201179
316961,159,-62,41,-951,7597,813,1745187644237201179
317153,171,-43,23,-891,7650,731,1745187644237201179
317345,174,-33,13,-885,7665,627,1745187644237201179
317537,172,-28,32,-926,7652,642,1745187644237201179
317729,177,-28,63,-955,7623,677,1745187644237201179
317921,185,-30,82,-974,7602,731,1745187644237201179
318113,185,-25,81,-984,7555,814,1745187644237201179
318305,181,-13,72,-1065,7489,897,1745187644237201179
318497,175,0,77,-1145,7465,928,1745187644237201179
318689,165,11,94,-1168,7529,944,1745187644237201179
318881,145,16,106,-1159,7602,930,1745187644237201179
319073,125,26,106,-1174,7727,952,1745187644295732936
319265,109,36,102,-1219,7835,974,1745187644295732936
319457,101,46,99,-1248,7937,969,1745187644295732936
319649,97,58,100,-1278,7963,931,1745187644295732936
319841,92,73,101,-1275,7993,881,1745187644295732936
320033,82,86,98,-1246,7957,813,1745187644295732936
320225,64,99,93,-1218,7887,733,1745187644295732936
320417,44,110,89,-1219,7790,687,1745187644295732936
320609,25,121,89,-1250,7775,621,1745187644295732936
320801,6,134,94,-1264,7784,545,1745187644295732936
320993,-14,148,98,-1277,7847,431,1745187644295732936
321185,-30,162,100,-1298,7910,270,1745187644295732936
321377,-39,173,106,-1360,7917,142,1745187644354538701
321569,-37,181,113,-1407,7874,31,1745187644354538701
321761,-33,187,121,-1510,7815,-14,1745187644354538701
321953,-36,194,132,-1582,7775,-41,1745187644354538701
322145,-44,207,143,-1584,7768,-89,1745187644354538701
322337,-55,224,157,-1582,7831,-197,1745187644354538701
322529,-75,239,172,-1569,7956,-261,1745187644354538701
322721,-99,246,188,-1558,8080,-242,1745187644354538701
322913,-112,246,204,-1532,8205,-200,1745187644354538701
323105,-112,244,217,-1552,8357,-208,1745187644354538701
323297,-107,241,232,-1652,8543,-234,1745187644354538701
323489,-97,243,250,-1704,8699,-263,1745187644354538701
323681,-84,248,264,-1737,8866,-329,1745187644413216603
323873,-72,254,272,-1755,9019,-403,1745187644413216603
324065,-60,259,275,-1750,9180,-460,1745187644413216603
324257,-46,264,277,-1761,9283,-476,1745187644413216603
324449,-24,268,280,-1718,9343,-507,1745187644413216603
324641,5,267,278,-1723,9307,-507,1745187644413216603
324833,36,260,276,-1751,9225,-447,1745187644413216603
325025,65,252,275,-1747,9104,-429,1745187644413216603
325217,87,247,269,-1775,8955,-472,1745187644413216603
325409,92,246,257,-1768,8767,-497,1745187644413216603
325601,90,245,242,-1729,8624,-483,1745187644413216603
325793,86,243,225,-1691,8497,-428,1745187644413216603
325985,81,239,212,-1674,8438,-400,1745187644475152078
326177,73,234,202,-1657,8461,-379,1745187644475152078
326369,67,231,191,-1640,8497,-383,1745187644475152078
326561,66,228,173,-1623,8550,-409,1745187644475152078
326753,68,226,152,-1608,8582,-420,1745187644475152078
326945,72,223,136,-1583,8575,-462,1745187644475152078
327137,79,221,120,-1593,8585,-499,1745187644475152078
327329,87,217,109,-1598,8584,-495,1745187644475152078
327521,91,214,100,-1609,8513,-498,1745187644475152078
327713,89,209,90,-1619,8454,-476,1745187644475152078
327905,86,207,75,-1652,8333,-469,1745187644475152078
328097,86,207,64,-1683,8208,-456,1745187644475152078
328289,86,209,60,-1690,8116,-436,1745187644531569219
328481,87,214,55,-1694,8089,-401,1745187644531569219
328673,88,221,46,-1681,8116,-404,1745187644531569219
328865,88,230,36,-1667,8198,-392,1745187644531569219
329057,93,241,31,-1629,8253,-409,1745187644531569219
329249,107,251,25,-1574,8296,-511,1745187644531569219
329441,130,258,19,-1473,8258,-596,1745187644531569219
329633,160,266,15,-1364,8287,-682,1745187644531569219
329825,189,272,11,-1254,8202,-748,1745187644531569219
330017,219,272,8,-1192,8129,-856,1745187644531569219
330209,249,268,10,-1152,8048,-987,1745187644531569219
330401,276,259,15,-1134,7971,-1031,1745187644531569219
330593,298,245,22,-1163,7864,-975,1745187644671067685
330785,314,232,28,-1257,7716,-889,1745187644671067685
330977,326,217,31,-1364,7658,-845,1745187644671067685
331169,334,205,33,-1502,7631,-838,1745187644671067685
331361,337,194,40,-1689,7647,-821,1745187644671067685
331553,337,179,46,-1834,7732,-881,1745187644671067685
331745,330,166,46,-1953,7847,-907,1745187644671067685
331937,323,161,43,-2027,7985,-841,1745187644671067685
332129,321,157,39,-2067,8095,-778,1745187644671067685
332321,321,154,33,-2064,8155,-696,1745187644671067685
332513,323,155,26,-2033,8141,-692,1745187644671067685
332705,325,159,19,-1936,8056,-728,1745187644671067685
332897,324,163,14,-1820,7943,-711,1745187644680350933
333089,320,144,1,-1781,7777,-651,1745187644680350933
333281,297,151,-14,-1730,7587,-620,1745187644680350933
333473,272,148,-26,-1731,7401,-547,1745187644680350933
333665,241,152,-33,-1738,7293,-484,1745187644680350933
333857,196,158,-40,-1706,7269,-530,1745187644680350933
334049,138,177,-52,-1661,7309,-599,1745187644680350933
334241,77,194,-58,-1598,7372,-680,1745187644680350933
334433,33,193,-63,-1535,7456,-742,1745187644680350933
334625,5,212,-66,-1487,7543,-873,1745187644680350933
334817,-11,220,-64,-1456,7616,-977,1745187644680350933
335009,-24,237,-61,-1395,7700,-1047,1745187644680350933
335201,-36,247,-55,-1321,7840,-1152,1745187644696284486
335201,-36,247,-55,-1321,7840,-1152,1745187644696284486
335393,-52,262,-50,-1280,7984,-1283,1745187644696284486
335585,-77,285,-41,-1199,8161,-1415,1745187644696284486
335777,-98,307,-30,-1095,8286,-1520,1745187644696284486
335969,-109,323,-16,-992,8400,-1606,1745187644696284486
336161,-112,334,-4,-890,8467,-1692,1745187644696284486
336353,-113,344,9,-835,8450,-1795,1745187644696284486
336545,-111,347,24,-794,8342,-1958,1745187644696284486
336737,-95,350,42,-758,8191,-2068,1745187644696284486
336929,-70,350,60,-754,8085,-2125,1745187644696284486
337121,-53,344,70,-797,8165,-2142,1745187644696284486
337313,-50,341,73,-843,8430,-2077,1745187644763532309
337505,-52,334,68,-892,8917,-2152,1745187644763532309
337697,-32,326,54,-906,9518,-2213,1745187644763532309
337889,45,325,33,-972,10024,-2184,1745187644763532309
338081,165,331,14,-1016,10322,-2174,1745187644763532309
338273,298,335,6,-954,10353,-2223,1745187644763532309
338465,421,326,2,-853,10134,-2239,1745187644763532309
338657,520,305,-6,-780,9776,-2255,1745187644763532309
338849,587,276,-15,-730,9358,-2335,1745187644763532309
339041,614,246,-16,-718,9017,-2436,1745187644763532309
339233,599,225,-5,-685,8808,-2609,1745187644763532309
339425,545,212,12,-597,8713,-2749,1745187644763532309
339617,464,194,23,-489,8684,-2778,1745187644816179692
339809,377,161,28,-421,8720,-2683,1745187644816179692
340001,292,118,30,-408,8692,-2591,1745187644816179692
340193,211,68,40,-436,8618,-2557,1745187644816179692
340385,134,19,48,-500,8522,-2494,1745187644816179692
340577,63,-23,52,-593,8451,-2346,1745187644816179692
340769,-1,-55,52,-705,8437,-2183,1745187644816179692
340961,-59,-75,52,-800,8461,-2001,1745187644816179692
341153,-103,-89,49,-860,8518,-1813,1745187644816179692
341345,-128,-97,45,-860,8585,-1650,1745187644816179692
341537,-137,-105,41,-856,8595,-1594,1745187644816179692
341729,-135,-112,38,-772,8550,-1591,1745187644816179692
341921,-127,-121,34,-681,8404,-1536,1745187644875177278
342113,-115,-133,28,-613,8208,-1509,1745187644875177278
342305,-103,-146,26,-562,8028,-1351,1745187644875177278
342497,-90,-154,23,-550,7935,-1236,1745187644875177278
342689,-95,-160,20,-542,7897,-1216,1745187644875177278
342881,-117,-156,22,-532,7875,-1205,1745187644875177278
343073,-132,-144,28,-458,7928,-1183,1745187644875177278
343265,-128,-132,28,-354,8017,-1130,1745187644875177278
343457,-105,-122,23,-263,8134,-1033,1745187644875177278
343649,-71,-118,18,-211,8217,-922,1745187644875177278
343841,-30,-120,14,-196,8312,-803,1745187644875177278
344033,11,-118,8,-246,8478,-704,1745187644875177278
344225,39,-105,8,-257,8617,-596,1745187644934978347
344417,64,-89,10,-284,8637,-535,1745187644934978347
344609,117,-84,6,-353,8571,-517,1745187644934978347
344801,195,-81,-8,-430,8439,-566,1745187644934978347
344993,260,-64,-22,-495,8255,-625,1745187644934978347
345185,295,-38,-31,-497,8010,-680,1745187644934978347
345377,307,-15,-40,-491,7811,-781,1745187644934978347
345569,304,4,-47,-460,7641,-909,1745187644934978347
345761,292,23,-47,-393,7568,-1016,1745187644934978347
345953,269,44,-44,-287,7549,-1134,1745187644934978347
346145,237,58,-45,-208,7590,-1230,1745187644934978347
346337,203,67,-48,-137,7646,-1245,1745187644934978347
346529,176,70,-50,-128,7685,-1252,1745187644994208795
346721,161,70,-52,-139,7742,-1278,1745187644994208795
346913,146,69,-53,-171,7758,-1261,1745187644994208795
347105,128,72,-56,-226,7762,-1192,1745187644994208795
347297,115,76,-60,-295,7720,-1170,1745187644994208795
347489,101,83,-63,-346,7691,-1212,1745187644994208795
347681,84,90,-63,-388,7676,-1230,1745187644994208795
347873,68,92,-59,-428,7679,-1190,1745187644994208795
348065,55,94,-52,-458,7695,-1155,1745187644994208795
348257,43,96,-43,-460,7733,-1131,1745187644994208795
348449,36,99,-40,-450,7810,-1092,1745187644994208795
348641,33,100,-37,-491,7887,-1037,1745187644994208795
348833,35,97,-32,-530,7954,-1021,1745187645055808128
349025,44,94,-24,-587,8049,-1026,1745187645055808128
349217,55,96,-17,-633,8090,-1103,1745187645055808128
349409,63,100,-14,-660,8095,-1161,1745187645055808128
349601,71,104,-14,-675,8071,-1205,1745187645055808128
349793,78,108,-13,-694,8009,-1234,1745187645055808128
349985,82,109,-9,-710,7938,-1245,1745187645055808128
350177,83,109,-2,-736,7893,-1244,1745187645055808128
350369,84,112,3,-747,7893,-1241,1745187645055808128
350561,84,115,6,-767,7857,-1239,1745187645055808128
350753,90,118,6,-812,7870,-1262,1745187645055808128
350945,97,120,9,-869,7832,-1282,1745187645055808128
351137,102,123,14,-910,7852,-1286,1745187645109508159
351329,104,128,18,-950,7871,-1286,1745187645109508159
351521,104,130,23,-1008,7887,-1289,1745187645109508159
351713,106,132,29,-1046,7937,-1326,1745187645109508159
351905,106,135,37,-1111,7926,-1369,1745187645109508159
352097,107,138,46,-1136,7933,-1453,1745187645109508159
352289,111,146,56,-1130,7953,-1551,1745187645109508159
352481,115,153,64,-1137,7987,-1659,1745187645109508159
352673,120,155,71,-1114,8049,-1742,1745187645109508159
352865,128,146,77,-1137,8094,-1753,1745187645109508159
353057,142,130,81,-1221,8110,-1699,1745187645109508159
353249,162,115,84,-1317,8103,-1649,1745187645109508159
353441,183,105,87,-1439,8106,-1598,1745187645175391515
353633,203,100,90,-1556,8120,-1570,1745187645175391515
353825,219,99,90,-1645,8118,-1578,1745187645175391515
354017,232,98,88,-1674,8112,-1578,1745187645175391515
354209,243,98,83,-1665,8144,-1537,1745187645175391515
354401,251,99,75,-1658,8170,-1490,1745187645175391515
354593,258,100,67,-1598,8199,-1432,1745187645175391515
354785,269,101,59,-1560,8206,-1365,1745187645175391515
354977,285,100,50,-1503,8215,-1340,1745187645175391515
355169,300,97,38,-1443,8192,-1364,1745187645175391515
355361,303,95,24,-1391,8156,-1439,1745187645175391515
355553,296,95,7,-1333,8119,-1538,1745187645175391515
355745,285,97,-10,-1289,8063,-1581,1745187645225663400
355937,277,97,-27,-1267,8028,-1576,1745187645225663400
356129,273,96,-42,-1287,7930,-1575,1745187645225663400
356321,270,97,-58,-1303,7850,-1691,1745187645225663400
356513,265,103,-73,-1321,7762,-1823,1745187645225663400
356705,255,114,-84,-1317,7660,-1964,1745187645225663400
356897,243,125,-96,-1295,7568,-2037,1745187645225663400
357089,228,135,-106,-1309,7541,-2070,1745187645225663400
357281,215,144,-113,-1304,7526,-2076,1745187645225663400
357473,206,150,-117,-1336,7557,-2105,1745187645225663400
357665,198,156,-119,-1401,7613,-2157,1745187645225663400
357857,192,161,-117,-1451,7644,-2221,1745187645225663400
358049,185,169,-115,-1485,7702,-2273,1745187645286343939
358241,178,180,-114,-1527,7760,-2323,1745187645286343939
358433,172,191,-110,-1529,7807,-2352,1745187645286343939
358625,169,199,-107,-1529,7849,-2368,1745187645286343939
358817,171,206,-101,-1519,7870,-2359,1745187645286343939
359009,178,210,-99,-1505,7896,-2441,1745187645286343939
359201,184,211,-95,-1493,7916,-2572,1745187645286343939
359393,190,209,-90,-1467,7910,-2652,1745187645286343939
359585,197,210,-86,-1415,7909,-2739,1745187645286343939
359777,206,210,-86,-1373,7886,-2837,1745187645286343939
359969,212,205,-88,-1375,7894,-2880,1745187645286343939
360161,219,195,-91,-1391,7900,-2921,1745187645286343939
360353,227,183,-93,-1440,7927,-2959,1745187645342121971
360545,236,173,-93,-1524,7887,-3007,1745187645342121971
360737,248,166,-92,-1589,7856,-3039,1745187645342121971
360929,261,159,-93,-1649,7852,-3062,1745187645342121971
361121,269,154,-95,-1697,7845,-3096,1745187645342121971
361313,270,151,-96,-1706,7863,-3097,1745187645342121971
361505,268,148,-95,-1711,7888,-3080,1745187645342121971
361697,267,142,-94,-1687,7924,-3051,1745187645342121971
361889,263,136,-94,-1678,7956,-3039,1745187645342121971
362081,259,130,-91,-1669,7990,-3034,1745187645342121971
362273,255,123,-86,-1658,8015,-3096,1745187645342121971
362465,249,115,-84,-1629,8021,-3191,1745187645342121971
362657,241,109,-79,-1608,8023,-3271,1745187645400376335
362849,235,104,-71,-1581,8049,-3309,1745187645400376335
363041,229,97,-64,-1548,8071,-3314,1745187645400376335
363233,226,89,-61,-1526,8090,-3314,1745187645400376335
363425,220,81,-58,-1535,8083,-3316,1745187645400376335
363617,208,70,-57,-1537,8054,-3343,1745187645400376335
363809,188,60,-54,-1516,8035,-3360,1745187645400376335
364001,162,53,-49,-1502,8023,-3364,1745187645400376335
364193,135,45,-43,-1444,8050,-3370,1745187645400376335
364385,104,39,-38,-1395,8127,-3350,1745187645400376335
364577,77,32,-35,-1325,8198,-3287,1745187645400376335
364769,56,21,-35,-1278,8318,-3243,1745187645400376335
364961,41,8,-33,-1232,8442,-3204,1745187645462365821
365153,31,-4,-28,-1181,8556,-3217,1745187645462365821
365345,23,-19,-25,-1136,8626,-3221,1745187645462365821
365537,12,-37,-24,-1103,8642,-3235,1745187645462365821
365729,1,-56,-24,-1082,8606,-3190,1745187645462365821
365921,-10,-75,-23,-1028,8610,-3143,1745187645462365821
366113,-22,-93,-19,-1011,8595,-3055,1745187645462365821
366305,-36,-109,-16,-965,8609,-2929,1745187645462365821
366497,-50,-128,-14,-956,8631,-2806,1745187645462365821
366689,-58,-147,-14,-937,8618,-2643,1745187645462365821
366881,-61,-165,-14,-923,8620,-2510,1745187645462365821
367073,-63,-181,-15,-931,8611,-2411,1745187645462365821
367265,-64,-194,-14,-921,8571,-2349,1745187645517771460
367457,-67,-207,-12,-900,8567,-2295,1745187645517771460
367649,-73,-219,-10,-913,8562,-2226,1745187645517771460
367841,-78,-231,-7,-892,8598,-2146,1745187645517771460
368033,-78,-243,-4,-901,8610,-2073,1745187645517771460
368225,-74,-253,1,-934,8639,-1980,1745187645517771460
368417,-66,-261,7,-954,8702,-1922,1745187645517771460
368609,-56,-268,10,-978,8731,-1866,1745187645517771460
368801,-44,-272,14,-986,8754,-1779,1745187645517771460
368993,-32,-273,15,-977,8748,-1687,1745187645517771460
369185,-20,-275,14,-977,8710,-1554,1745187645517771460
369377,-9,-277,14,-969,8639,-1426,1745187645517771460
369569,-6,-281,11,-955,8526,-1327,1745187645583328153
369761,-12,-286,6,-960,8395,-1204,1745187645583328153
369953,-29,-290,-2,-984,8266,-1084,1745187645583328153
370145,-52,-292,-12,-990,8195,-939,1745187645583328153
370337,-80,-288,-22,-1024,8095,-783,1745187645583328153
370529,-103,-280,-33,-1046,8096,-647,1745187645583328153
370721,-122,-269,-48,-1053,8088,-575,1745187645583328153
370913,-139,-255,-66,-1055,8105,-529,1745187645583328153
371105,-159,-237,-86,-1013,8119,-507,1745187645583328153
371297,-185,-204,-105,-934,8077,-458,1745187645583328153
371489,-208,-211,-123,-896,8077,-400,1745187645583328153
371681,-232,-200,-146,-876,8100,-350,1745187645583328153
371873,-257,-176,-168,-883,8113,-310,1745187645647532983
372065,-268,-152,-187,-898,8143,-215,1745187645647532983
372257,-273,-135,-201,-907,8136,-180,1745187645647532983
372449,-270,-118,-218,-942,8169,-170,1745187645647532983
372641,-264,-88,-237,-950,8164,-150,1745187645647532983
372833,-253,-55,-256,-967,8113,-130,1745187645647532983
373025,-232,-25,-276,-981,8049,-111,1745187645647532983
373217,-213,1,-294,-984,7965,-88,1745187645647532983
373409,-202,26,-311,-1037,7829,-108,1745187645647532983
373601,-202,53,-326,-1062,7702,-133,1745187645647532983
373793,-205,84,-339,-1084,7589,-148,1745187645647532983
373985,-211,124,-349,-1094,7507,-151,1745187645647532983
374177,-213,165,-355,-1076,7502,-205,1745187645692821945
374369,-212,206,-357,-1048,7524,-262,1745187645692821945
374561,-211,244,-363,-993,7575,-303,1745187645692821945
374753,-205,279,-368,-950,7574,-319,1745187645692821945
374945,-194,314,-370,-903,7546,-331,1745187645692821945
375137,-185,353,-362,-869,7460,-330,1745187645692821945
375329,-182,385,-358,-854,7446,-382,1745187645692821945
375521,-188,403,-369,-901,7406,-403,1745187645692821945
375713,-200,429,-381,-934,7370,-430,1745187645692821945
375905,-206,471,-381,-944,7403,-509,1745187645692821945
376097,-217,512,-380,-879,7430,-618,1745187645692821945
376289,-229,548,-381,-815,7470,-719,1745187645692821945
376481,-240,579,-381,-749,7510,-750,1745187645755783453
376673,-246,600,-380,-706,7485,-779,1745187645755783453
376865,-250,616,-377,-730,7464,-796,1745187645755783453
377057,-259,630,-373,-774,7386,-812,1745187645755783453
377249,-280,643,-372,-848,7251,-880,1745187645755783453
377441,-317,655,-370,-909,7108,-974,1745187645755783453
377633,-364,669,-367,-949,7010,-1045,1745187645755783453
377825,-419,686,-361,-967,6992,-1090,1745187645755783453
378017,-476,700,-354,-976,7050,-1134,1745187645755783453
378209,-527,710,-347,-991,7151,-1142,1745187645755783453
378401,-570,713,-342,-1056,7294,-1116,1745187645755783453
378593,-606,716,-339,-1143,7452,-1081,1745187645755783453
378785,-636,721,-340,-1250,7616,-989,1745187645812689964
378977,-659,731,-342,-1338,7791,-852,1745187645812689964
379169,-677,745,-346,-1409,7969,-671,1745187645812689964
379361,-694,757,-354,-1457,8119,-571,1745187645812689964
379553,-716,764,-362,-1466,8240,-465,1745187645812689964
379745,-747,766,-369,-1500,8292,-382,1745187645812689964
379937,-786,763,-375,-1506,8346,-253,1745187645812689964
380129,-834,761,-383,-1534,8377,-89,1745187645812689964
380321,-882,763,-393,-1591,8449,65,1745187645812689964
380513,-925,774,-403,-1653,8569,224,1745187645812689964
380705,-962,789,-416,-1680,8789,348,1745187645812689964
380897,-991,810,-433,-1722,9030,488,1745187645812689964
381089,-1013,836,-455,-1727,9287,602,1745187645872398794
381281,-1028,877,-483,-1713,9543,748,1745187645872398794
381473,-1031,895,-511,-1684,9805,925,1745187645872398794
381665,-1028,914,-546,-1700,10034,1070,1745187645872398794
381857,-1029,953,-578,-1722,10214,1158,1745187645872398794
382049,-1017,998,-602,-1703,10373,1257,1745187645872398794
382241,-1000,1037,-616,-1665,10493,1416,1745187645872398794
382433,-997,1061,-648,-1683,10537,1539,1745187645872398794
382625,-995,1079,-709,-1731,10534,1721,1745187645872398794
382817,-990,1110,-778,-1804,10419,1927,1745187645872398794
383009,-978,1151,-841,-1872,10284,2136,1745187645872398794
383201,-967,1204,-892,-1906,10110,2347,1745187645872398794
383393,-959,1276,-942,-1877,9949,2543,1745187645926594028
383585,-951,1365,-987,-1788,9839,2644,1745187645926594028
383777,-943,1450,-1026,-1650,9843,2677,1745187645926594028
383969,-930,1522,-1066,-1573,9909,2607,1745187645926594028
384161,-909,1616,-1105,-1444,9987,2474,1745187645926594028
384353,-870,1698,-1138,-1360,10043,2368,1745187645926594028
384545,-814,1773,-1166,-1277,10058,2247,1745187645926594028
384737,-743,1844,-1192,-1255,10006,2122,1745187645926594028
384929,-659,1914,-1219,-1258,9908,1984,1745187645926594028
385121,-566,1982,-1249,-1284,9776,1866,1745187645926594028
385313,-466,2053,-1279,-1303,9598,1808,1745187645926594028
385505,-362,2126,-1308,-1343,9374,1838,1745187645926594028
385697,-255,2196,-1337,-1365,9098,1885,1745187645998068844
385889,-143,2267,-1370,-1364,8839,1935,1745187645998068844
386081,-32,2334,-1403,-1379,8602,1959,1745187645998068844
386273,73,2399,-1428,-1385,8395,2023,1745187645998068844
386465,178,2463,-1447,-1402,8222,2046,1745187645998068844
386657,292,2521,-1466,-1421,8112,2010,1745187645998068844
386849,413,2575,-1488,-1472,8019,1906,1745187645998068844
387041,532,2624,-1508,-1519,7942,1770,1745187645998068844
387233,646,2674,-1526,-1586,7881,1663,1745187645998068844
387425,760,2721,-1547,-1659,7706,1551,1745187645998068844
387617,881,2767,-1566,-1702,7516,1428,1745187645998068844
387809,1014,2783,-1585,-1772,7354,1190,1745187645998068844
388001,1138,2812,-1608,-1842,7192,985,1745187646043799676
388193,1240,2839,-1629,-1907,6925,931,1745187646043799676
388385,1336,2862,-1658,-1940,6522,969,1745187646043799676
388577,1443,2877,-1698,-1962,6056,869,1745187646043799676
388769,1556,2934,-1696,-1851,5716,657,1745187646043799676
388961,1673,3012,-1643,-1591,5639,388,1745187646043799676
389153,1792,2998,-1642,-1421,5819,267,1745187646043799676
389345,1936,2949,-1701,-1384,6293,380,1745187646043799676
389537,2128,2935,-1791,-1457,6878,457,1745187646043799676
389729,2361,2952,-1876,-1445,7507,416,1745187646043799676
389921,2619,2958,-1957,-1314,8031,233,1745187646043799676
390113,2866,2964,-2028,-1122,8340,81,1745187646043799676
390305,3113,2948,-2094,-900,8379,-75,1745187646110870522
390497,3401,2913,-2158,-731,8389,-222,1745187646110870522
390689,3672,2882,-2218,-588,8382,-337,1745187646110870522
390881,3892,2859,-2279,-412,8206,-553,1745187646110870522
391073,4069,2851,-2339,-254,7956,-753,1745187646110870522
391265,4199,2843,-2395,-66,7552,-958,1745187646110870522
391457,4282,2834,-2450,93,7098,-1165,1745187646110870522
391649,4311,2819,-2497,242,6549,-1335,1745187646110870522
391841,4300,2794,-2537,359,5966,-1462,1745187646110870522
392033,4249,2765,-2575,453,5424,-1589,1745187646110870522
392225,4158,2742,-2607,497,4896,-1817,1745187646110870522
392417,4050,2723,-2631,509,4531,-1928,1745187646110870522
392609,3930,2704,-2646,468,4266,-2016,1745187646162155314
392801,3809,2688,-2658,431,4103,-2112,1745187646162155314
392993,3688,2670,-2671,385,4088,-2198,1745187646162155314
393185,3558,2658,-2684,333,4001,-2350,1745187646162155314
393377,3428,2645,-2709,275,3877,-2475,1745187646162155314
393569,3310,2637,-2746,266,3733,-2664,1745187646162155314
393761,3194,2626,-2789,303,3572,-2862,1745187646162155314
393953,3078,2615,-2830,338,3396,-3069,1745187646162155314
394145,2952,2601,-2863,398,3363,-3304,1745187646162155314
394337,2812,2586,-2881,502,3326,-3609,1745187646162155314
394529,2665,2573,-2901,587,3368,-3885,1745187646162155314
394721,2520,2564,-2911,679,3456,-4027,1745187646162155314
394913,2395,2557,-2921,763,3602,-4047,1745187646221971330
395105,2291,2547,-2925,874,3738,-3927,1745187646221971330
395297,2198,2525,-2929,964,3806,-3735,1745187646221971330
395489,2113,2497,-2936,1040,3776,-3513,1745187646221971330
395681,2034,2466,-2945,1072,3663,-3348,1745187646221971330
395873,1965,2449,-2955,1048,3513,-3255,1745187646221971330
396065,1907,2447,-2959,1050,3352,-3058,1745187646221971330
396257,1845,2447,-2951,1064,3168,-2846,1745187646221971330
396449,1782,2451,-2935,1111,2916,-2718,1745187646221971330
396641,1731,2456,-2920,1183,2728,-2985,1745187646221971330
396833,1706,2470,-2905,1251,2655,-3438,1745187646221971330
397025,1693,2483,-2889,1375,2561,-3806,1745187646221971330
397217,1694,2493,-2870,1550,2475,-4257,1745187646287449690
397409,1713,2512,-2845,1764,2332,-4650,1745187646287449690
397601,1746,2539,-2811,1966,2223,-5087,1745187646287449690
397793,1788,2569,-2767,2247,2099,-5346,1745187646287449690
397985,1827,2582,-2717,2539,1873,-5175,1745187646287449690
398177,1866,2578,-2672,2817,1592,-5107,1745187646287449690
398369,1906,2545,-2631,3078,1365,-5168,1745187646287449690
398561,1930,2484,-2596,3234,1072,-5216,1745187646287449690
398753,1933,2408,-2569,3347,726,-5320,1745187646287449690
398945,1921,2334,-2551,3368,357,-5480,1745187646287449690
399137,1896,2268,-2530,3368,-64,-5672,1745187646287449690
399329,1866,2205,-2494,3372,-518,-6037,1745187646287449690
399521,1843,2149,-2441,3386,-1050,-6332,1745187646336448721
399713,1820,2100,-2369,3440,-1631,-6603,1745187646336448721
399905,1798,2052,-2281,3556,-2241,-6992,1745187646336448721
400097,1764,1990,-2179,3707,-2873,-7340,1745187646336448721
400289,1702,1932,-2075,3884,-3405,-7614,1745187646336448721
400481,1607,1875,-1961,4117,-4162,-7688,1745187646336448721
400673,1468,1806,-1799,4381,-4571,-7763,1745187646336448721
400865,1052,1759,-1508,4183,-3005,-6722,1745187646336448721
401057,185,1873,-1015,4429,-8721,-5930,1745187646336448721
401249,1236,2078,-1329,5600,-5698,-9801,1745187646336448721
401441,942,1654,-1405,5021,-6410,-8431,1745187646336448721
401633,687,1322,-1423,5338,-6666,-7880,1745187646336448721
401825,531,1276,-1443,5314,-6915,-8129,1745187646403832429
402017,402,1179,-1422,5176,-6959,-7977,1745187646403832429
402209,330,1097,-1404,5083,-6716,-8081,1745187646403832429
402401,267,1003,-1391,4926,-6521,-8362,1745187646403832429
402593,176,968,-1376,4866,-6503,-8662,1745187646403832429
402785,82,915,-1371,4963,-6568,-9189,1745187646403832429
402977,-32,900,-1367,5038,-6606,-9841,1745187646403832429
403169,-163,899,-1339,5026,-6583,-10365,1745187646403832429
403361,-292,876,-1273,5159,-6597,-10871,1745187646403832429
403553,-453,853,-1206,5305,-6636,-11297,1745187646403832429
403745,-639,834,-1156,5474,-6549,-11564,1745187646403832429
403937,-823,810,-1114,5635,-6255,-11702,1745187646403832429
404129,-984,780,-1068,5759,-5692,-11670,1745187646454370665
404321,-1106,743,-1012,5800,-5006,-11501,1745187646454370665
404513,-1182,702,-960,5789,-4323,-11262,1745187646454370665
404705,-1218,665,-911,5739,-3795,-10928,1745187646454370665
404897,-1227,629,-865,5631,-3376,-10620,1745187646454370665
405089,-1215,597,-815,5471,-3037,-10301,1745187646454370665
405281,-1189,572,-761,5288,-2719,-9897,1745187646454370665
405473,-1156,553,-702,5068,-2482,-9479,1745187646454370665
405665,-1122,538,-649,4862,-2300,-9142,1745187646454370665
405857,-1089,532,-603,4636,-2140,-8842,1745187646454370665
406049,-1053,536,-558,4424,-1965,-8443,1745187646454370665
406241,-1002,545,-516,4215,-1724,-8060,1745187646454370665
406433,-941,564,-484,4033,-1494,-7662,1745187646514993340
406625,-874,586,-460,3851,-1287,-7312,1745187646514993340
406817,-800,610,-437,3673,-1158,-6908,1745187646514993340
407009,-725,641,-407,3487,-1090,-6478,1745187646514993340
407201,-657,679,-367,3318,-1079,-6092,1745187646514993340
407393,-611,735,-319,3081,-1047,-5706,1745187646514993340
407585,-590,831,-259,2907,-1139,-4969,1745187646514993340
407777,-579,957,-155,2850,-1865,-4237,1745187646514993340
407969,-566,1059,82,3076,-4155,-4059,1745187646514993340
408161,-625,1057,607,3530,-8055,-5623,1745187646514993340
408353,-740,830,1348,4452,-10031,-9241,1745187646514993340
408545,-1130,513,2010,5955,-11013,-12939,1745187646514993340
408737,-1399,235,2451,8751,-10177,-20798,1745187646571799176
408929,-1913,211,2587,10458,-7281,-20831,1745187646571799176
409121,-1944,178,2180,11998,-3901,-20369,1745187646571799176
409313,-1786,226,1199,12333,-1873,-15559,1745187646571799176
409505,-1528,240,56,11919,-1775,-15479,1745187646571799176
409697,-1277,-56,-803,10896,-2884,-15198,1745187646571799176
409889,-1095,-491,-1108,9592,-3833,-15628,1745187646571799176
410081,-1111,-913,-1018,8095,-3433,-13517,1745187646571799176
410273,-1105,-1114,-854,6653,-2490,-11997,1745187646571799176
410465,-1108,-1227,-775,5144,-864,-10663,1745187646571799176
410657,-1174,-1254,-788,3772,330,-9695,1745187646571799176
410849,-1259,-1207,-868,2427,1446,-9188,1745187646571799176
411041,-1361,-1085,-920,1189,2638,-8372,1745187646632964554
411233,-1482,-932,-887,165,4075,-7855,1745187646632964554
411425,-1519,-788,-779,-569,5813,-7208,1745187646632964554
411617,-1361,-622,-619,-1134,7492,-6867,1745187646632964554
411809,-1069,-456,-442,-673,8439,-6816,1745187646632964554
412001,-715,-332,-322,-1195,8593,-6806,1745187646632964554
412193,-349,-222,-266,-518,7355,-7473,1745187646632964554
412385,-38,-119,-258,400,5120,-8215,1745187646632964554
412577,198,-44,-246,1085,2838,-8715,1745187646632964554
412769,278,2,-164,1584,1117,-9166,1745187646632964554
412961,232,14,-29,1883,-282,-9970,1745187646632964554
413153,172,5,46,2108,-583,-10337,1745187646632964554
413345,16,-14,74,2127,-379,-10508,1745187646691695476
413537,-161,-28,45,1982,358,-10191,1745187646691695476
413729,-317,-23,-13,1817,1378,-9687,1745187646691695476
413921,-410,-21,-71,1537,2352,-9065,1745187646691695476
414113,-427,-23,-108,1291,3007,-8483,1745187646691695476
414305,-391,-26,-117,1057,3132,-8006,1745187646691695476
414497,-313,-27,-104,817,2778,-7694,1745187646691695476
414689,-225,-22,-78,619,2135,-7631,1745187646691695476
414881,-173,2,-43,545,1505,-7686,1745187646691695476
415073,-178,43,-3,662,1073,-7758,1745187646691695476
415265,-226,91,31,924,928,-7796,1745187646691695476
415457,-285,133,50,1267,1028,-7828,1745187646691695476
415649,-336,157,52,1653,1239,-7770,1745187646811797139
415841,-374,162,46,2007,1474,-7691,1745187646811797139
416033,-390,150,40,2280,1679,-7600,1745187646811797139
416225,-371,128,37,2461,1876,-7478,1745187646811797139
416417,-330,94,45,2578,1943,-7426,1745187646811797139
416609,-292,39,53,2662,1732,-7303,1745187646811797139
416801,-296,-42,53,2569,1462,-7252,1745187646811797139
416993,-278,-66,50,2279,1387,-7118,1745187646811797139
417185,-275,-85,47,1985,1378,-7112,1745187646811797139
417377,-282,-87,35,1774,1358,-7084,1745187646811797139
417569,-305,-92,24,1615,1433,-7191,1745187646811797139
417761,-348,-77,29,1584,1463,-7296,1745187646811797139
417953,-375,-70,41,1640,1376,-7397,1745187646817940990
418145,-356,-72,39,1632,1315,-7469,1745187646817940990
418337,-312,-82,30,1582,1367,-7667,1745187646817940990
418529,-278,-84,22,1521,1381,-7851,1745187646817940990
418721,-260,-85,17,1476,1408,-7871,1745187646817940990
418913,-260,-84,11,1433,1556,-7734,1745187646817940990
419105,-276,-74,4,1385,1747,-6736,1745187646817940990
419297,-274,-61,-4,1236,1906,-6694,1745187646817940990
419489,-247,-72,-19,1036,1958,-7477,1745187646817940990
419681,-207,-88,-42,838,1880,-8206,1745187646817940990
419873,-168,-78,-54,761,1768,-8398,1745187646817940990
420065,-151,-43,-39,868,1633,-8797,1745187646817940990
420257,-117,-14,-15,1151,1574,-8827,1745187646862092618
420449,-123,8,12,1478,1476,-8900,1745187646862092618
420641,-149,-4,35,1747,1171,-9224,1745187646862092618
420833,-126,-34,40,1855,1092,-9059,1745187646862092618
421025,-123,-50,40,1857,1325,-8799,1745187646862092618
421217,-143,-48,33,1745,1550,-8440,1745187646862092618
421409,-177,-53,17,1614,1663,-8054,1745187646862092618
421601,-190,-62,5,1435,1709,-7676,1745187646862092618
421793,-178,-60,4,1233,1756,-7466,1745187646862092618
421985,-159,-45,12,1095,1855,-7472,1745187646862092618
422177,-148,-24,21,1053,1948,-7630,1745187646862092618
422369,-146,-1,27,1111,1989,-7795,1745187646862092618
422561,-135,17,33,1264,1981,-7861,1745187646927435302
422753,-113,35,38,1447,1946,-7839,1745187646927435302
422945,-91,46,41,1611,1838,-7819,1745187646927435302
423137,-77,47,46,1736,1711,-7794,1745187646927435302
423329,-72,43,55,1786,1548,-7767,1745187646927435302
423521,-69,34,64,1770,1449,-7764,1745187646927435302
423713,-67,29,68,1712,1478,-7820,1745187646927435302
423905,-68,29,62,1650,1620,-7857,1745187646927435302
424097,-70,33,50,1563,1761,-7818,1745187646927435302
424289,-79,37,37,1503,1860,-7701,1745187646927435302
424481,-90,38,30,1446,1843,-7628,1745187646927435302
424673,-91,40,34,1367,1809,-7662,1745187646927435302
424865,-89,43,43,1334,1776,-7793,1745187646993299440
425057,-92,51,49,1323,1800,-7967,1745187646993299440
425249,-99,61,49,1367,1872,-8097,1745187646993299440
425441,-108,76,48,1444,1992,-8098,1745187646993299440
425633,-109,84,51,1552,2118,-8020,1745187646993299440
425825,-101,85,56,1611,2163,-7954,1745187646993299440
426017,-89,80,62,1624,2160,-7929,1745187646993299440
426209,-74,74,70,1594,2149,-7913,1745187646993299440
426401,-52,72,78,1532,2146,-7870,1745187646993299440
426593,-28,76,85,1492,2151,-7804,1745187646993299440
426785,-13,83,89,1509,2099,-7714,1745187646993299440
426977,-8,88,91,1538,1982,-7591,1745187646993299440
427169,-7,87,94,1583,1799,-7518,1745187647037274611
427361,-5,83,102,1596,1633,-7521,1745187647037274611
427553,-7,80,110,1576,1562,-7551,1745187647037274611
427745,-16,77,113,1588,1511,-7589,1745187647037274611
427937,-28,75,109,1603,1509,-7640,1745187647037274611
428129,-37,73,103,1594,1575,-7720,1745187647037274611
428321,-48,73,97,1612,1657,-7819,1745187647037274611
428513,-63,72,94,1633,1802,-7856,1745187647037274611
428705,-77,71,90,1683,1935,-7839,1745187647037274611
428897,-87,67,84,1698,1993,-7826,1745187647037274611
429089,-93,61,78,1732,2023,-7772,1745187647037274611
429281,-105,62,77,1703,2082,-7507,1745187647037274611
429473,-153,59,82,1730,1997,-7939,1745187647105153783
429665,-123,38,81,1694,2044,-7930,1745187647105153783
429857,-88,32,86,1665,2149,-7887,1745187647105153783
430049,-68,32,89,1630,2052,-7722,1745187647105153783
430241,-56,27,90,1583,1870,-7681,1745187647105153783
430433,-38,15,92,1516,1678,-7718,1745187647105153783
430625,-22,11,95,1461,1611,-7739,1745187647105153783
430817,-27,21,94,1485,1607,-7731,1745187647105153783
431009,-38,30,87,1540,1659,-7715,1745187647105153783
431201,-41,35,79,1622,1731,-7673,1745187647105153783
431393,-39,35,73,1686,1803,-7646,1745187647105153783
431585,-33,34,68,1731,1838,-7632,1745187647105153783
431777,-23,31,61,1754,1837,-7635,1745187647155288429
431969,-17,38,54,1765,1873,-7382,1745187647155288429
432161,-46,45,47,1826,1837,-7754,1745187647155288429
432353,-18,31,39,1833,1814,-7726,1745187647155288429
432545,16,21,41,1851,1837,-7742,1745187647155288429
432737,35,24,44,1813,1771,-7497,1745187647155288429
432929,23,26,40,1807,1670,-7544,1745187647155288429
433121,-8,32,42,1830,1642,-7224,1745187647155288429
433313,-66,37,43,1800,1563,-7837,1745187647155288429
433505,-31,9,29,1741,1618,-7944,1745187647155288429
433697,19,-4,20,1675,1897,-8114,1745187647155288429
433889,26,7,20,1657,1915,-7937,1745187647155288429
434081,21,9,7,1633,1718,-7754,1745187647221456887
434273,39,-4,-10,1571,1605,-7751,1745187647221456887
434465,57,-9,-13,1450,1586,-7844,1745187647221456887
434657,34,-1,-1,1407,1636,-7927,1745187647221456887
434849,1,1,7,1393,1696,-7910,1745187647221456887
435041,-4,1,7,1420,1758,-7830,1745187647221456887
435233,7,3,6,1455,1779,-7736,1745187647221456887
435425,23,5,4,1472,1750,-7717,1745187647221456887
435617,30,3,2,1495,1741,-7756,1745187647221456887
435809,21,3,-1,1538,1788,-7806,1745187647221456887
436001,8,8,-5,1610,1845,-7811,1745187647221456887
436193,-4,13,-8,1703,1905,-7784,1745187647221456887
436385,-11,13,-8,1815,1915,-7778,1745187647276170710
436577,-16,2,-9,1686,1594,-7331,1745187647276170710
436769,-23,137,-59,-1048,-3087,-4900,1745187647276170710
436961,-287,373,-224,462,-2051,-10244,1745187647276170710
437153,-614,234,-250,2125,2454,-7136,1745187647276170710
437345,-463,165,-47,3221,5158,-7320,1745187647276170710
437537,-310,57,102,2902,4031,-7599,1745187647276170710
437729,-231,24,36,2341,2691,-7627,1745187647276170710
437921,-165,33,-98,2106,2359,-7656,1745187647276170710
438113,-91,37,-139,1923,2478,-7742,1745187647276170710
438305,-38,18,-74,1715,2477,-7786,1745187647276170710
438497,-42,-5,16,1617,2432,-7808,1745187647276170710
438689,-53,-10,73,1606,2331,-7779,1745187647336522919
438881,-39,-18,98,1703,2335,-7759,1745187647336522919
439073,-22,-21,107,1734,2320,-7747,1745187647336522919
439265,-9,-24,112,1745,2201,-7744,1745187647336522919
439457,8,-31,117,1784,1810,-7431,1745187647336522919
439649,36,39,172,1439,902,-7740,1745187647336522919
439841,18,37,313,1591,1262,-7784,1745187647336522919
440033,0,-5,327,1732,2235,-7801,1745187647336522919
440225,13,-27,154,1641,2818,-7955,1745187647336522919
440417,18,-19,-36,1768,2489,-7865,1745187647336522919
440609,60,13,-91,1928,2002,-7834,1745187647336522919
440801,114,17,-15,2016,1630,-7675,1745187647336522919
440993,366,25,-24,2341,-347,-5252,1745187647395421704
441185,700,-12,-141,850,4576,-10965,1745187647395421704
441377,-35,-38,93,1751,2837,-7684,1745187647395421704
441569,-69,-10,33,1716,2387,-7898,1745187647395421704
441761,-96,4,36,1687,1910,-7855,1745187647395421704
441953,-115,6,72,1747,1770,-7884,1745187647395421704
442145,-147,3,106,1850,1739,-7872,1745187647395421704
442337,-191,-10,114,1880,1803,-7823,1745187647395421704
442529,-232,-21,100,1877,1756,-7813,1745187647395421704
442721,-274,-29,80,1781,1787,-7420,1745187647395421704
442913,-334,-23,61,1642,1812,-7815,1745187647395421704
443105,-362,-27,44,1389,1579,-7860,1745187647395421704
443297,-347,-23,48,1195,1593,-7897,1745187647463680247
443489,-353,2,48,1206,1716,-7710,1745187647463680247
443681,-418,35,16,1477,1691,-7539,1745187647463680247
443873,-509,26,-28,1603,1761,-7731,1745187647463680247
444065,-486,-9,-30,1790,1725,-7729,1745187647463680247
444257,-482,-47,-21,2522,1494,-7714,1745187647463680247
444449,-528,-120,-56,2878,1420,-7668,1745187647463680247
444641,-582,-185,-92,2906,1604,-7847,1745187647463680247
444833,-611,-279,-118,2727,1932,-7733,1745187647463680247
445025,-599,-341,-142,2357,2799,-7619,1745187647463680247
445217,-477,-350,-178,1855,2915,-7265,1745187647463680247
445409,-284,-279,-162,134,2538,-7173,1745187647463680247
445601,-149,-105,-75,-1075,2178,-7315,1745187647512269751
445793,-76,-44,-13,-68,2052,-7496,1745187647512269751
445985,-38,111,22,-276,1763,-7573,1745187647512269751
446177,-30,140,57,1070,1571,-7603,1745187647512269751
446369,-36,197,48,2042,1748,-7702,1745187647512269751
446561,-39,165,32,2604,2007,-7673,1745187647512269751
446753,-48,157,-1,2863,2151,-7632,1745187647512269751
446945,-45,109,-30,2742,2203,-7557,1745187647512269751
447137,-26,71,-48,2492,2248,-7568,1745187647512269751
447329,14,-3,-66,3200,2643,-7633,1745187647512269751
447521,52,-44,-77,1811,2512,-7631,1745187647512269751
447713,59,-30,-68,1530,2123,-7708,1745187647512269751
447905,66,-9,-73,1583,2163,-7637,1745187647631274393
448097,81,-18,-78,1310,2296,-7662,1745187647631274393
448289,70,23,-76,1456,2242,-7622,1745187647631274393
448481,73,12,-72,1545,2289,-7523,1745187647631274393
448673,78,26,-66,1524,2180,-7664,1745187647631274393
448865,75,39,-54,1742,2269,-7489,1745187647631274393
449057,119,-15,-35,2096,3043,-7849,1745187647631274393
449249,150,-25,-25,2227,2984,-7667,1745187647631274393
449441,181,-61,-31,1805,2538,-7703,1745187647631274393
449633,183,-16,-40,884,1949,-7699,1745187647631274393
449825,152,17,-40,858,1734,-7775,1745187647631274393
450017,123,15,-40,1187,1893,-7769,1745187647631274393
450209,83,1,-35,1564,2067,-7663,1745187647645650043
450401,59,18,-23,1719,2177,-7604,1745187647645650043
450593,48,34,-15,1809,2262,-7575,1745187647645650043
450785,43,39,-26,1787,2345,-7591,1745187647645650043
450977,42,30,-43,1760,2391,-7596,1745187647645650043
451169,44,19,-53,1725,2362,-7562,1745187647645650043
451361,48,23,-59,1716,2238,-7557,1745187647645650043
451553,46,27,-69,1728,2152,-7566,1745187647645650043
451745,35,25,-74,1734,2095,-7589,1745187647645650043
451937,24,20,-69,1697,2040,-7623,1745187647645650043
452129,7,18,-71,1779,1898,-7660,1745187647645650043
452321,-20,29,-81,1990,1636,-7556,1745187647645650043
452513,-63,20,-67,1851,1615,-7779,1745187647685048746
452705,-117,-13,-49,1538,1972,-7911,1745187647685048746
452897,-162,-31,-53,1277,2317,-7866,1745187647685048746
453089,-187,-32,-43,1168,2391,-7753,1745187647685048746
453281,-184,-10,-10,1135,2336,-7590,1745187647685048746
453473,-177,-10,50,1275,1719,-7552,1745187647685048746
453665,-229,-24,94,1317,1181,-7563,1745187647685048746
453857,-310,-31,102,1566,721,-7509,1745187647685048746
454049,-418,-42,88,1804,860,-7506,1745187647685048746
454241,-495,-72,70,2262,1410,-7551,1745187647685048746
454433,-547,-118,45,2617,1946,-7604,1745187647685048746
454625,-654,-183,10,2965,2790,-8460,1745187647685048746
454817,-899,-211,-25,2959,3359,-8308,1745187647748133794
455009,-1014,-229,-41,4216,2941,-7210,1745187647748133794
455201,-623,-439,-74,-636,2390,-8417,1745187647748133794
455393,-609,-605,6,1309,3019,-7396,1745187647748133794
455585,-555,-583,117,756,2953,-7668,1745187647748133794
455777,-479,-508,150,801,3382,-6853,1745187647748133794
455969,-345,-287,4,851,2765,-6750,1745187647748133794
456161,-225,-66,-18,777,2897,-7481,1745187647748133794
456353,-190,-5,-13,895,2824,-7505,1745187647748133794
456545,-141,42,-3,1160,2764,-7161,1745187647748133794
456737,-56,169,15,1337,2730,-6908,1745187647748133794
456929,30,205,-3,952,2865,-8713,1745187647748133794
457121,-55,64,21,1303,2866,-7666,1745187647909053679
457313,-52,88,10,1464,2764,-7212,1745187647909053679
457505,16,161,-63,1573,2526,-6677,1745187647909053679
457697,137,392,-169,1531,2589,-6623,1745187647909053679
457889,280,673,-252,896,1296,-6812,1745187647909053679
458081,322,442,-84,1081,2707,-10488,1745187647909053679
458273,-113,116,-37,1370,2629,-7405,1745187647909053679
458465,-149,147,-12,1587,2337,-7559,1745187647909053679
458657,-177,102,3,1799,2120,-7445,1745187647909053679
458849,-186,103,10,1949,2169,-7444,1745187647909053679
459041,-183,83,9,1935,2212,-7590,1745187647909053679
459233,-196,65,-4,1917,2385,-7578,1745187647909053679
459425,-208,37,-22,1962,2494,-7615,1745187647916625276
459617,-222,22,-36,2025,2566,-7561,1745187647916625276
459809,-218,-6,-45,2031,2656,-7527,1745187647916625276
460001,-202,-24,-41,1959,2793,-7522,1745187647916625276
460193,-189,-31,-30,1881,2912,-7493,1745187647916625276
460385,-172,-43,-26,1841,2896,-7468,1745187647916625276
460577,-155,-46,-28,1781,2782,-7478,1745187647916625276
460769,-142,-52,-24,1747,2739,-7498,1745187647916625276
460961,-134,-57,-18,1731,2731,-7468,1745187647916625276
461153,-126,-58,-14,1684,2742,-7427,1745187647916625276
461345,-117,-64,-13,1637,2666,-7397,1745187647916625276
461537,-111,-67,-14,1551,2583,-7427,1745187647916625276
461729,-112,-68,-14,1525,2464,-7458,1745187647920852737
461921,-121,-76,-12,1528,2425,-7512,1745187647920852737
462113,-137,-78,-13,1521,2515,-7536,1745187647920852737
462305,-158,-81,-17,1571,2606,-7465,1745187647920852737
462497,-180,-85,-20,1602,2662,-7354,1745187647920852737
462689,-198,-91,-20,1606,2670,-7317,1745187647920852737
462881,-202,-102,-13,1588,2743,-7344,1745187647920852737
463073,-201,-110,-5,1561,2821,-7421,1745187647920852737
463265,-199,-117,1,1551,2846,-7452,1745187647920852737
463457,-181,-125,0,1525,2773,-7358,1745187647920852737
463649,-148,-123,-2,1495,2778,-7235,1745187647920852737
463841,-176,-98,5,1443,2796,-6879,1745187647920852737
464033,-182,-87,11,1441,2660,-6974,1745187647982768786
464225,-215,-71,7,1445,2768,-6823,1745187647982768786
464417,-322,-45,27,1664,2677,-7077,1745187647982768786
464609,-347,-60,36,1824,2380,-7445,1745187647982768786
464801,-271,-100,23,1776,2488,-7657,1745187647982768786
464993,-195,-107,4,1754,2931,-8165,1745187647982768786
465185,-189,-102,-25,1716,3000,-7905,1745187647982768786
465377,-153,-105,-57,1616,2940,-7382,1745187647982768786
465569,-77,-106,-68,1346,3029,-6206,1745187647982768786
465761,-12,-103,-65,1046,2974,-7087,1745187647982768786
465953,-34,-123,-61,936,2712,-7690,1745187647982768786
466145,-107,-114,-37,1010,2706,-7715,1745187647982768786
466337,-159,-129,7,1287,2584,-8399,1745187648041050910
466529,-139,-123,18,1621,2947,-7442,1745187648041050910
466721,-208,-85,30,1920,3018,-7985,1745187648041050910
466913,-211,-126,7,1873,2722,-7971,1745187648041050910
467105,-107,-179,-10,1583,3069,-8263,1745187648041050910
467297,-27,-180,-13,1293,3469,-8006,1745187648041050910
467489,-30,-149,-32,1165,3476,-7769,1745187648041050910
467681,-44,-127,-60,1207,3181,-7626,1745187648041050910
467873,-35,-118,-64,1313,2938,-7540,1745187648041050910
468065,-35,-105,-47,1395,2821,-7494,1745187648041050910
468257,-57,-97,-34,1459,2688,-7436,1745187648041050910
468449,-66,-102,-30,1411,2521,-7423,1745187648041050910
468641,-40,-100,-37,1302,2502,-7509,1745187648094529797
468833,-4,-85,-46,1145,2638,-7606,1745187648094529797
469025,35,-64,-55,1112,2736,-7715,1745187648094529797
469217,71,-41,-63,1177,2797,-7702,1745187648094529797
469409,91,-19,-68,1286,2717,-7658,1745187648094529797
469601,86,-4,-77,1479,2585,-7553,1745187648094529797
469793,68,-2,-84,1700,2571,-7417,1745187648094529797
469985,57,-22,-85,1863,2730,-7255,1745187648094529797
470177,63,-45,-81,1753,3007,-7228,1745187648094529797
470369,74,-65,-71,1467,3095,-7255,1745187648094529797
470561,89,-54,-66,1198,2940,-7368,1745187648094529797
470753,97,-32,-70,1053,2745,-7487,1745187648094529797
535457,-24,-105,66,1458,3030,-7505,1745187649795261813
535649,-83,-91,75,1395,3007,-7452,1745187649795261813
535841,-64,-79,101,1412,2766,-7584,1745187649795261813
536033,-76,-83,118,1560,2721,-7512,1745187649795261813
536225,-87,-89,86,1623,2477,-7401,1745187649795261813
536417,-89,-109,50,1548,2537,-7425,1745187649795261813
536609,-104,-138,45,1524,2809,-7408,1745187649795261813
536801,-106,-155,54,1614,2887,-7515,1745187649795261813
536993,-104,-182,53,1736,2959,-7480,1745187649795261813
537185,-98,-214,47,1719,3018,-7419,1745187649795261813
537377,-91,-245,51,1656,2913,-7496,1745187649795261813
537569,-97,-265,60,1548,2744,-7617,1745187649795261813
537761,-117,-268,62,1295,2546,-7728,1745187649853306022
537953,-149,-256,66,971,2348,-7790,1745187649853306022
538145,-188,-229,75,665,2188,-7806,1745187649853306022
538337,-225,-190,86,434,2199,-7807,1745187649853306022
538529,-253,-149,96,348,2331,-7836,1745187649853306022
538721,-274,-107,101,445,2465,-7860,1745187649853306022
538913,-290,-69,103,604,2573,-7864,1745187649853306022
539105,-304,-38,104,794,2676,-7878,1745187649853306022
539297,-320,-16,102,933,2648,-7845,1745187649853306022
539489,-342,2,95,987,2529,-7784,1745187649853306022
539681,-369,15,83,1048,2407,-7652,1745187649853306022
539873,-394,23,77,1099,2483,-7559,1745187649853306022
540065,-415,30,78,1123,2520,-7564,1745187649926709831
540257,-435,42,73,1130,2498,-7619,1745187649926709831
540449,-456,59,53,1118,2521,-7688,1745187649926709831
540641,-485,73,7,1130,3156,-7856,1745187649926709831
540833,-522,85,-111,1153,3729,-7419,1745187649926709831
541025,-496,140,-179,1158,3061,-7510,1745187649926709831
541217,-459,172,-112,1177,3176,-7743,1745187649926709831
541409,-474,183,-57,1335,3579,-7730,1745187649926709831
541601,-457,195,-52,1599,3696,-7834,1745187649926709831
541793,-407,192,-53,1828,3568,-7446,1745187649926709831
541985,-328,215,-52,1744,3822,-7736,1745187649926709831
542177,-319,195,-44,1644,4189,-7773,1745187649926709831
542369,-631,209,-44,1530,5782,-10069,1745187649973427268
542561,-802,128,40,1704,3587,-4567,1745187649973427268
542753,-31,163,57,1560,4152,-7729,1745187649973427268
542945,8,27,127,883,5159,-10152,1745187649973427268
543137,-303,-655,390,236,4395,-11773,1745187649973427268
543329,-478,-1203,326,2995,5231,-3244,1745187649973427268
543521,85,-710,77,1728,4764,-4543,1745187649973427268
543713,775,-273,-38,1092,5840,-3926,1745187649973427268
543905,1053,308,60,1022,3895,-5421,1745187649973427268
544097,1046,607,50,-232,487,-7088,1745187649973427268
544289,1083,599,-44,249,214,-8159,1745187649973427268
544481,799,374,-2,412,-995,-8269,1745187649973427268
544673,397,245,117,1089,-1845,-6714,1745187650027107716
544865,191,335,136,1315,-1233,-7074,1745187650027107716
545057,-48,365,133,1745,282,-7275,1745187650027107716
545249,-286,347,82,1820,1057,-6984,1745187650027107716
545441,-356,365,-19,2149,2784,-6658,1745187650027107716
545633,-330,326,-220,2011,3819,-7143,1745187650027107716
545825,-267,244,-268,1941,3970,-7378,1745187650027107716
546017,-208,110,-165,1994,4730,-7701,1745187650027107716
546209,-194,-63,-149,1851,4711,-7369,1745187650027107716
546401,-120,-130,-136,1699,4740,-7372,1745187650027107716
546593,-34,-122,-156,1444,4385,-7463,1745187650027107716
546785,33,-115,-164,1264,3837,-7404,1745187650027107716
546977,80,-102,-137,1142,3293,-7454,1745187650086818680
547169,105,-98,-74,1023,2873,-7549,1745187650086818680
547361,108,-99,1,948,2723,-7710,1745187650086818680
547553,88,-92,52,901,2737,-7882,1745187650086818680
547745,55,-75,72,893,2917,-7980,1745187650086818680
547937,24,-50,72,948,3196,-7969,1745187650086818680
548129,0,-19,71,1082,3550,-7862,1745187650086818680
548321,-13,5,79,1235,3842,-7757,1745187650086818680
548513,-15,20,92,1368,4012,-7673,1745187650086818680
548705,-6,32,106,1456,4057,-7629,1745187650086818680
548897,10,42,115,1477,3920,-7620,1745187650086818680
549089,32,54,117,1472,3717,-7623,1745187650086818680
549281,55,67,117,1411,3462,-7626,1745187650145412208
549473,75,76,119,1360,3206,-7607,1745187650145412208
549665,91,85,127,1328,2958,-7554,1745187650145412208
549857,100,91,136,1288,2791,-7506,1745187650145412208
550049,102,98,143,1286,2674,-7454,1745187650145412208
550241,98,103,146,1296,2585,-7403,1745187650145412208
550433,95,107,146,1365,2543,-7359,1745187650145412208
550625,96,110,143,1462,2526,-7295,1745187650145412208
550817,102,113,137,1546,2550,-7234,1745187650145412208
551009,109,111,128,1649,2559,-7164,1745187650145412208
551201,115,108,117,1744,2565,-7101,1745187650145412208
551393,122,99,104,1804,2560,-7054,1745187650145412208
551585,126,90,92,1839,2564,-7033,1745187650203979121
551777,123,80,82,1835,2579,-7007,1745187650203979121
551969,114,68,72,1829,2623,-7054,1745187650203979121
552161,98,57,65,1810,2669,-7091,1745187650203979121
552353,81,45,58,1806,2758,-7135,1745187650203979121
552545,66,33,51,1771,2872,-7182,1745187650203979121
552737,55,26,44,1733,2993,-6924,1745187650203979121
552929,10,55,36,1714,3212,-6203,1745187650203979121
553121,-112,70,30,1838,3179,-7029,1745187650203979121
553313,-118,33,21,1949,3112,-6987,1745187650203979121
553505,-94,8,48,1934,3188,-7255,1745187650203979121
553697,-57,-2,82,1911,3305,-7393,1745187650203979121
553889,-50,-5,78,1865,3327,-7198,1745187650261096099
554081,-45,-1,51,1771,3282,-6762,1745187650261096099
554273,-82,9,36,1773,3111,-6853,1745187650261096099
554465,-118,3,37,1844,2886,-7065,1745187650261096099
554657,-112,-29,49,1856,2718,-7371,1745187650261096099
554849,-70,-63,61,1799,2706,-7486,1745187650261096099
555041,-39,-73,62,1647,2821,-7449,1745187650261096099
555233,-38,-66,49,1523,2880,-7312,1745187650261096099
555425,-55,-59,33,1486,2816,-7243,1745187650261096099
555617,-65,-67,26,1461,2638,-7278,1745187650261096099
555809,-55,-85,34,1400,2506,-7167,1745187650261096099
556001,-52,-93,53,1298,2444,-7155,1745187650261096099
556193,-61,-91,73,1272,2428,-7132,1745187650321422371
556385,-85,-82,82,1289,2429,-7134,1745187650321422371
556577,-111,-75,86,1321,2465,-7074,1745187650321422371
556769,-128,-67,85,1378,2537,-6885,1745187650321422371
556961,-163,-58,91,1530,2581,-7182,1745187650321422371
557153,-175,-64,95,1652,2660,-7190,1745187650321422371
557345,-175,-77,91,1658,2876,-7164,1745187650321422371
557537,-171,-81,92,1643,3053,-7143,1745187650321422371
557729,-166,-75,98,1646,3175,-7109,1745187650321422371
557921,-156,-65,103,1655,3195,-6996,1745187650321422371
558113,-137,-58,101,1643,3253,-6910,1745187650321422371
558305,-112,-47,94,1595,3310,-6649,1745187650321422371
558497,-76,-20,88,1503,3421,-6265,1745187650379162416
558689,-16,14,85,1434,3512,-6331,1745187650379162416
558881,58,32,71,1421,3463,-7214,1745187650379162416
559073,21,20,70,1622,2967,-8773,1745187650379162416
559265,-149,-30,121,1904,2056,-9211,1745187650379162416
559457,-302,-74,206,1920,1544,-8136,1745187650379162416
559649,-314,-54,264,1825,2041,-7204,1745187650379162416
559841,-219,17,247,1811,3022,-7113,1745187650379162416
560033,-118,85,166,1805,3703,-7090,1745187650379162416
560225,-29,125,68,1711,3874,-6937,1745187650379162416
560417,65,140,3,1567,3777,-7132,1745187650379162416
560609,129,155,-7,1479,3559,-7663,1745187650379162416
560801,154,171,13,1420,3486,-8041,1745187650436396008
560993,163,202,31,1357,3558,-8322,1745187650436396008
561185,151,247,38,1384,3505,-8751,1745187650436396008
561377,147,298,40,1447,3325,-9134,1745187650436396008
561569,179,348,43,1550,3210,-9315,1745187650436396008
561761,235,396,36,1671,3123,-9649,1745187650436396008
561953,263,414,27,1927,2829,-10651,1745187650436396008
562145,210,406,10,2329,2300,-10863,1745187650436396008
562337,81,400,-15,2637,1876,-11094,1745187650436396008
562529,-79,379,-41,2812,1657,-11042,1745187650436396008
562721,-220,358,-77,3027,1524,-10725,1745187650436396008
562913,-354,343,-120,3326,1396,-10770,1745187650436396008
563105,-480,295,-166,3561,1237,-10980,1745187650501107969
563297,-575,238,-209,3616,1224,-11171,1745187650501107969
563489,-663,183,-245,3596,1515,-11199,1745187650501107969
563681,-744,141,-284,3580,1854,-11183,1745187650501107969
563873,-799,125,-333,3505,2032,-11160,1745187650501107969
564065,-814,103,-392,3389,2122,-11019,1745187650501107969
564257,-820,91,-452,3310,2165,-11079,1745187650501107969
564449,-834,84,-499,3282,2164,-11216,1745187650501107969
564641,-856,78,-525,3282,2145,-11340,1745187650501107969
564833,-870,77,-531,3321,2237,-11414,1745187650501107969
565025,-866,83,-520,3379,2553,-11532,1745187650501107969
565217,-840,94,-505,3454,3013,-11439,1745187650501107969
565409,-788,109,-495,3552,3541,-11310,1745187650554120297
565601,-720,124,-494,3685,3941,-11224,1745187650554120297
565793,-644,123,-497,3868,4095,-11095,1745187650554120297
565985,-570,107,-499,4074,3998,-10926,1745187650554120297
566177,-506,78,-493,4276,3827,-10856,1745187650554120297
566369,-466,39,-475,4456,3659,-10720,1745187650554120297
566561,-468,0,-451,4611,3527,-10580,1745187650554120297
566753,-498,-35,-428,4685,3420,-10571,1745187650554120297
566945,-535,-55,-408,4749,3267,-10157,1745187650554120297
567137,-578,-67,-394,4805,3091,-9969,1745187650554120297
567329,-624,-88,-390,4909,2950,-9915,1745187650554120297
567521,-687,-114,-393,5003,2873,-9848,1745187650554120297
567713,-731,-146,-400,5067,2914,-9686,1745187650617687841
567905,-723,-179,-401,5117,3226,-9506,1745187650617687841
568097,-669,-209,-397,5211,3706,-9318,1745187650617687841
568289,-602,-223,-401,5333,4148,-9300,1745187650617687841
568481,-547,-234,-404,5575,4283,-9371,1745187650617687841
568673,-495,-272,-393,5892,4051,-9566,1745187650617687841
568865,-415,-308,-362,6242,3815,-9717,1745187650617687841
569057,-310,-362,-322,6592,3796,-9932,1745187650617687841
569249,-199,-438,-285,6856,3974,-10200,1745187650617687841
569441,-82,-514,-244,7031,4083,-10320,1745187650617687841
569633,40,-609,-172,7201,3695,-10325,1745187650617687841
569825,175,-747,-52,7422,2763,-10333,1745187650617687841
570017,311,-915,107,7438,1604,-10385,1745187650675752363
570209,409,-1107,279,7206,527,-10481,1745187650675752363
570401,425,-1273,424,7382,-282,-10542,1745187650675752363
570593,366,-1390,521,7783,-833,-10426,1745187650675752363
570785,222,-1462,572,7078,-1226,-10321,1745187650675752363
570977,26,-1523,609,6732,-1299,-10032,1745187650675752363
571169,-193,-1562,624,6415,-1094,-9898,1745187650675752363
571361,-432,-1606,618,6238,-657,-9722,1745187650675752363
571553,-683,-1646,618,6215,-186,-9527,1745187650675752363
571745,-925,-1689,635,6168,342,-9310,1745187650675752363
571937,-1143,-1748,659,6169,824,-9154,1745187650675752363
572129,-1330,-1819,686,6135,1220,-8992,1745187650675752363
572321,-1482,-1897,724,6076,1547,-8869,1745187650733213401
572513,-1597,-1985,772,5995,1791,-8848,1745187650733213401
572705,-1674,-2076,831,5912,2030,-8805,1745187650733213401
572897,-1732,-2169,894,5848,2195,-8829,1745187650733213401
573089,-1792,-2274,955,5788,2268,-8906,1745187650733213401
573281,-1859,-2386,1008,5697,2280,-8789,1745187650733213401
573473,-1930,-2501,1059,5579,2249,-8733,1745187650733213401
573665,-2001,-2621,1110,5422,2299,-8703,1745187650733213401
573857,-2074,-2733,1158,5285,2360,-8327,1745187650733213401
574049,-2151,-2845,1201,5141,2498,-8037,1745187650733213401
574241,-2210,-2952,1235,5001,2809,-7668,1745187650733213401
574433,-2240,-3046,1262,4881,3303,-7212,1745187650733213401
574625,-2247,-3147,1280,4760,3875,-6656,1745187650790770739
574817,-2234,-3254,1290,4670,4424,-6217,1745187650790770739
575009,-2221,-3366,1300,4562,4807,-5949,1745187650790770739
575201,-2213,-3484,1307,4445,5064,-5601,1745187650790770739
575393,-2195,-3601,1323,4316,5132,-5201,1745187650790770739
575585,-2164,-3713,1380,4137,5307,-4658,1745187650790770739
575777,-2104,-3833,1421,3941,5536,-4345,1745187650790770739
575969,-2025,-3941,1443,3690,5716,-3974,1745187650790770739
576161,-1936,-4034,1467,3459,5923,-3624,1745187650790770739
576353,-1849,-4103,1501,3234,6077,-3435,1745187650790770739
576545,-1780,-4160,1544,3084,6130,-3386,1745187650790770739
576737,-1721,-4213,1585,2950,6160,-3407,1745187650790770739
576929,-1663,-4267,1624,2854,6162,-3483,1745187650844839152
577121,-1595,-4323,1658,2775,6146,-3422,1745187650844839152
577313,-1516,-4380,1691,2681,6090,-3297,1745187650844839152
577505,-1427,-4434,1718,2567,6047,-3183,1745187650844839152
577697,-1348,-4484,1737,2451,6016,-3122,1745187650844839152
577889,-1296,-4532,1750,2371,5995,-3010,1745187650844839152
578081,-1261,-4577,1760,2287,5958,-2750,1745187650844839152
578273,-1225,-4612,1769,2220,5995,-2364,1745187650844839152
578465,-1171,-4637,1778,2170,6113,-1978,1745187650844839152
578657,-1104,-4649,1789,2167,6164,-1530,1745187650844839152
578849,-1045,-4657,1804,2185,6166,-1167,1745187650844839152
579041,-997,-4667,1820,2267,6166,-867,1745187650844839152
579233,-966,-4680,1834,2340,6156,-486,1745187650926517624
579425,-950,-4697,1850,2432,6166,-107,1745187650926517624
579617,-938,-4717,1866,2533,6224,158,1745187650926517624
579809,-921,-4740,1883,2598,6335,352,1745187650926517624
580001,-905,-4761,1896,2717,6344,534,1745187650926517624
580193,-901,-4787,1907,2845,6223,654,1745187650926517624
580385,-906,-4815,1914,2994,6025,789,1745187650926517624
580577,-921,-4842,1921,3144,5804,945,1745187650926517624
580769,-944,-4862,1923,3283,5610,1173,1745187650926517624
580961,-980,-4875,1919,3427,5567,1363,1745187650926517624
581153,-1036,-4878,1907,3563,5703,1600,1745187650926517624
581345,-1095,-4870,1886,3730,5918,1805,1745187650926517624
581537,-1147,-4863,1858,3940,6041,1951,1745187650964571339
581729,-1187,-4873,1821,4193,6031,1994,1745187650964571339
581921,-1205,-4901,1777,4405,5892,2053,1745187650964571339
582113,-1179,-4931,1726,4629,5901,2310,1745187650964571339
582305,-1215,-4954,1698,4728,5766,2461,1745187650964571339
582497,-1213,-4966,1670,4812,5769,2465,1745187650964571339
582689,-1213,-4968,1642,4824,5735,2512,1745187650964571339
582881,-1217,-4954,1608,4821,5707,2615,1745187650964571339
583073,-1216,-4934,1567,4850,5751,2758,1745187650964571339
583265,-1216,-4910,1527,4917,5763,2900,1745187650964571339
583457,-1220,-4883,1487,5013,5788,3069,1745187650964571339
583649,-1219,-4850,1440,5103,5904,3338,1745187650964571339
583841,-1203,-4806,1386,5186,6123,3609,1745187651020813898
584033,-1159,-4755,1330,5233,6391,3851,1745187651020813898
584225,-1101,-4707,1272,5214,6665,4107,1745187651020813898
584417,-1037,-4653,1213,5152,6873,4352,1745187651020813898
584609,-968,-4600,1164,5026,7003,4544,1745187651020813898
584801,-896,-4537,1128,4838,7040,4668,1745187651020813898
584993,-822,-4468,1102,4611,7112,4762,1745187651020813898
585185,-753,-4385,1079,4365,7203,4759,1745187651020813898
585377,-695,-4292,1055,4088,7264,4890,1745187651020813898
585569,-644,-4194,1036,3798,7299,4987,1745187651020813898
585761,-613,-4105,1004,3493,7296,4884,1745187651020813898
585953,-574,-4052,957,3065,6854,4202,1745187651020813898
586145,-536,-4212,1171,2692,6463,2598,1745187651094020209
586337,-1076,-4433,1052,3955,6348,7040,1745187651094020209
586529,-980,-4130,750,2758,8698,7083,1745187651094020209
586721,-924,-3849,761,916,8627,4876,1745187651094020209
586913,-794,-3642,733,2203,9032,8172,1745187651094020209
587105,-753,-3126,738,907,9181,6365,1745187651094020209
587297,-803,-2875,714,373,9018,6124,1745187651094020209
587489,-856,-2714,668,-149,8817,6569,1745187651094020209
587681,-899,-2539,596,-711,8646,6749,1745187651094020209
587873,-930,-2335,520,-1236,8525,6642,1745187651094020209
588065,-939,-2136,447,-1617,8458,6562,1745187651094020209
588257,-928,-1938,376,-1953,8334,6369,1745187651094020209
588449,-868,-1745,312,-2196,8247,6242,1745187651137553249
588641,-755,-1533,257,-2267,8212,5737,1745187651137553249
588833,-634,-1352,217,-2272,8269,5207,1745187651137553249
589025,-503,-1187,181,-2156,8266,4780,1745187651137553249
589217,-372,-1046,149,-1974,8150,4419,1745187651137553249
589409,-256,-929,123,-1803,7903,4167,1745187651137553249
589601,-162,-840,98,-1640,7547,4035,1745187651137553249
589793,-88,-759,86,-1522,7281,4078,1745187651137553249
589985,-36,-688,89,-1397,7166,4170,1745187651137553249
590177,-2,-623,97,-1293,7245,4204,1745187651137553249
590369,28,-567,107,-1190,7542,4309,1745187651137553249
590561,59,-527,118,-1093,7929,4390,1745187651137553249
590753,93,-499,127,-1060,8292,4450,1745187651209408217
590945,128,-482,133,-1054,8532,4465,1745187651209408217
591137,162,-478,134,-1132,8600,4480,1745187651209408217
591329,195,-480,135,-1224,8631,4468,1745187651209408217
591521,215,-487,150,-1259,8618,4480,1745187651209408217
591713,228,-493,173,-1310,8565,4473,1745187651209408217
591905,235,-502,194,-1310,8460,4434,1745187651209408217
592097,234,-514,207,-1308,8313,4375,1745187651209408217
592289,216,-526,212,-1294,8102,4314,1745187651209408217
592481,185,-541,218,-1267,7951,4251,1745187651209408217
592673,145,-546,234,-1221,7922,4132,1745187651209408217
592865,99,-541,256,-1109,8060,3986,1745187651209408217
593057,57,-532,273,-951,8320,3859,1745187651254636658
593249,27,-522,278,-777,8614,3747,1745187651254636658
593441,24,-517,269,-637,8845,3621,1745187651254636658
593633,48,-523,250,-592,8898,3473,1745187651254636658
593825,83,-533,223,-663,8737,3317,1745187651254636658
594017,104,-542,193,-832,8424,3124,1745187651254636658
594209,101,-537,169,-1043,8144,2963,1745187651254636658
594401,77,-517,153,-1199,7900,2794,1745187651254636658
594593,49,-489,143,-1272,7824,2614,1745187651254636658
594785,26,-460,134,-1275,7839,2506,1745187651254636658
594977,16,-439,123,-1231,7921,2474,1745187651254636658
595169,16,-419,110,-1250,7997,2530,1745187651254636658
595361,14,-402,99,-1258,8077,2601,1745187651317029734
595553,7,-383,88,-1270,8069,2648,1745187651317029734
595745,5,-365,83,-1301,8048,2673,1745187651317029734
595937,5,-339,92,-1261,8109,2682,1745187651317029734
596129,9,-307,107,-1160,8246,2688,1745187651317029734
596321,8,-276,114,-1013,8421,2635,1745187651317029734
596513,0,-257,114,-864,8609,2606,1745187651317029734
596705,-5,-250,112,-787,8750,2591,1745187651317029734
596897,2,-246,112,-839,8852,2610,1745187651317029734
597089,15,-241,117,-1001,8771,2578,1745187651317029734
597281,23,-236,118,-1167,8544,2416,1745187651317029734
597473,24,-229,114,-1305,8293,2319,1745187651317029734
597665,24,-207,117,-1331,8193,2306,1745187651370934190
597857,16,-178,128,-1257,8266,2300,1745187651370934190
598049,-2,-154,133,-1136,8441,2301,1745187651370934190
598241,-12,-143,130,-1103,8668,2341,1745187651370934190
598433,-2,-138,122,-1140,8805,2355,1745187651370934190
598625,18,-132,111,-1242,8834,2293,1745187651370934190
598817,33,-125,96,-1359,8747,2233,1745187651370934190
599009,37,-111,82,-1417,8627,2245,1745187651370934190
599201,28,-92,72,-1419,8541,2237,1745187651370934190
599393,4,-73,64,-1365,8510,2204,1745187651370934190
599585,-20,-58,60,-1280,8558,2216,1745187651370934190
599777,-30,-43,61,-1211,8684,2198,1745187651370934190
599969,-35,-33,59,-1183,8794,2066,1745187651431157910
600161,-39,-29,56,-1153,8832,2057,1745187651431157910
600353,-37,-23,47,-1135,8853,2065,1745187651431157910
600545,-33,-17,38,-1153,8865,2061,1745187651431157910
600737,-25,-7,32,-1174,8839,2047,1745187651431157910
600929,-16,4,28,-1188,8839,2033,1745187651431157910
601121,-8,16,24,-1177,8807,2018,1745187651431157910
601313,-5,27,22,-1143,8762,1993,1745187651431157910
601505,-5,39,19,-1082,8728,1910,1745187651431157910
601697,1,53,16,-1024,8726,1794,1745187651431157910
601889,12,61,14,-976,8760,1716,1745187651431157910
602081,29,64,8,-961,8779,1657,1745187651431157910
602273,47,64,0,-967,8752,1597,1745187651491190539
602465,64,65,-5,-1001,8733,1564,1745187651491190539
602657,81,70,-5,-1037,8709,1488,1745187651491190539
602849,88,73,-1,-1032,8670,1349,1745187651491190539
603041,83,75,1,-992,8575,1323,1745187651491190539
603233,66,76,2,-953,8511,1288,1745187651491190539
603425,48,73,2,-913,8449,1328,1745187651491190539
603617,43,71,6,-908,8445,1351,1745187651491190539
603809,40,67,8,-920,8516,1319,1745187651491190539
604001,34,61,7,-941,8610,1384,1745187651491190539
604193,34,59,5,-939,8794,1418,1745187651491190539
604385,37,61,4,-927,8971,1380,1745187651491190539
604577,57,62,3,-902,9041,1379,1745187651546734302
604769,103,58,-2,-898,9012,1352,1745187651546734302
604961,140,50,-13,-916,8851,1289,1745187651546734302
605153,157,48,-19,-907,8576,1254,1745187651546734302
605345,161,47,-24,-876,8264,1237,1745187651546734302
605537,159,46,-29,-863,8078,1242,1745187651546734302
605729,150,49,-30,-811,8070,1110,1745187651546734302
605921,130,51,-27,-751,8169,966,1745187651546734302
606113,120,53,-27,-685,8279,903,1745187651546734302
606305,126,50,-32,-678,8378,886,1745187651546734302
606497,135,43,-40,-690,8366,800,1745187651546734302
606689,128,37,-47,-721,8275,770,1745187651546734302
606881,109,32,-51,-722,8142,810,1745187651607002242
607073,85,28,-49,-734,8011,917,1745187651607002242
607265,63,20,-45,-767,7995,1065,1745187651607002242
607457,38,12,-44,-823,7987,1182,1745187651607002242
607649,18,12,-46,-874,7949,1293,1745187651607002242
607841,13,17,-50,-880,7987,1271,1745187651607002242
608033,17,23,-57,-875,8027,1177,1745187651607002242
608225,23,29,-61,-802,8048,1064,1745187651607002242
608417,25,32,-62,-722,8032,987,1745187651607002242
608609,21,30,-64,-663,7972,925,1745187651607002242
608801,17,23,-66,-656,7939,955,1745187651607002242
608993,13,14,-63,-710,7879,966,1745187651607002242
609185,6,7,-59,-766,7862,996,1745187651663978336
609377,-2,4,-57,-848,7808,1043,1745187651663978336
609569,-6,5,-55,-914,7758,1059,1745187651663978336
609761,0,13,-49,-939,7733,1040,1745187651663978336
609953,7,21,-39,-916,7732,972,1745187651663978336
610145,13,24,-33,-875,7744,974,1745187651663978336
610337,18,25,-29,-835,7716,1050,1745187651663978336
610529,25,25,-22,-822,7673,1133,1745187651663978336
610721,33,27,-14,-817,7708,1216,1745187651663978336
610913,41,33,-5,-804,7805,1238,1745187651663978336
611105,49,40,2,-799,7957,1261,1745187651663978336
611297,62,47,8,-822,8078,1332,1745187651663978336
611489,80,55,14,-810,8188,1392,1745187651731680634
611681,104,66,16,-788,8296,1386,1745187651731680634
611873,124,78,14,-791,8331,1345,1745187651731680634
612065,142,89,16,-766,8363,1318,1745187651731680634
612257,159,97,19,-774,8386,1318,1745187651731680634
612449,171,100,19,-817,8402,1415,1745187651731680634
612641,186,105,15,-842,8393,1525,1745187651731680634
612833,202,113,8,-930,8376,1601,1745187651731680634
613025,210,121,-4,-1012,8316,1646,1745187651731680634
613217,200,131,-15,-1077,8178,1694,1745187651731680634
613409,173,144,-25,-1116,8047,1746,1745187651731680634
613601,141,156,-30,-1132,8000,1845,1745187651731680634
613793,111,168,-30,-1123,8032,1969,1745187651781214973
613985,90,177,-34,-1140,8120,2074,1745187651781214973
614177,81,189,-40,-1142,8319,2108,1745187651781214973
614369,83,213,-46,-1116,8533,2028,1745187651781214973
614561,85,239,-51,-1058,8740,1862,1745187651781214973
614753,86,260,-54,-928,8824,1682,1745187651781214973
614945,93,279,-59,-770,8811,1511,1745187651781214973
615137,104,287,-65,-694,8713,1405,1745187651781214973
615329,116,281,-65,-700,8601,1358,1745187651781214973
615521,123,267,-62,-810,8508,1319,1745187651781214973
615713,121,262,-59,-979,8451,1302,1745187651781214973
615905,116,267,-59,-1133,8461,1329,1745187651781214973
616097,109,279,-62,-1249,8517,1403,1745187651841189373
616289,108,292,-72,-1316,8552,1509,1745187651841189373
616481,117,308,-81,-1318,8598,1587,1745187651841189373
616673,127,324,-86,-1286,8568,1668,1745187651841189373
616865,124,338,-91,-1223,8517,1657,1745187651841189373
617057,111,349,-95,-1159,8491,1613,1745187651841189373
617249,89,359,-95,-1088,8514,1571,1745187651841189373
617441,65,365,-96,-1028,8549,1569,1745187651841189373
617633,47,366,-98,-998,8589,1595,1745187651841189373
617825,37,367,-105,-1008,8624,1591,1745187651841189373
618017,33,371,-112,-1011,8592,1589,1745187651841189373
618209,33,377,-118,-1054,8601,1577,1745187651841189373
618401,29,384,-122,-1058,8606,1524,1745187651899502278
618593,19,392,-128,-1063,8607,1401,1745187651899502278
618785,8,399,-132,-1053,8658,1329,1745187651899502278
618977,3,404,-131,-1034,8731,1306,1745187651899502278
619169,7,407,-131,-1038,8789,1305,1745187651899502278
619361,15,407,-132,-1047,8804,1297,1745187651899502278
619553,22,411,-134,-1084,8776,1278,1745187651899502278
619745,26,417,-135,-1101,8701,1246,1745187651899502278
619937,30,423,-137,-1086,8639,1251,1745187651899502278
620129,37,428,-141,-1079,8600,1249,1745187651899502278
620321,48,432,-148,-1044,8543,1242,1745187651899502278
620513,61,433,-157,-1050,8471,1279,1745187651899502278
620705,72,435,-166,-1056,8397,1271,1745187651959504490
620897,74,438,-173,-1071,8326,1161,1745187651959504490
621089,67,441,-179,-1060,8324,1124,1745187651959504490
621281,57,450,-183,-1067,8369,1123,1745187651959504490
621473,54,457,-188,-1075,8436,1120,1745187651959504490
621665,60,462,-197,-1062,8454,1108,1745187651959504490
621857,71,465,-206,-1090,8432,1110,1745187651959504490
622049,89,467,-213,-1119,8378,1149,1745187651959504490
622241,107,470,-216,-1176,8296,1126,1745187651959504490
622433,118,475,-220,-1229,8255,1071,1745187651959504490
622625,123,483,-224,-1266,8226,1028,1745187651959504490
622817,128,492,-231,-1284,8225,1028,1745187651959504490
623009,136,499,-239,-1309,8221,1105,1745187652032071536
623201,147,505,-247,-1316,8158,1172,1745187652032071536
623393,157,513,-251,-1363,8113,1147,1745187652032071536
623585,154,522,-251,-1385,8075,1013,1745187652032071536
623777,137,530,-248,-1415,8156,926,1745187652032071536
623969,126,541,-242,-1452,8382,996,1745187652032071536
624161,134,560,-233,-1476,8697,1169,1745187652032071536
624353,149,579,-227,-1483,8947,1292,1745187652032071536
624545,158,599,-229,-1471,9091,1252,1745187652032071536
624737,142,614,-235,-1457,9134,1055,1745187652032071536
624929,104,628,-237,-1386,9183,848,1745187652032071536
625121,50,638,-235,-1308,9241,729,1745187652032071536
625313,-2,645,-232,-1267,9321,671,1745187652071891380
625505,-41,650,-234,-1272,9334,683,1745187652071891380
625697,-63,656,-246,-1333,9231,667,1745187652071891380
625889,-85,659,-268,-1412,8919,509,1745187652071891380
626081,-126,659,-295,-1521,8393,394,1745187652071891380
626273,-172,665,-315,-1613,7921,445,1745187652071891380
626465,-207,678,-327,-1725,7668,526,1745187652071891380
626657,-231,692,-341,-1814,7632,611,1745187652071891380
626849,-234,705,-363,-1923,7738,679,1745187652071891380
627041,-213,721,-391,-2003,7863,733,1745187652071891380
627233,-174,740,-416,-2075,7962,772,1745187652071891380
627425,-122,761,-433,-2037,8017,820,1745187652071891380
627617,-64,782,-444,-1943,8002,853,1745187652136453603
627809,-10,796,-449,-1771,8084,882,1745187652136453603
628001,38,799,-451,-1605,8193,951,1745187652136453603
628193,87,798,-447,-1474,8351,1045,1745187652136453603
628385,144,797,-437,-1413,8470,1105,1745187652136453603
628577,211,792,-425,-1419,8547,1140,1745187652136453603
628769,274,783,-414,-1465,8567,1102,1745187652136453603
628961,332,777,-401,-1540,8531,1103,1745187652136453603
629153,378,774,-381,-1613,8419,1096,1745187652136453603
629345,392,773,-363,-1658,8146,1025,1745187652136453603
629537,361,770,-353,-1704,7794,925,1745187652136453603
629729,296,771,-340,-1754,7530,868,1745187652136453603
629921,215,780,-319,-1773,7498,842,1745187652190383110
630113,132,788,-301,-1740,7625,827,1745187652190383110
630305,56,797,-294,-1736,7960,928,1745187652190383110
630497,-2,811,-297,-1725,8357,1075,1745187652190383110
630689,-42,829,-305,-1705,8727,1267,1745187652190383110
630881,-65,854,-317,-1676,8968,1344,1745187652190383110
631073,-88,883,-329,-1599,9102,1312,1745187652190383110
631265,-116,913,-342,-1482,9131,1272,1745187652190383110
631457,-152,942,-353,-1326,9129,1323,1745187652190383110
631649,-189,968,-366,-1217,9072,1424,1745187652190383110
631841,-219,986,-381,-1153,9044,1619,1745187652190383110
632033,-243,1008,-402,-1178,9009,1792,1745187652190383110
632225,-261,1039,-431,-1235,8950,1904,1745187652247490557
632417,-274,1073,-467,-1295,8891,1956,1745187652247490557
632609,-283,1113,-509,-1305,8855,1994,1745187652247490557
632801,-292,1159,-553,-1227,8818,2063,1745187652247490557
632993,-290,1209,-601,-1115,8814,2216,1745187652247490557
633185,-269,1229,-649,-1086,8787,2344,1745187652247490557
633377,-246,1275,-702,-1109,8710,2449,1745187652247490557
633569,-216,1317,-755,-1171,8639,2547,1745187652247490557
633761,-177,1372,-810,-1209,8610,2701,1745187652247490557
633953,-132,1411,-864,-1268,8647,2876,1745187652247490557
634145,-91,1486,-919,-1225,8783,2953,1745187652247490557
634337,-26,1547,-969,-1169,9044,3020,1745187652247490557
634529,53,1618,-1010,-1059,9398,2996,1745187652314864629
634721,156,1682,-1044,-952,9708,2931,1745187652314864629
634913,287,1741,-1078,-880,9973,2862,1745187652314864629
635105,437,1797,-1112,-853,10176,2721,1745187652314864629
635297,591,1855,-1142,-789,10266,2562,1745187652314864629
635489,745,1915,-1171,-697,10196,2410,1745187652314864629
635681,892,1967,-1203,-595,9963,2252,1745187652314864629
635873,1029,2011,-1246,-550,9603,2157,1745187652314864629
636065,1155,2049,-1287,-559,9248,2151,1745187652314864629
636257,1265,2091,-1330,-605,8926,2132,1745187652314864629
636449,1359,2136,-1380,-627,8638,2099,1745187652314864629
636641,1439,2181,-1432,-603,8336,2044,1745187652314864629
636833,1515,2224,-1485,-612,8023,2077,1745187652366015881
637025,1606,2270,-1543,-664,7863,2207,1745187652366015881
637217,1720,2319,-1597,-757,7930,2387,1745187652366015881
637409,1833,2365,-1648,-743,8059,2447,1745187652366015881
637601,1939,2407,-1708,-690,8100,2340,1745187652366015881
637793,2044,2443,-1774,-567,8120,2083,1745187652366015881
637985,2154,2474,-1835,-473,8219,1873,1745187652366015881
638177,2327,2521,-1892,-454,8601,2060,1745187652366015881
638369,2597,2579,-1945,-362,9330,2161,1745187652366015881
638561,2887,2626,-2012,-147,9988,2064,1745187652366015881
638753,3167,2659,-2115,143,10309,1921,1745187652366015881
638945,3429,2686,-2231,486,10224,1753,1745187652366015881
639137,3667,2704,-2349,811,9811,1527,1745187652425104976
639329,3887,2716,-2465,1012,9290,1429,1745187652425104976
639521,4100,2730,-2580,1126,8678,1325,1745187652425104976
639713,4284,2732,-2706,1186,7987,1166,1745187652425104976
639905,4436,2734,-2855,1128,7261,889,1745187652425104976
640097,4552,2735,-3014,998,6529,551,1745187652425104976
640289,4633,2735,-3175,824,5848,210,1745187652425104976
640481,4669,2733,-3326,637,5303,-201,1745187652425104976
640673,4653,2725,-3456,480,4835,-609,1745187652425104976
640865,4595,2716,-3565,360,4517,-951,1745187652425104976
641057,4512,2694,-3646,286,4202,-1240,1745187652425104976
641249,4416,2659,-3711,208,3934,-1471,1745187652425104976
641441,4317,2617,-3772,94,3821,-1641,1745187652493569091
641633,4237,2591,-3829,-47,3923,-1852,1745187652493569091
641825,4180,2580,-3876,-148,4230,-1975,1745187652493569091
642017,4137,2561,-3905,-51,4459,-1954,1745187652493569091
642209,4110,2543,-3927,84,4434,-1928,1745187652493569091
642401,4093,2515,-3957,59,4353,-2474,1745187652493569091
642593,4079,2415,-4000,94,3938,-2657,1745187652493569091
642785,4100,2318,-4029,22,3583,-2612,1745187652493569091
642977,4126,2261,-4037,-24,3257,-2578,1745187652493569091
643169,4144,2219,-4029,-92,3034,-2747,1745187652493569091
643361,4173,2174,-4016,-155,2973,-2791,1745187652493569091
643553,4188,2122,-3998,-203,2910,-2907,1745187652493569091
643745,4191,2074,-3978,-188,2802,-3112,1745187652547470473
643937,4171,2039,-3959,-179,2531,-3235,1745187652547470473
644129,4106,2015,-3939,-85,2214,-3212,1745187652547470473
644321,4005,2008,-3917,-12,1756,-3205,1745187652547470473
644513,3876,2004,-3884,92,1180,-3318,1745187652547470473
644705,3722,1979,-3844,104,572,-3563,1745187652547470473
644897,3551,1899,-3797,15,66,-3919,1745187652547470473
645089,3369,1772,-3758,124,-357,-3304,1745187652547470473
645281,3178,1724,-3713,99,-697,-3371,1745187652547470473
645473,2986,1710,-3674,-61,-804,-3335,1745187652547470473
645665,2760,1683,-3632,-65,-834,-3284,1745187652547470473
645857,2496,1648,-3588,-128,-922,-3322,1745187652547470473
646049,2220,1628,-3540,-81,-895,-3493,1745187652621220581
646241,1949,1605,-3467,-198,-852,-3075,1745187652621220581
646433,1698,1585,-3350,-181,-936,-2758,1745187652621220581
646625,1484,1572,-3207,-211,-891,-2582,1745187652621220581
646817,1311,1571,-3068,-146,-882,-2573,1745187652621220581
647009,1169,1582,-2954,-170,-1031,-2700,1745187652621220581
647201,1026,1611,-2858,-118,-1282,-2877,1745187652621220581
647393,875,1643,-2775,-17,-1516,-3394,1745187652621220581
647585,717,1669,-2696,136,-1848,-3520,1745187652621220581
647777,550,1691,-2603,302,-2170,-3760,1745187652621220581
647969,344,1721,-2475,608,-1536,-4118,1745187652621220581
648161,-127,1792,-2192,838,-3107,-3783,1745187652621220581
648353,226,1850,-2248,561,-1844,-5369,1745187652664754558
648545,350,1820,-2336,968,-976,-4497,1745187652664754558
648737,472,1838,-2274,1070,-781,-4648,1745187652664754558
648929,586,1864,-2315,1259,-656,-4846,1745187652664754558
649121,709,1921,-2388,1381,-939,-5474,1745187652664754558
649313,815,1984,-2417,1590,-1497,-6017,1745187652664754558
649505,904,2040,-2391,1869,-2278,-6267,1745187652664754558
649697,1003,2147,-2365,2077,-3185,-6456,1745187652664754558
649889,1068,2312,-2356,2562,-2476,-6482,1745187652664754558
650081,1351,2378,-2399,1529,-5322,-7124,1745187652664754558
650273,1289,2208,-2111,2913,-4013,-9299,1745187652664754558
650465,744,1883,-2053,2921,-4067,-7420,1745187652664754558
650657,471,1793,-2000,3090,-3801,-6648,1745187652719751764
650849,408,1789,-1977,3142,-3271,-6793,1745187652719751764
651041,374,1770,-1966,3183,-2803,-6967,1745187652719751764
651233,422,1810,-1946,3253,-2161,-7439,1745187652719751764
651425,555,1843,-1866,3367,-1657,-7336,1745187652719751764
651617,724,1838,-1734,3704,-1508,-7866,1745187652719751764
651809,730,1789,-1622,4092,-1976,-9136,1745187652719751764
652001,625,1735,-1557,4541,-3356,-8738,1745187652719751764
652193,806,1669,-1529,5381,-4715,-9292,1745187652719751764
652385,928,1601,-1481,5604,-5842,-10495,1745187652719751764
652577,828,1528,-1413,5775,-6873,-10826,1745187652719751764
652769,684,1462,-1377,5522,-7583,-10787,1745187652719751764
652961,599,1383,-1386,5917,-7751,-10526,1745187652787446041
653153,405,1379,-1402,6869,-7224,-10978,1745187652787446041
653345,62,1326,-1400,6418,-6919,-9867,1745187652787446041
653537,-96,1266,-1396,6501,-6487,-9500,1745187652787446041
653729,-195,1184,-1385,6476,-6075,-9222,1745187652787446041
653921,-232,1107,-1340,6343,-5706,-9192,1745187652787446041
654113,-204,1040,-1262,6113,-5238,-8931,1745187652787446041
654305,-133,992,-1170,5933,-4825,-8634,1745187652787446041
654497,-53,942,-1090,5869,-4770,-8581,1745187652787446041
654689,34,898,-1013,5837,-5143,-8838,1745187652787446041
654881,119,863,-924,5897,-5769,-9184,1745187652787446041
655073,165,837,-847,6021,-6351,-9445,1745187652787446041
655265,155,817,-788,6180,-6793,-9678,1745187652857026448
655457,107,800,-746,6320,-7064,-9826,1745187652857026448
655649,43,783,-710,6402,-7143,-9870,1745187652857026448
655841,-23,761,-679,6427,-7158,-9856,1745187652857026448
656033,-84,733,-652,6420,-7088,-9840,1745187652857026448
656225,-138,707,-608,6366,-6898,-9701,1745187652857026448
656417,-187,686,-548,6291,-6630,-9483,1745187652857026448
656609,-235,671,-486,6190,-6313,-9244,1745187652857026448
656801,-279,668,-415,6077,-6044,-8838,1745187652857026448
656993,-319,665,-329,5985,-5904,-8496,1745187652857026448
657185,-367,669,-234,5938,-5803,-8215,1745187652857026448
657377,-428,667,-147,5822,-5648,-7962,1745187652857026448
657569,-493,666,-75,5686,-5464,-7725,1745187652895786979
657761,-553,674,-21,5562,-5329,-7555,1745187652895786979
657953,-609,698,15,5410,-5171,-7525,1745187652895786979
658145,-660,737,49,5294,-4984,-7519,1745187652895786979
658337,-692,779,85,5246,-4719,-7460,1745187652895786979
658529,-698,819,123,5222,-4535,-7351,1745187652895786979
658721,-686,858,155,5247,-4420,-7251,1745187652895786979
658913,-670,907,171,5335,-4393,-7271,1745187652895786979
659105,-660,948,171,5482,-4789,-8802,1745187652895786979
659297,-673,967,182,5861,-5350,-9508,1745187652895786979
659489,-688,990,206,6277,-4873,-8866,1745187652895786979
659681,-691,1012,195,6758,-4615,-8841,1745187652895786979
659873,-601,940,251,7423,-5861,-9220,1745187652956897358
660065,-424,784,543,8100,-8877,-10019,1745187652956897358
660257,-95,498,1185,9228,-12815,-12030,1745187652956897358
660449,-103,210,1804,10072,-15305,-14487,1745187652956897358
660641,-592,-93,2058,10338,-15783,-13433,1745187652956897358
660833,-1216,-256,1792,10019,-14455,-11827,1745187652956897358
661025,-1974,-328,1125,9036,-12221,-9709,1745187652956897358
661217,-2596,-371,474,7617,-9768,-7490,1745187652956897358
661409,-2924,-411,131,6344,-7573,-6077,1745187652956897358
661601,-2986,-474,72,5284,-5673,-5462,1745187652956897358
661793,-2908,-528,123,4553,-4105,-5167,1745187652956897358
661985,-2849,-529,87,3620,-2107,-5407,1745187652956897358
662177,-2940,-473,87,3368,-1491,-2987,1745187653013455539
662369,-2429,-324,45,3186,-206,-3265,1745187653013455539
662561,-2124,-85,29,3385,522,-3419,1745187653013455539
662753,-1880,25,57,3822,1014,-3081,1745187653013455539
662945,-1621,44,91,4176,1458,-4015,1745187653013455539
663137,-1407,6,110,4478,1507,-4779,1745187653013455539
663329,-1199,-19,103,4643,1299,-5241,1745187653013455539
663521,-960,-68,79,4674,865,-5475,1745187653013455539
663713,-678,-113,55,4601,418,-5869,1745187653013455539
663905,-405,-149,17,4406,-28,-6250,1745187653013455539
664097,-191,-190,-56,4103,-497,-6672,1745187653013455539
664289,-60,-214,-148,3732,-1035,-7064,1745187653013455539
664481,0,-218,-239,3321,-1513,-7398,1745187653071883860
664673,16,-209,-302,2939,-1844,-7691,1745187653071883860
664865,-7,-179,-321,2654,-2053,-7980,1745187653071883860
665057,-59,-137,-297,2477,-2048,-8216,1745187653071883860
665249,-132,-95,-252,2428,-1866,-8579,1745187653071883860
665441,-217,-62,-216,2430,-1546,-8835,1745187653071883860
665633,-317,-47,-200,2476,-1183,-9066,1745187653071883860
665825,-417,-43,-193,2507,-899,-9086,1745187653071883860
666017,-483,-40,-188,2518,-649,-8938,1745187653071883860
666209,-497,-46,-185,2487,-397,-8816,1745187653071883860
666401,-466,-58,-184,2462,-159,-8633,1745187653071883860
666593,-438,-76,-189,2355,-48,-8319,1745187653071883860
666785,-411,-91,-198,2224,-133,-8027,1745187653130898946
666977,-372,-111,-194,2004,-377,-7974,1745187653130898946
667169,-320,-131,-168,1735,-674,-8218,1745187653130898946
667361,-265,-146,-125,1452,-920,-8436,1745187653130898946
667553,-219,-140,-77,1201,-885,-8965,1745187653130898946
667745,-186,-113,-34,1115,-721,-9243,1745187653130898946
667937,-181,-71,2,1226,-595,-9199,1745187653130898946
668129,-176,-31,32,1485,-594,-8826,1745187653130898946
668321,-167,-4,67,1784,-618,-8572,1745187653130898946
668513,-178,11,89,2047,-583,-8455,1745187653130898946
668705,-207,13,87,2194,-549,-8326,1745187653130898946
668897,-233,9,79,2243,-527,-8116,1745187653130898946
669089,-244,6,83,2228,-535,-7979,1745187653188823937
669281,-244,8,96,2173,-465,-7569,1745187653188823937
669473,-211,24,109,2110,-197,-5850,1745187653188823937
669665,-146,33,119,1888,134,-6686,1745187653188823937
669857,-99,47,115,1877,215,-7598,1745187653188823937
670049,-110,93,98,2124,15,-8478,1745187653188823937
670241,-117,139,107,2659,-309,-8941,1745187653188823937
670433,-110,164,149,3333,-657,-8745,1745187653188823937
670625,-91,156,190,3866,-963,-8091,1745187653188823937
670817,-54,116,205,4057,-1093,-7619,1745187653188823937
671009,-32,71,185,3996,-1188,-7426,1745187653188823937
671201,-44,37,138,3797,-1367,-7430,1745187653188823937
671393,-84,54,5,5268,-5150,-7154,1745187653248273082
671585,432,117,-654,4395,-4652,-6022,1745187653248273082
671777,564,1,-900,2306,-538,-8617,1745187653248273082
671969,-190,-51,-435,2455,-784,-7899,1745187653248273082
672161,-351,-88,-112,2219,-930,-7186,1745187653248273082
672353,-177,-43,-55,2364,-499,-7252,1745187653248273082
672545,-10,2,-207,2626,-158,-7348,1745187653248273082
672737,67,61,-378,2896,-11,-7446,1745187653248273082
672929,64,55,-452,3208,-223,-7489,1745187653248273082
673121,78,19,-407,3104,-413,-7577,1745187653248273082
673313,57,-21,-284,3110,-555,-7444,1745187653248273082
673505,77,-68,-239,2982,-481,-7506,1745187653248273082
673697,68,-88,-242,2568,-361,-7651,1745187653305778286
673889,-9,-109,-180,2362,-214,-7526,1745187653305778286
674081,-5,-87,-164,2711,59,-7402,1745187653305778286
674273,-66,-121,-153,1763,73,-8067,1745187653305778286
674465,-236,-150,125,2113,-262,-7361,1745187653305778286
674657,-177,-184,228,1658,-246,-7588,1745187653305778286
674849,-164,-228,412,1150,-573,-6419,1745187653305778286
675041,145,-198,609,1337,-344,-8572,1745187653305778286
675233,-35,-106,698,2093,-286,-8290,1745187653305778286
675425,-96,-33,624,3868,-356,-7181,1745187653305778286
675617,69,-3,348,4869,-3179,-6996,1745187653305778286
675809,24,-108,264,5334,-1596,-7329,1745187653305778286
676001,-143,-243,95,4617,-1120,-7958,1745187653368772033
676193,-325,-385,-36,3745,-343,-7497,1745187653368772033
676385,-352,-385,-56,2705,23,-7339,1745187653368772033
676577,-226,-372,79,2529,1159,-8037,1745187653368772033
676769,-162,-405,43,2258,1389,-7766,1745187653368772033
676961,-49,-306,-59,1881,684,-7671,1745187653368772033
677153,121,-197,-92,1945,104,-7819,1745187653368772033
677345,224,-136,-71,2095,-325,-7842,1745187653368772033
677537,270,-124,-7,2122,-789,-7832,1745187653368772033
677729,207,-107,67,2025,-1305,-7774,1745187653368772033
677921,144,-94,130,2075,-1591,-7493,1745187653368772033
678113,110,-96,175,2189,-1373,-7529,1745187653368772033
678305,68,-93,204,2156,-1207,-7724,1745187653421350095
678497,17,-74,217,1983,-1234,-7914,1745187653421350095
678689,-34,-69,241,2090,-1261,-7832,1745187653421350095
678881,-59,-91,292,2025,-1198,-7727,1745187653421350095
679073,-52,-105,351,1872,-924,-7738,1745187653421350095
679265,-74,-124,408,2057,-552,-8138,1745187653421350095
679457,-236,-143,404,2660,-307,-8033,1745187653421350095
679649,-332,-154,321,3212,-233,-7624,1745187653421350095
679841,-258,-188,216,3209,-567,-6750,1745187653421350095
680033,-110,-226,155,2962,-696,-7674,1745187653421350095
680225,-131,-271,141,2684,-666,-7975,1745187653421350095
680417,-162,-293,123,2486,-485,-8378,1745187653421350095
680609,-161,-292,82,2150,-552,-7914,1745187653481484701
680801,-83,-218,111,1770,-560,-8209,1745187653481484701
680993,-23,-168,150,1497,-574,-8267,1745187653481484701
681185,-31,-131,138,1019,-217,-8299,1745187653481484701
681377,-55,-105,46,1835,-614,-7777,1745187653481484701
681569,-11,-45,-18,2525,-1364,-7467,1745187653481484701
681761,43,-41,-40,2964,-1658,-7518,1745187653481484701
681953,31,-81,-74,3157,-1543,-7571,1745187653481484701
682145,-3,-138,-136,3071,-1453,-7795,1745187653481484701
682337,27,-178,-177,2864,-1510,-7620,1745187653481484701
682529,86,-204,-194,2489,-1607,-7732,1745187653481484701
682721,165,-208,-209,2111,-1604,-7684,1745187653481484701
682913,240,-192,-231,1708,-1509,-7573,1745187653543417729
683105,437,-248,-235,1375,-1753,-6830,1745187653543417729
683297,907,-453,-215,2355,-979,-8238,1745187653543417729
683489,416,-194,-125,1459,-1334,-7752,1745187653543417729
683681,301,-104,-52,1513,-1752,-7535,1745187653543417729
683873,269,-72,-34,1512,-1696,-7579,1745187653543417729
684065,225,26,-49,1949,-1523,-7563,1745187653543417729
684257,180,143,-79,1862,-1386,-8637,1745187653543417729
684449,113,53,-97,2269,-1453,-7737,1745187653543417729
684641,107,-19,-87,2725,-901,-7622,1745187653543417729
684833,83,-62,-107,2723,-723,-7433,1745187653543417729
685025,79,-88,-157,2546,-980,-7404,1745187653543417729
685217,60,-104,-206,2383,-1295,-7488,1745187653601013037
685409,42,-147,-201,2466,-1151,-7615,1745187653601013037
685601,6,-195,-181,2429,-606,-7390,1745187653601013037
685793,38,-172,-175,2412,38,-7705,1745187653601013037
685985,42,-241,-185,2437,-165,-7674,1745187653601013037
686177,63,-328,-202,2738,-348,-6548,1745187653601013037
686369,129,-356,-194,2700,-710,-3965,1745187653601013037
686561,209,-415,-185,2099,-1237,-6618,1745187653601013037
686753,218,-419,-236,1992,-1607,-9758,1745187653601013037
686945,69,-383,-336,1974,-1921,-10189,1745187653601013037
687137,-25,-346,-326,2456,-1598,-8808,1745187653601013037
687329,-40,-423,-247,2714,-565,-7831,1745187653601013037
687521,-26,-449,-172,1916,-753,-7674,1745187653662906586
687713,-76,-444,-117,956,-936,-7883,1745187653662906586
687905,-177,-366,-100,311,-1159,-7970,1745187653662906586
688097,-240,-293,-52,753,-725,-7927,1745187653662906586
688289,-262,-221,-16,1114,-709,-7716,1745187653662906586
688481,-240,-153,27,1479,-475,-7616,1745187653662906586
688673,-213,-113,47,1814,-215,-7699,1745187653662906586
688865,-206,-121,47,2080,-199,-7904,1745187653662906586
689057,-220,-114,32,2091,-633,-8183,1745187653662906586
689249,-263,-128,-2,1866,-1191,-8094,1745187653662906586
689441,-312,-106,-11,1811,-1533,-8213,1745187653662906586
689633,-387,-126,-28,1327,-1459,-7815,1745187653662906586
691937,-485,188,-196,2521,-1215,-7725,1745187658743542726
887969,-31,177,14,1496,1269,-7532,1745187658743542726
888161,-69,203,71,1614,531,-8047,1745187658743542726
888353,-15,145,110,2286,1425,-7896,1745187658743542726
888545,7,130,178,2710,1711,-8033,1745187658743542726
888737,8,106,177,2935,1285,-8046,1745187658743542726
888929,9,56,115,2994,965,-7979,1745187658743542726
889121,-12,41,55,2719,980,-7954,1745187658743542726
889313,-24,12,16,2414,1016,-7930,1745187658743542726
889505,-62,-8,6,2136,1044,-7909,1745187658743542726
889697,-97,-4,11,1841,1086,-7896,1745187658743542726
889889,-106,11,22,1666,1096,-7960,1745187658743542726
890081,-113,45,30,1627,1206,-7994,1745187658805166174
890273,-115,82,33,1764,1313,-8006,1745187658805166174
890465,-103,108,40,1875,1398,-8070,1745187658805166174
890657,-92,134,49,2042,1413,-8087,1745187658805166174
890849,-79,147,58,2222,1359,-8028,1745187658805166174
891041,-70,137,70,2476,1312,-7946,1745187658805166174
891233,-57,123,75,2551,1481,-7894,1745187658805166174
891425,-41,109,61,2512,1632,-7886,1745187658805166174
891617,-18,101,36,2463,1686,-7886,1745187658805166174
891809,4,92,18,2412,1702,-7845,1745187658805166174
892001,30,80,11,2374,1772,-7757,1745187658805166174
892193,60,65,9,2431,1922,-7668,1745187658805166174
892385,100,42,8,2584,2129,-7640,1745187658874134658
892577,131,-2,12,3048,2062,-7281,1745187658874134658
892769,81,-73,20,2799,2139,-8310,1745187658874134658
892961,219,-46,32,2952,2511,-9014,1745187658874134658
893153,-192,-204,52,1596,1811,-10613,1745187658874134658
893345,-460,-901,228,1371,882,-11173,1745187658874134658
893537,-723,-1553,365,1341,1712,-9028,1745187658874134658
893729,-5,-1818,-51,1200,490,2758,1745187658874134658
893921,456,290,-6,-1780,991,-3574,1745187658874134658
894113,433,1166,161,-42,693,-7134,1745187658874134658
894305,555,1235,59,1853,-1732,-7215,1745187658874134658
894497,699,1012,-31,969,1580,-11950,1745187658874134658
894689,135,317,184,5730,-114,-7045,1745187658916791665
894881,78,214,154,4846,296,-7419,1745187658916791665
895073,52,140,35,4190,874,-7522,1745187658916791665
895265,42,119,-78,3332,1043,-7344,1745187658916791665
895457,42,71,-138,2352,1493,-8350,1745187658916791665
895649,-22,-41,-139,1695,1391,-7878,1745187658916791665
895841,-36,-69,-88,1337,1488,-7720,1745187658916791665
896033,-22,-38,-41,1321,1499,-7715,1745187658916791665
896225,-5,9,-4,1591,1436,-7724,1745187658916791665
896417,7,29,14,2051,1407,-7689,1745187658916791665
896609,4,28,16,2397,1392,-7699,1745187658916791665
896801,-7,14,16,2621,1388,-7669,1745187658916791665
896993,-17,-18,8,2632,1359,-7620,1745187658983271005
897185,-18,-42,-2,2413,1293,-7656,1745187658983271005
897377,-11,-53,-9,2155,1204,-7698,1745187658983271005
897569,-8,-57,-13,1948,1139,-7730,1745187658983271005
897761,-11,-44,-12,1820,1066,-7785,1745187658983271005
897953,-17,-31,-7,1851,1052,-7847,1745187658983271005
898145,-28,-17,-2,1940,1114,-7898,1745187658983271005
898337,-39,-6,4,2053,1215,-7888,1745187658983271005
898529,-44,-4,7,2162,1305,-7854,1745187658983271005
898721,-46,-4,8,2212,1420,-7831,1745187658983271005
898913,-40,-5,9,2199,1525,-7764,1745187658983271005
899105,-32,-6,9,2192,1575,-7687,1745187658983271005
899297,-20,-2,13,2145,1531,-7688,1745187659035937243
899489,-5,-3,17,2109,1430,-7730,1745187659035937243
899681,7,0,19,2115,1350,-7751,1745187659035937243
899873,15,7,21,2146,1267,-7779,1745187659035937243
900065,18,9,22,2208,1201,-7752,1745187659035937243
900257,18,9,22,2236,1109,-7698,1745187659035937243
900449,18,5,20,2242,1043,-7677,1745187659035937243
900641,15,1,16,2217,1017,-7699,1745187659035937243
900833,7,-2,10,2191,1051,-7727,1745187659035937243
901025,0,-4,4,2177,1138,-7704,1745187659035937243
901217,-6,-3,-1,2146,1212,-7682,1745187659035937243
901409,-6,-3,-2,2134,1220,-7626,1745187659035937243
901601,-3,-5,-1,2134,1203,-7617,1745187659102268668
901793,-2,-5,2,2139,1132,-7632,1745187659102268668
901985,-6,-5,4,2151,1102,-7691,1745187659102268668
902177,-12,-5,6,2152,1080,-7750,1745187659102268668
902369,-18,-4,5,2143,1134,-7816,1745187659102268668
902561,-22,-3,3,2160,1221,-7848,1745187659102268668
902753,-27,-3,2,2151,1304,-7820,1745187659102268668
902945,-28,-4,0,2128,1391,-7781,1745187659102268668
903137,-28,-4,0,2118,1413,-7749,1745187659102268668
903329,-27,-3,1,2086,1455,-7740,1745187659102268668
903521,-24,-1,3,2097,1474,-7738,1745187659102268668
903713,-19,3,4,2124,1471,-7691,1745187659102268668
903905,-11,8,7,2170,1407,-7603,1745187659167983641
904097,-1,8,13,2200,1239,-7613,1745187659167983641
904289,6,5,17,2202,1148,-7688,1745187659167983641
904481,6,3,19,2196,1062,-7727,1745187659167983641
904673,0,2,16,2206,1033,-7731,1745187659167983641
904865,-9,2,11,2218,1029,-7698,1745187659167983641
905057,-24,1,10,2197,1026,-7688,1745187659167983641
905249,-35,1,10,2187,1041,-7720,1745187659167983641
905441,-40,0,10,2184,1124,-7744,1745187659167983641
905633,-38,-2,6,2179,1241,-7787,1745187659167983641
905825,-34,0,0,2141,1361,-7806,1745187659167983641
906017,-32,3,-3,2107,1433,-7787,1745187659167983641
906209,-28,8,-2,2127,1466,-7761,1745187659246466309
906401,-22,12,4,2170,1473,-7741,1745187659246466309
906593,-13,14,11,2207,1466,-7760,1745187659246466309
906785,0,13,11,2217,1417,-7783,1745187659246466309
906977,12,13,7,2203,1336,-7738,1745187659246466309
907169,17,13,2,2195,1227,-7675,1745187659246466309
907361,16,10,-3,2139,1103,-7639,1745187659246466309
907553,12,10,-4,2114,1044,-7696,1745187659246466309
907745,8,9,-4,2075,1047,-7768,1745187659246466309
907937,7,9,-7,2081,1065,-7826,1745187659246466309
908129,4,12,-11,2078,1089,-7863,1745187659246466309
908321,-6,16,-14,2105,1127,-7851,1745187659246466309
908513,-19,18,-15,2119,1113,-7810,1745187659380381023
908705,-28,16,-15,2129,1133,-7801,1745187659380381023
908897,-35,16,-15,2108,1220,-7800,1745187659380381023
909089,-42,18,-17,2087,1310,-7832,1745187659380381023
909281,-40,20,-17,2116,1404,-7810,1745187659380381023
909473,-35,23,-17,2151,1404,-7813,1745187659380381023
909665,-37,23,-19,2202,1296,-7784,1745187659380381023
909857,-41,14,-19,2188,1054,-7738,1745187659380381023
910049,-43,1,-16,2127,858,-7776,1745187659380381023
910241,-47,-12,-15,2024,804,-7882,1745187659380381023
910433,-64,-19,-19,1950,879,-7922,1745187659380381023
910625,-82,-20,-27,1921,1048,-7857,1745187659380381023
910817,-91,-15,-31,1969,1258,-7751,1745187659449646901
911009,-95,-7,-31,2104,1455,-7663,1745187659449646901
911201,-93,2,-25,2267,1603,-7597,1745187659449646901
911393,-85,8,-14,2481,1701,-7612,1745187659449646901
911585,-80,7,1,2695,1691,-7581,1745187659449646901
911777,-74,1,19,2863,1558,-7535,1745187659449646901
911969,-50,-22,31,2908,1346,-7514,1745187659449646901
912161,-18,-56,24,2750,1152,-7602,1745187659449646901
912353,-2,-81,6,2501,971,-7695,1745187659449646901
912545,-3,-94,-13,2275,878,-7799,1745187659449646901
912737,-23,-96,-32,2112,890,-7834,1745187659449646901
912929,-49,-88,-42,2098,970,-7836,1745187659449646901
913121,-69,-77,-47,2202,1070,-7797,1745187659453483481
913313,-76,-69,-47,2339,1126,-7802,1745187659453483481
913505,-72,-68,-46,2476,1127,-7891,1745187659453483481
913697,-65,-73,-45,2526,1043,-7962,1745187659453483481
913889,-58,-79,-48,2517,941,-8027,1745187659453483481
914081,-57,-81,-55,2478,836,-8143,1745187659453483481
914273,-61,-77,-65,2447,787,-8220,1745187659453483481
914465,-67,-66,-75,2425,788,-8306,1745187659453483481
914657,-81,-48,-83,2476,766,-8346,1745187659453483481
914849,-96,-24,-86,2579,700,-8391,1745187659453483481
915041,-105,0,-85,2731,606,-8429,1745187659453483481
915233,-117,19,-84,2907,496,-8613,1745187659453483481
915425,-132,36,-86,3129,231,-9118,1745187659457455736
915617,-177,58,-92,3515,-98,-9326,1745187659457455736
915809,-262,80,-100,3626,-233,-9514,1745187659457455736
916001,-293,153,-93,3473,-336,-10518,1745187659457455736
916193,-291,182,-36,3549,199,-10451,1745187659457455736
916385,-348,210,28,3570,996,-10186,1745187659457455736
916577,-358,264,19,3828,677,-10371,1745187659457455736
916769,-307,252,-11,4127,-106,-10208,1745187659457455736
916961,-260,238,-11,4521,-904,-10430,1745187659457455736
917153,-324,201,-26,4790,-1520,-10547,1745187659457455736
917345,-442,231,-84,4998,-1997,-10071,1745187659457455736
917537,-556,420,-193,5961,-1285,-10740,1745187659457455736
917729,-690,527,-423,4853,-1772,-11872,1745187659510002339
917921,-996,323,-352,5625,-931,-11254,1745187659510002339
918113,-1137,186,-443,5704,-451,-10499,1745187659510002339
918305,-1162,219,-502,5786,116,-10523,1745187659510002339
918497,-1149,215,-530,5865,722,-10386,1745187659510002339
918689,-1135,227,-555,6009,1183,-10434,1745187659510002339
918881,-1118,237,-590,6141,1477,-10319,1745187659510002339
919073,-1085,237,-624,6283,1595,-10260,1745187659510002339
919265,-1043,240,-650,6429,1614,-10075,1745187659510002339
919457,-1001,234,-666,6604,1500,-9754,1745187659510002339
919649,-982,210,-679,6827,1162,-9742,1745187659510002339
919841,-994,170,-686,7165,755,-9729,1745187659510002339
920033,-1059,101,-670,7526,287,-9771,1745187659563129354
920225,-1185,25,-635,7849,-51,-9810,1745187659563129354
920417,-1356,-47,-600,8126,-245,-9718,1745187659563129354
920609,-1563,-133,-601,8266,-396,-9524,1745187659563129354
920801,-1800,-234,-642,8339,-650,-9502,1745187659563129354
920993,-2043,-344,-715,8246,-773,-9611,1745187659563129354
921185,-2240,-417,-804,7885,-381,-9425,1745187659563129354
921377,-2353,-441,-886,7430,619,-9286,1745187659563129354
