timestamp,gyr_x,gyr_y,gyr_z,acc_x,acc_y,acc_z,pkt_time_ns
103648,-120,-273,-10,2461,690,-7437,1745152120531412568
103840,-233,-142,-28,2623,483,-8115,1745152120531412568
104032,-199,-91,-54,2621,832,-7722,1745152120531412568
104224,-213,-63,-87,2633,1075,-7672,1745152120531412568
104416,-168,-37,-126,2754,1321,-7503,1745152120531412568
104608,-90,-60,-136,3052,1492,-7448,1745152120531412568
104800,-31,-118,-113,3359,1606,-7397,1745152120531412568
104992,41,-175,-80,3516,1619,-7394,1745152120531412568
105184,95,-249,-63,3489,1431,-7510,1745152120531412568
105376,118,-316,-62,3531,1016,-7699,1745152120531412568
105568,117,-393,-69,3608,536,-7788,1745152120531412568
105760,84,-471,-76,3543,88,-7832,1745152120531412568
105952,39,-517,-86,3281,-188,-7893,1745152120588650743
106144,-15,-546,-94,2914,-317,-7872,1745152120588650743
106336,-66,-553,-94,2570,-146,-7874,1745152120588650743
106528,-108,-549,-86,2325,46,-7857,1745152120588650743
106720,-159,-513,-71,2173,393,-7784,1745152120588650743
106912,-194,-455,-64,2181,746,-7560,1745152120588650743
107104,-201,-387,-76,2212,1153,-7584,1745152120588650743
107296,-194,-321,-87,2114,1300,-7767,1745152120588650743
107488,-182,-253,-93,1985,1219,-7842,1745152120588650743
107680,-160,-182,-88,1832,1189,-7886,1745152120588650743
107872,-125,-96,-80,1784,1226,-7900,1745152120588650743
108064,-74,-5,-78,1765,1274,-7941,1745152120588650743
108256,-21,72,-77,1751,1288,-7963,1745152120639768245
108448,29,159,-75,1758,1309,-8037,1745152120639768245
108640,76,242,-67,1720,1308,-7991,1745152120639768245
108832,119,317,-45,1693,1312,-7782,1745152120639768245
109024,101,366,-25,2180,502,-8804,1745152120639768245
109216,-67,430,-9,2218,2128,-6447,1745152120639768245
109408,176,479,36,1684,1552,-7407,1745152120639768245
109600,97,584,47,1192,1118,-7660,1745152120639768245
109792,60,791,56,-47,235,-6271,1745152120639768245
109984,238,978,80,-1084,433,-6349,1745152120639768245
110176,329,1215,145,-689,1124,-6849,1745152120639768245
110368,311,1303,218,1233,263,-6932,1745152120639768245
110560,247,1322,265,2930,-391,-7329,1745152120705083169
110752,129,1278,277,4325,-831,-7434,1745152120705083169
110944,35,1138,247,5489,-843,-7435,1745152120705083169
111136,-24,952,188,6308,-532,-7546,1745152120705083169
111328,-68,706,109,6722,1,-7716,1745152120705083169
111520,-119,440,36,6708,575,-7764,1745152120705083169
111712,-166,193,-16,6381,981,-7771,1745152120705083169
111904,-180,-22,-47,5809,1189,-7659,1745152120705083169
112096,-162,-197,-55,5095,1136,-7600,1745152120705083169
112288,-136,-327,-50,4347,1021,-7511,1745152120705083169
112480,-114,-396,-48,3580,823,-7393,1745152120705083169
112672,-107,-409,-42,2940,625,-7275,1745152120705083169
112864,-109,-380,-27,2465,463,-7214,1745152120762210460
113056,-111,-323,-2,2177,369,-7226,1745152120762210460
113248,-114,-255,26,2074,340,-7264,1745152120762210460
113440,-125,-180,53,2110,374,-7297,1745152120762210460
113632,-143,-102,71,2293,380,-7339,1745152120762210460
113824,-174,-42,74,2563,402,-7400,1745152120762210460
114016,-207,-4,68,2864,398,-7469,1745152120762210460
114208,-229,8,62,3152,465,-7554,1745152120762210460
114400,-241,4,63,3392,549,-7646,1745152120762210460
114592,-252,-13,67,3529,679,-7608,1745152120762210460
114784,-249,-41,63,3578,840,-7509,1745152120762210460
114976,-232,-73,50,3534,993,-7474,1745152120762210460
115168,-213,-102,38,3413,1075,-7551,1745152120822371577
115360,-202,-124,34,3306,1082,-7668,1745152120822371577
115552,-197,-142,43,3158,1052,-7614,1745152120822371577
115744,-187,-146,57,3022,1012,-7439,1745152120822371577
115936,-165,-148,66,2866,976,-7348,1745152120822371577
116128,-142,-147,69,2688,974,-7456,1745152120822371577
116320,-132,-139,72,2581,971,-7693,1745152120822371577
116512,-134,-126,77,2531,966,-7812,1745152120822371577
116704,-134,-105,80,2575,910,-7693,1745152120822371577
116896,-130,-75,79,2646,840,-7577,1745152120822371577
117088,-127,-52,68,2698,813,-7593,1745152120822371577
117280,-125,-43,49,2691,782,-7639,1745152120822371577
117472,-119,-38,39,2714,766,-7717,1745152120894564667
117664,-118,-30,42,2744,705,-7790,1745152120894564667
117856,-124,-24,46,2762,650,-7664,1745152120894564667
118048,-126,-19,39,2789,604,-7518,1745152120894564667
118240,-120,-16,18,2792,660,-7556,1745152120894564667
118432,-114,-16,-12,2774,691,-7721,1745152120894564667
118624,-111,-20,-37,2774,728,-7805,1745152120894564667
118816,-104,-25,-50,2765,758,-7707,1745152120894564667
119008,-93,-25,-55,2759,774,-7499,1745152120894564667
119200,-88,-18,-54,2720,789,-7477,1745152120894564667
119392,-93,-11,-55,2655,779,-7646,1745152120894564667
119584,-96,-9,-53,2595,741,-7733,1745152120894564667
119776,-97,1,-49,2594,721,-7744,1745152120937142039
119968,-100,23,-47,2619,728,-7729,1745152120937142039
120160,-106,42,-48,2681,706,-7661,1745152120937142039
120352,-118,55,-48,2726,701,-7662,1745152120937142039
120544,-134,62,-43,2778,687,-7661,1745152120937142039
120736,-152,71,-38,2856,697,-7642,1745152120937142039
120928,-171,79,-37,2962,742,-7577,1745152120937142039
121120,-186,85,-44,3043,776,-7523,1745152120937142039
121312,-196,85,-56,3147,857,-7485,1745152120937142039
121504,-201,78,-69,3213,891,-7422,1745152120937142039
121696,-201,67,-78,3266,916,-7455,1745152120937142039
121888,-198,52,-85,3332,915,-7493,1745152120937142039
122080,-192,40,-103,3419,914,-7517,1745152120997072689
122272,-178,31,-135,3525,844,-7600,1745152120997072689
122464,-167,22,-177,3637,797,-7644,1745152120997072689
122656,-166,11,-214,3730,698,-7534,1745152120997072689
122848,-179,-5,-235,3780,639,-7642,1745152120997072689
123040,-199,-32,-248,3774,615,-7701,1745152120997072689
123232,-207,-48,-269,3804,643,-7821,1745152120997072689
123424,-229,-53,-294,3783,557,-8050,1745152120997072689
123616,-258,-85,-305,3741,389,-8218,1745152120997072689
123808,-283,-102,-305,3763,185,-8331,1745152120997072689
124000,-323,-104,-302,3800,10,-8466,1745152120997072689
124192,-384,-110,-298,3850,-48,-8536,1745152120997072689
124384,-441,-112,-304,3919,-34,-8513,1745152121056342096
124576,-483,-113,-317,3932,-18,-8340,1745152121056342096
124768,-503,-126,-315,3977,-37,-8177,1745152121056342096
124960,-516,-138,-295,4019,-99,-8043,1745152121056342096
125152,-538,-127,-291,4122,-142,-8060,1745152121056342096
125344,-595,-106,-321,4265,-240,-8258,1745152121056342096
125536,-663,-71,-380,4375,-254,-8297,1745152121056342096
125728,-706,-21,-437,4492,-415,-7942,1745152121056342096
125920,-752,-9,-458,4558,-669,-7926,1745152121056342096
126112,-803,-40,-441,4580,-821,-7920,1745152121056342096
126304,-887,-87,-379,4593,-853,-7939,1745152121056342096
126496,-1000,-150,-296,4634,-639,-7996,1745152121056342096
126688,-1102,-184,-271,4618,-219,-7953,1745152121112328928
126880,-1155,-164,-295,4600,299,-8013,1745152121112328928
127072,-1170,-118,-360,4715,622,-7996,1745152121112328928
127264,-1137,-11,-492,5334,724,-7762,1745152121112328928
127456,-915,-118,-695,5809,584,-7701,1745152121112328928
127648,-857,-261,-783,5773,275,-8316,1745152121112328928
127840,-1160,-214,-692,6144,-290,-8363,1745152121112328928
128032,-1393,-265,-549,6330,-558,-8480,1745152121112328928
128224,-1524,-406,-369,6334,-612,-8761,1745152121112328928
128416,-1480,-703,-264,6135,-671,-9326,1745152121112328928
128608,-1474,-978,-298,5572,-973,-9622,1745152121112328928
128800,-1568,-1067,-429,4705,-1682,-9153,1745152121112328928
128992,-1734,-1057,-565,3545,-2699,-8614,1745152121174270029
129184,-1972,-1048,-679,2601,-3032,-7958,1745152121174270029
129376,-2321,-940,-705,2604,-1065,-8349,1745152121174270029
129568,-2778,-554,-414,5908,6148,-9135,1745152121174270029
129760,-2976,-271,173,9888,8148,-9848,1745152121174270029
129952,-2525,-858,501,9977,6657,-6172,1745152121174270029
130144,-1629,-1702,456,9907,3532,-8569,1745152121174270029
130336,-989,-2145,79,8370,2453,-10155,1745152121174270029
130528,-666,-2341,-50,6455,1710,-10195,1745152121174270029
130720,-604,-2347,38,4583,1352,-9616,1745152121174270029
130912,-650,-2259,302,3142,1483,-9123,1745152121174270029
131104,-676,-2113,657,2313,1701,-8376,1745152121174270029
131296,-599,-2005,985,2099,1940,-7925,1745152121229176767
131488,-437,-1962,1244,2365,1933,-7627,1745152121229176767
131680,-266,-1956,1396,2901,1785,-7766,1745152121229176767
131872,-100,-1969,1484,3616,1624,-7735,1745152121229176767
132064,29,-2009,1556,4208,1348,-7804,1745152121229176767
132256,131,-2083,1632,4604,1030,-7768,1745152121229176767
132448,224,-2175,1722,4645,469,-7702,1745152121229176767
132640,308,-2272,1802,4706,279,-7585,1745152121229176767
132832,415,-2381,1901,4388,-108,-7390,1745152121229176767
133024,488,-2458,1963,4119,-408,-7277,1745152121229176767
133216,524,-2509,1988,3650,-717,-7221,1745152121229176767
133408,510,-2519,1992,3144,-972,-7193,1745152121229176767
133600,432,-2497,1995,2729,-1197,-7240,1745152121303940771
133792,290,-2441,2011,2331,-1453,-7150,1745152121303940771
133984,110,-2383,2064,1952,-1539,-6844,1745152121303940771
134176,-63,-2343,2169,1781,-1819,-6865,1745152121303940771
134368,-234,-2240,2240,1688,-1692,-6848,1745152121303940771
134560,-415,-2107,2299,1488,-1347,-6545,1745152121303940771
134752,-556,-2003,2373,1408,-932,-6549,1745152121303940771
134944,-663,-1902,2440,1363,-387,-6578,1745152121303940771
135136,-724,-1811,2504,1353,247,-6524,1745152121303940771
135328,-729,-1732,2563,1444,809,-6372,1745152121303940771
135520,-684,-1665,2627,1637,1239,-6177,1745152121303940771
135712,-598,-1614,2692,1826,1635,-6057,1745152121303940771
135904,-483,-1573,2746,1960,1777,-5938,1745152121348056150
136096,-359,-1545,2792,2073,1876,-5853,1745152121348056150
136288,-236,-1527,2831,2104,1913,-5805,1745152121348056150
136480,-115,-1512,2861,2051,1913,-5649,1745152121348056150
136672,0,-1493,2893,1927,2099,-5479,1745152121348056150
136864,155,-1474,2962,1765,2475,-5147,1745152121348056150
137056,329,-1458,3030,1531,2310,-5155,1745152121348056150
137248,463,-1413,3067,1199,2180,-5120,1745152121348056150
137440,591,-1334,3098,809,2485,-4994,1745152121348056150
137632,741,-1232,3139,558,2302,-5047,1745152121348056150
137824,867,-1128,3172,408,2278,-5072,1745152121348056150
138016,975,-1018,3198,324,2063,-5195,1745152121348056150
138208,1071,-895,3228,304,2052,-5280,1745152121407923676
138400,1159,-760,3270,409,2131,-5457,1745152121407923676
138592,1216,-621,3314,623,2253,-5690,1745152121407923676
138784,1246,-487,3353,931,2445,-5821,1745152121407923676
138976,1264,-367,3382,1312,2543,-5831,1745152121407923676
139168,1277,-259,3409,1683,2711,-5866,1745152121407923676
139360,1299,-165,3432,2011,2897,-5912,1745152121407923676
139552,1325,-88,3449,2260,3094,-5894,1745152121407923676
139744,1347,-19,3462,2455,3281,-5846,1745152121407923676
139936,1382,46,3473,2563,3386,-5881,1745152121407923676
140128,1434,101,3474,2621,3437,-5878,1745152121407923676
140320,1492,154,3472,2609,3363,-5922,1745152121407923676
140512,1542,207,3465,2578,3125,-6015,1745152121462941611
140704,1580,261,3459,2543,2836,-6084,1745152121462941611
140896,1598,310,3455,2553,2475,-6123,1745152121462941611
141088,1593,354,3449,2622,2139,-6080,1745152121462941611
141280,1572,398,3440,2671,1825,-6003,1745152121462941611
141472,1527,449,3422,2707,1616,-6047,1745152121462941611
141664,1447,501,3387,2750,1417,-6082,1745152121462941611
141856,1346,558,3339,2792,1300,-6122,1745152121462941611
142048,1240,620,3293,2856,1199,-6171,1745152121462941611
142240,1130,674,3250,2991,1061,-6258,1745152121462941611
142432,1004,715,3213,3214,971,-6385,1745152121462941611
142624,861,749,3187,3453,885,-6492,1745152121462941611
142816,707,784,3173,3716,939,-6605,1745152121547614327
143008,551,815,3162,3980,1114,-6716,1745152121547614327
143200,408,842,3148,4222,1372,-6740,1745152121547614327
143392,286,865,3134,4408,1722,-6800,1745152121547614327
143584,192,882,3119,4574,2099,-6872,1745152121547614327
143776,129,893,3109,4736,2412,-6989,1745152121547614327
143968,94,896,3099,4902,2634,-7086,1745152121547614327
144160,87,900,3082,5045,2727,-7138,1745152121547614327
144352,101,905,3057,5178,2749,-7230,1745152121547614327
144544,121,906,3022,5298,2680,-7438,1745152121547614327
144736,131,897,2986,5403,2509,-7601,1745152121547614327
144928,126,881,2955,5479,2354,-7729,1745152121547614327
145120,110,862,2932,5535,2287,-7704,1745152121576947496
145312,86,840,2908,5539,2347,-7715,1745152121576947496
145504,57,818,2879,5521,2476,-7665,1745152121576947496
145696,29,796,2842,5498,2625,-7551,1745152121576947496
145888,6,774,2799,5492,2764,-7572,1745152121576947496
146080,-18,754,2754,5502,2847,-7603,1745152121576947496
146272,-46,737,2699,5495,2870,-7642,1745152121576947496
146464,-78,715,2642,5456,2850,-7617,1745152121576947496
146656,-113,690,2596,5425,2819,-7593,1745152121576947496
146848,-150,664,2551,5378,2809,-7646,1745152121576947496
147040,-192,639,2501,5344,2826,-7688,1745152121576947496
147232,-237,613,2444,5285,2848,-7784,1745152121576947496
147424,-281,592,2379,5245,2869,-7886,1745152121641423261
147616,-322,574,2311,5193,2927,-7906,1745152121641423261
147808,-358,558,2245,5146,2972,-7935,1745152121641423261
148000,-384,539,2175,5066,2988,-8000,1745152121641423261
148192,-399,515,2103,5019,2971,-7939,1745152121641423261
148384,-411,482,2026,4964,2819,-7958,1745152121641423261
148576,-424,450,1948,4876,2681,-7900,1745152121641423261
148768,-436,413,1877,4748,2569,-7791,1745152121641423261
148960,-445,377,1816,4610,2459,-7607,1745152121641423261
149152,-449,337,1753,4503,2371,-7442,1745152121641423261
149344,-458,299,1686,4364,2183,-7241,1745152121641423261
149536,-472,269,1619,4206,2036,-7088,1745152121641423261
149728,-488,246,1555,4036,1920,-7020,1745152121712302770
149920,-505,227,1499,3842,1927,-6969,1745152121712302770
150112,-518,210,1446,3648,1986,-6915,1745152121712302770
150304,-519,200,1393,3431,2181,-6960,1745152121712302770
150496,-510,206,1343,3279,2438,-7073,1745152121712302770
150688,-491,224,1294,3178,2693,-7256,1745152121712302770
150880,-460,249,1249,3146,2818,-7468,1745152121712302770
151072,-421,270,1212,3230,2819,-7655,1745152121712302770
151264,-382,284,1186,3335,2695,-7805,1745152121712302770
151456,-341,293,1168,3478,2510,-7962,1745152121712302770
151648,-306,295,1152,3605,2339,-8057,1745152121712302770
151840,-283,296,1131,3715,2200,-8081,1745152121712302770
152032,-263,292,1105,3761,2092,-8086,1745152121759104218
152224,-245,283,1074,3772,1942,-8105,1745152121759104218
152416,-230,273,1045,3718,1835,-8071,1745152121759104218
152608,-217,266,1024,3673,1691,-8011,1745152121759104218
152800,-208,256,1007,3628,1513,-7963,1745152121759104218
152992,-200,243,990,3578,1410,-8041,1745152121759104218
153184,-229,244,971,3487,1316,-7973,1745152121759104218
153376,-256,249,954,3429,1325,-7995,1745152121759104218
153568,-294,258,934,3386,1383,-7936,1745152121759104218
153760,-322,259,910,3388,1422,-7846,1745152121759104218
153952,-339,258,884,3382,1429,-7794,1745152121759104218
154144,-343,252,860,3415,1369,-7809,1745152121759104218
154336,-340,244,836,3457,1347,-7809,1745152121813503721
154528,-336,228,813,3461,1328,-7793,1745152121813503721
154720,-332,211,794,3455,1368,-7765,1745152121813503721
154912,-321,192,773,3448,1442,-7723,1745152121813503721
155104,-303,172,746,3442,1606,-7726,1745152121813503721
155296,-276,156,713,3442,1690,-7747,1745152121813503721
155488,-241,147,669,3406,1738,-7782,1745152121813503721
155680,-206,141,624,3342,1691,-7849,1745152121813503721
155872,-175,136,591,3282,1606,-7908,1745152121813503721
156064,-155,135,572,3227,1550,-7975,1745152121813503721
156256,-143,132,561,3235,1503,-8002,1745152121813503721
156448,-141,127,547,3257,1462,-7985,1745152121813503721
156640,-144,125,523,3264,1449,-7968,1745152121871475222
156832,-149,121,492,3320,1432,-7935,1745152121871475222
157024,-153,114,467,3371,1405,-7851,1745152121871475222
157216,-147,109,450,3366,1356,-7737,1745152121871475222
157408,-125,99,438,3343,1327,-7618,1745152121871475222
157600,-99,90,425,3301,1336,-7573,1745152121871475222
157792,-79,83,409,3254,1350,-7535,1745152121871475222
157984,-56,82,392,3168,1334,-7544,1745152121871475222
158176,-24,85,375,3109,1346,-7576,1745152121871475222
158368,9,90,357,3081,1402,-7660,1745152121871475222
158560,41,95,338,3081,1402,-7691,1745152121871475222
158752,70,96,320,3138,1338,-7715,1745152121871475222
158944,98,91,302,3210,1237,-7759,1745152121933274137
159136,116,82,286,3267,1157,-7792,1745152121933274137
159328,121,71,271,3321,1043,-7812,1745152121933274137
159520,118,55,255,3350,876,-7706,1745152121933274137
159712,116,35,242,3326,741,-7631,1745152121933274137
159904,117,18,227,3289,681,-7601,1745152121933274137
160096,115,5,214,3248,631,-7548,1745152121933274137
160288,109,-5,201,3216,535,-7463,1745152121933274137
160480,103,-14,192,3188,475,-7430,1745152121933274137
160672,97,-21,192,3162,431,-7409,1745152121933274137
160864,91,-26,192,3168,433,-7417,1745152121933274137
161056,80,-24,191,3145,501,-7457,1745152121933274137
161248,67,-19,193,3133,609,-7513,1745152121988792119
161440,57,-9,199,3087,738,-7629,1745152121988792119
161632,52,4,205,3106,792,-7724,1745152121988792119
161824,53,16,209,3119,819,-7757,1745152121988792119
162016,56,29,211,3154,772,-7814,1745152121988792119
162208,57,42,210,3189,707,-7859,1745152121988792119
162400,51,52,205,3218,658,-7882,1745152121988792119
162592,43,53,196,3281,578,-7832,1745152121988792119
162784,33,47,185,3318,446,-7778,1745152121988792119
162976,21,39,169,3329,351,-7741,1745152121988792119
163168,2,30,150,3326,310,-7704,1745152121988792119
163360,-23,24,125,3304,219,-7614,1745152121988792119
163552,-42,18,99,3238,155,-7532,1745152122046746903
163744,-47,10,79,3180,41,-7510,1745152122046746903
163936,-46,7,60,3103,54,-7541,1745152122046746903
164128,-44,7,43,3017,183,-7569,1745152122046746903
164320,-43,11,28,2975,318,-7562,1745152122046746903
164512,-38,16,16,2973,409,-7541,1745152122046746903
164704,-28,20,7,3014,436,-7564,1745152122046746903
164896,-13,24,1,3064,462,-7665,1745152122046746903
165088,1,26,3,3101,491,-7744,1745152122046746903
165280,10,26,8,3153,455,-7782,1745152122046746903
165472,17,23,18,3207,378,-7810,1745152122046746903
165664,22,20,25,3225,321,-7853,1745152122046746903
165856,23,17,30,3202,211,-7868,1745152122106882759
166048,20,16,35,3142,180,-7912,1745152122106882759
166240,12,20,38,3061,170,-7942,1745152122106882759
166432,1,31,39,2970,172,-7932,1745152122106882759
166624,-9,47,39,2937,204,-7897,1745152122106882759
166816,-13,67,39,2931,261,-7898,1745152122106882759
167008,-17,90,40,2966,326,-7930,1745152122106882759
167200,-20,107,39,3039,375,-7941,1745152122106882759
167392,-21,120,35,3084,428,-7927,1745152122106882759
167584,-13,127,23,3157,389,-7928,1745152122106882759
167776,1,127,7,3222,352,-7929,1745152122106882759
167968,20,125,-5,3236,354,-7944,1745152122106882759
168160,39,102,-10,3252,241,-7783,1745152122163501201
168352,64,114,-15,3289,187,-7677,1745152122163501201
168544,90,89,-24,3333,-12,-7576,1745152122163501201
168736,113,61,-29,3339,-251,-7461,1745152122163501201
168928,130,48,-32,3304,-494,-7429,1745152122163501201
169120,138,28,-32,3240,-641,-7453,1745152122163501201
169312,134,16,-32,3155,-656,-7495,1745152122163501201
169504,113,14,-31,3064,-609,-7505,1745152122163501201
169696,89,20,-31,3021,-494,-7501,1745152122163501201
169888,66,28,-27,3032,-365,-7491,1745152122163501201
170080,48,38,-21,3095,-240,-7508,1745152122163501201
170272,31,47,-15,3195,-186,-7534,1745152122163501201
170464,14,49,-11,3321,-186,-7569,1745152122229954031
170656,-5,44,-12,3419,-238,-7602,1745152122229954031
170848,-26,34,-18,3492,-282,-7630,1745152122229954031
171040,-46,19,-24,3515,-318,-7591,1745152122229954031
171232,-58,3,-31,3459,-327,-7514,1745152122229954031
171424,-63,-12,-40,3420,-379,-7437,1745152122229954031
171616,-63,-23,-52,3340,-462,-7379,1745152122229954031
171808,-55,-29,-67,3249,-536,-7389,1745152122229954031
172000,-50,-32,-78,3182,-584,-7458,1745152122229954031
172192,-55,-32,-82,3132,-575,-7500,1745152122229954031
172384,-65,-25,-84,3088,-494,-7467,1745152122229954031
172576,-68,-16,-89,3086,-327,-7430,1745152122229954031
172768,-62,-4,-95,3101,-149,-7425,1745152122280394768
172960,-41,4,-97,3142,-74,-7375,1745152122280394768
173152,-4,4,-90,3211,-72,-7372,1745152122280394768
173344,34,-2,-80,3295,-120,-7415,1745152122280394768
173536,59,-9,-76,3361,-185,-7443,1745152122280394768
173728,70,-16,-79,3378,-274,-7447,1745152122280394768
173920,78,-22,-80,3354,-330,-7454,1745152122280394768
174112,83,-27,-80,3296,-390,-7446,1745152122280394768
174304,81,-32,-76,3260,-529,-7426,1745152122280394768
174496,77,-35,-73,3219,-668,-7378,1745152122280394768
174688,68,-35,-72,3191,-763,-7364,1745152122280394768
174880,50,-33,-72,3169,-806,-7373,1745152122280394768
175072,26,-30,-74,3102,-812,-7391,1745152122340629374
175264,1,-23,-78,3073,-767,-7410,1745152122340629374
175456,-18,-13,-78,3042,-698,-7392,1745152122340629374
175648,-28,-3,-75,3059,-649,-7395,1745152122340629374
175840,-32,6,-72,3104,-617,-7493,1745152122340629374
176032,-34,13,-72,3124,-553,-7524,1745152122340629374
176224,-30,17,-68,3160,-472,-7520,1745152122340629374
176416,-19,19,-65,3213,-390,-7528,1745152122340629374
176608,-6,20,-66,3236,-378,-7551,1745152122340629374
176800,10,17,-66,3270,-373,-7544,1745152122340629374
176992,31,9,-64,3274,-403,-7531,1745152122340629374
177184,48,1,-63,3280,-429,-7558,1745152122340629374
177376,56,-6,-64,3277,-439,-7572,1745152122397937340
177568,57,-10,-70,3262,-444,-7576,1745152122397937340
177760,55,-12,-76,3239,-413,-7566,1745152122397937340
177952,54,-8,-80,3222,-404,-7585,1745152122397937340
178144,58,-7,-84,3241,-481,-7592,1745152122397937340
178336,64,-10,-84,3245,-589,-7628,1745152122397937340
178528,70,-13,-84,3241,-629,-7670,1745152122397937340
178720,71,-14,-85,3223,-622,-7724,1745152122397937340
178912,61,-10,-88,3190,-630,-7744,1745152122397937340
179104,48,-6,-93,3178,-713,-7702,1745152122397937340
179296,44,-4,-90,3157,-812,-7671,1745152122397937340
179488,49,-4,-82,3136,-888,-7662,1745152122397937340
179680,55,-5,-68,3108,-862,-7648,1745152122457408984
179872,54,-3,-55,3108,-809,-7656,1745152122457408984
180064,46,4,-47,3088,-746,-7634,1745152122457408984
180256,40,11,-41,3120,-676,-7590,1745152122457408984
180448,37,19,-34,3159,-623,-7552,1745152122457408984
180640,38,25,-25,3206,-592,-7563,1745152122457408984
180832,38,25,-14,3280,-580,-7569,1745152122457408984
181024,33,18,-6,3369,-573,-7569,1745152122457408984
181216,21,7,-6,3395,-582,-7554,1745152122457408984
181408,10,-5,-6,3366,-556,-7499,1745152122457408984
181600,5,-17,-5,3320,-503,-7436,1745152122457408984
181792,6,-28,-5,3256,-514,-7303,1745152122457408984
181984,14,-38,-9,3215,-480,-7270,1745152122515940273
182176,19,-44,-16,3196,-529,-7211,1745152122515940273
182368,23,-47,-25,3151,-590,-7155,1745152122515940273
182560,30,-48,-33,3123,-613,-7107,1745152122515940273
182752,35,-48,-38,3095,-622,-7096,1745152122515940273
182944,37,-44,-44,3073,-592,-7147,1745152122515940273
183136,35,-36,-51,3048,-561,-7209,1745152122515940273
183328,29,-25,-58,3028,-537,-7251,1745152122515940273
183520,25,-15,-59,3061,-515,-7279,1745152122515940273
183712,25,-7,-58,3076,-470,-7313,1745152122515940273
183904,24,0,-57,3130,-398,-7356,1745152122515940273
184096,19,2,-59,3172,-359,-7362,1745152122515940273
184288,10,2,-59,3217,-329,-7339,1745152122572930898
184480,3,2,-55,3217,-332,-7341,1745152122572930898
184672,4,-1,-50,3220,-301,-7327,1745152122572930898
184864,11,-6,-44,3204,-259,-7335,1745152122572930898
185056,19,-8,-39,3201,-217,-7356,1745152122572930898
185248,23,-10,-38,3188,-192,-7321,1745152122572930898
185440,30,-12,-36,3176,-230,-7260,1745152122572930898
185632,48,-15,-31,3156,-307,-7249,1745152122572930898
185824,64,-14,-29,3147,-322,-7317,1745152122572930898
186016,68,-11,-33,3133,-403,-7376,1745152122572930898
186208,65,-6,-41,3130,-414,-7386,1745152122572930898
186400,60,0,-47,3120,-432,-7409,1745152122572930898
186592,56,5,-50,3125,-391,-7410,1745152122638673995
186784,50,11,-54,3133,-327,-7391,1745152122638673995
186976,44,16,-61,3153,-278,-7341,1745152122638673995
187168,40,20,-70,3174,-238,-7341,1745152122638673995
187360,39,24,-80,3184,-196,-7324,1745152122638673995
187552,40,27,-89,3198,-183,-7343,1745152122638673995
187744,41,28,-96,3196,-161,-7322,1745152122638673995
187936,43,25,-101,3222,-142,-7280,1745152122638673995
188128,49,21,-104,3210,-202,-7249,1745152122638673995
188320,59,15,-106,3209,-224,-7235,1745152122638673995
188512,70,10,-109,3174,-237,-7220,1745152122638673995
188704,82,9,-110,3129,-211,-7226,1745152122638673995
188896,93,14,-113,3116,-188,-7258,1745152122689260200
189088,101,21,-118,3129,-181,-7293,1745152122689260200
189280,107,29,-119,3144,-220,-7346,1745152122689260200
189472,109,36,-119,3170,-282,-7423,1745152122689260200
189664,105,43,-116,3199,-295,-7525,1745152122689260200
189856,96,50,-114,3226,-266,-7627,1745152122689260200
190048,83,55,-114,3245,-235,-7713,1745152122689260200
190240,66,56,-116,3255,-218,-7767,1745152122689260200
190432,50,57,-121,3263,-127,-7793,1745152122689260200
190624,39,59,-129,3269,-9,-7810,1745152122689260200
190816,33,58,-139,3255,91,-7771,1745152122689260200
191008,36,59,-150,3249,179,-7750,1745152122689260200
191200,46,60,-166,3246,275,-7762,1745152122754218304
191392,59,61,-184,3289,386,-7767,1745152122754218304
191584,73,60,-202,3338,491,-7760,1745152122754218304
191776,85,56,-226,3403,571,-7732,1745152122754218304
191968,93,45,-252,3471,524,-7685,1745152122754218304
192160,104,25,-274,3527,394,-7581,1745152122754218304
192352,126,-5,-290,3541,290,-7557,1745152122754218304
192544,144,-35,-307,3496,230,-7537,1745152122754218304
192736,150,-59,-329,3428,253,-7508,1745152122754218304
192928,152,-75,-355,3360,304,-7465,1745152122754218304
193120,156,-83,-383,3289,379,-7485,1745152122754218304
193312,161,-84,-408,3240,444,-7515,1745152122754218304
193504,165,-83,-430,3257,453,-7574,1745152122806025591
193696,169,-81,-447,3284,474,-7631,1745152122806025591
193888,170,-81,-463,3352,545,-7717,1745152122806025591
194080,166,-83,-478,3433,598,-7791,1745152122806025591
194272,154,-85,-494,3486,703,-7890,1745152122806025591
194464,137,-89,-514,3513,825,-7944,1745152122806025591
194656,118,-95,-534,3553,995,-7959,1745152122806025591
194848,101,-101,-556,3591,1093,-7962,1745152122806025591
195040,88,-107,-585,3598,1242,-7986,1745152122806025591
195232,77,-114,-621,3637,1364,-8001,1745152122806025591
195424,69,-122,-659,3677,1456,-7986,1745152122806025591
195616,66,-132,-696,3719,1543,-7985,1745152122806025591
195808,66,-145,-737,3769,1635,-7966,1745152122869619750
196000,68,-160,-783,3801,1710,-7944,1745152122869619750
196192,73,-176,-830,3815,1787,-7939,1745152122869619750
196384,80,-191,-879,3823,1906,-7914,1745152122869619750
196576,90,-205,-928,3843,1967,-7863,1745152122869619750
196768,101,-222,-981,3906,2005,-7852,1745152122869619750
196960,111,-242,-1034,3967,1973,-7823,1745152122869619750
197152,117,-264,-1087,4017,1915,-7799,1745152122869619750
197344,121,-291,-1138,4079,1865,-7730,1745152122869619750
197536,125,-322,-1187,4104,1821,-7689,1745152122869619750
197728,124,-353,-1239,4110,1806,-7695,1745152122869619750
197920,114,-385,-1294,4098,1874,-7697,1745152122869619750
198112,101,-414,-1346,4058,1887,-7668,1745152122924279772
198304,88,-438,-1394,4006,1988,-7682,1745152122924279772
198496,77,-456,-1443,3957,2107,-7740,1745152122924279772
198688,72,-471,-1489,3925,2209,-7786,1745152122924279772
198880,69,-480,-1533,3948,2272,-7782,1745152122924279772
199072,68,-488,-1576,4009,2290,-7769,1745152122924279772
199264,61,-500,-1623,4099,2247,-7786,1745152122924279772
199456,49,-516,-1674,4213,2201,-7837,1745152122924279772
199648,24,-532,-1727,4285,2188,-7894,1745152122924279772
199840,-6,-554,-1781,4325,2223,-7985,1745152122924279772
200032,-39,-576,-1834,4353,2340,-8013,1745152122924279772
200224,-70,-600,-1887,4400,2465,-7981,1745152122924279772
200416,-96,-623,-1949,4424,2572,-7937,1745152122981200137
200608,-120,-646,-2013,4462,2638,-7875,1745152122981200137
200800,-146,-671,-2077,4501,2730,-7826,1745152122981200137
200992,-176,-700,-2141,4536,2726,-7712,1745152122981200137
201184,-211,-732,-2205,4530,2642,-7545,1745152122981200137
201376,-251,-769,-2271,4507,2521,-7396,1745152122981200137
201568,-295,-810,-2339,4468,2376,-7378,1745152122981200137
201760,-348,-848,-2408,4374,2327,-7361,1745152122981200137
201952,-409,-877,-2476,4260,2415,-7428,1745152122981200137
202144,-466,-887,-2542,4124,2676,-7533,1745152122981200137
202336,-510,-889,-2600,4006,3021,-7586,1745152122981200137
202528,-516,-892,-2653,3925,3424,-7467,1745152122981200137
202720,-489,-885,-2703,3899,3751,-7391,1745152123044429924
202912,-431,-887,-2764,3935,3965,-7280,1745152123044429924
203104,-350,-897,-2824,3977,4031,-7264,1745152123044429924
203296,-260,-920,-2872,3988,4001,-7336,1745152123044429924
203488,-170,-945,-2909,3996,3945,-7430,1745152123044429924
203680,-85,-975,-2939,3966,3830,-7512,1745152123044429924
203872,-11,-1007,-2968,3905,3714,-7572,1745152123044429924
204064,49,-1035,-2999,3808,3608,-7596,1745152123044429924
204256,93,-1053,-3038,3664,3477,-7629,1745152123044429924
204448,124,-1066,-3075,3491,3330,-7614,1745152123044429924
204640,148,-1070,-3109,3275,3258,-7604,1745152123044429924
204832,166,-1067,-3134,2998,3210,-7611,1745152123044429924
205024,176,-1050,-3150,2740,3169,-7623,1745152123101182218
205216,181,-1020,-3161,2507,3166,-7697,1745152123101182218
205408,181,-982,-3171,2324,3157,-7649,1745152123101182218
205600,178,-933,-3181,2188,3143,-7595,1745152123101182218
205792,175,-878,-3189,2117,3123,-7586,1745152123101182218
205984,171,-823,-3192,2097,3102,-7593,1745152123101182218
206176,163,-768,-3193,2102,3031,-7629,1745152123101182218
206368,152,-722,-3190,2204,2948,-7607,1745152123101182218
206560,133,-669,-3182,2213,2844,-7574,1745152123101182218
206752,113,-614,-3174,2210,2754,-7545,1745152123101182218
206944,96,-567,-3164,2152,2702,-7482,1745152123101182218
207136,87,-519,-3162,2073,2676,-7383,1745152123101182218
207328,85,-469,-3177,1917,2659,-7376,1745152123156499421
207520,74,-421,-3188,1751,2592,-7369,1745152123156499421
207712,56,-370,-3183,1580,2527,-7292,1745152123156499421
207904,40,-317,-3164,1448,2416,-7168,1745152123156499421
208096,22,-262,-3142,1372,2292,-7085,1745152123156499421
208288,3,-207,-3121,1324,2156,-7030,1745152123156499421
208480,-15,-159,-3099,1342,2011,-6973,1745152123156499421
208672,-33,-116,-3076,1367,1931,-6914,1745152123156499421
208864,-47,-70,-3052,1343,1943,-6830,1745152123156499421
209056,-57,-16,-3030,1319,2054,-6765,1745152123156499421
209248,-60,44,-3011,1267,2221,-6740,1745152123156499421
209440,-54,111,-2990,1217,2338,-6748,1745152123156499421
209632,-30,177,-2965,1242,2411,-6823,1745152123216254448
209824,9,243,-2935,1312,2380,-6848,1745152123216254448
210016,56,304,-2902,1397,2306,-6881,1745152123216254448
210208,107,359,-2870,1523,2148,-6890,1745152123216254448
210400,153,404,-2838,1620,2014,-6912,1745152123216254448
210592,189,444,-2808,1675,1853,-6900,1745152123216254448
210784,215,476,-2783,1711,1717,-6918,1745152123216254448
210976,236,505,-2762,1718,1606,-6940,1745152123216254448
211168,251,535,-2744,1699,1554,-6915,1745152123216254448
211360,256,569,-2727,1674,1523,-6907,1745152123216254448
211552,253,598,-2707,1713,1451,-6832,1745152123216254448
211744,242,626,-2685,1742,1346,-6726,1745152123216254448
211936,228,649,-2662,1751,1185,-6634,1745152123298853694
212128,213,673,-2641,1747,1037,-6633,1745152123298853694
212320,198,697,-2622,1735,937,-6597,1745152123298853694
212512,176,723,-2601,1742,942,-6493,1745152123298853694
212704,146,756,-2580,1740,1015,-6453,1745152123298853694
212896,115,792,-2556,1767,1100,-6410,1745152123298853694
213088,93,828,-2529,1795,1178,-6386,1745152123298853694
213280,90,859,-2501,1840,1232,-6442,1745152123298853694
213472,105,890,-2477,1893,1274,-6535,1745152123298853694
213664,129,921,-2456,1967,1298,-6617,1745152123298853694
213856,151,949,-2433,2067,1244,-6671,1745152123298853694
214048,172,972,-2408,2204,1130,-6680,1745152123298853694
214240,192,992,-2385,2308,993,-6805,1745152123329557372
214432,204,1012,-2366,2365,907,-6982,1745152123329557372
214624,211,1031,-2351,2423,787,-7104,1745152123329557372
214816,222,1048,-2337,2424,737,-7167,1745152123329557372
215008,240,1062,-2322,2453,703,-7192,1745152123329557372
215200,260,1074,-2309,2470,677,-7224,1745152123329557372
215392,278,1089,-2298,2483,679,-7236,1745152123329557372
215584,292,1101,-2281,2526,644,-7194,1745152123329557372
215776,301,1116,-2264,2540,577,-7211,1745152123329557372
215968,303,1131,-2241,2523,445,-7264,1745152123329557372
216160,309,1142,-2208,2527,289,-7281,1745152123329557372
216352,309,1151,-2166,2563,156,-7292,1745152123329557372
216544,294,1160,-2123,2559,84,-7333,1745152123394108865
216736,265,1175,-2078,2579,98,-7355,1745152123394108865
216928,233,1198,-2029,2586,91,-7294,1745152123394108865
217120,210,1229,-1976,2595,111,-7210,1745152123394108865
217312,209,1261,-1915,2632,98,-7194,1745152123394108865
217504,229,1294,-1848,2731,21,-7202,1745152123394108865
217696,259,1320,-1776,2870,-122,-7254,1745152123394108865
217888,293,1336,-1706,3033,-299,-7349,1745152123394108865
218080,327,1344,-1642,3206,-512,-7486,1745152123394108865
218272,350,1345,-1591,3356,-687,-7622,1745152123394108865
218464,359,1334,-1548,3480,-837,-7671,1745152123394108865
218656,363,1317,-1507,3577,-959,-7681,1745152123394108865
218848,365,1293,-1467,3626,-1028,-7673,1745152123449088207
219040,362,1266,-1426,3650,-1036,-7658,1745152123449088207
219232,362,1240,-1387,3630,-1007,-7661,1745152123449088207
219424,354,1218,-1355,3628,-1012,-7616,1745152123449088207
219616,349,1195,-1325,3635,-1073,-7672,1745152123449088207
219808,352,1176,-1296,3677,-1197,-7864,1745152123449088207
220000,361,1158,-1269,3762,-1377,-8080,1745152123449088207
220192,363,1130,-1237,3833,-1612,-8364,1745152123449088207
220384,354,1091,-1194,3904,-1858,-8456,1745152123449088207
220576,329,1058,-1137,3888,-1887,-8496,1745152123449088207
220768,271,1007,-1062,4099,-2066,-8546,1745152123449088207
220960,198,989,-1031,4088,-1919,-8495,1745152123449088207
221152,105,989,-1006,3921,-1650,-8067,1745152123509447082
221344,33,976,-963,3799,-1271,-7780,1745152123509447082
221536,-12,967,-914,3692,-868,-7539,1745152123509447082
221728,-20,968,-864,3618,-486,-7406,1745152123509447082
221920,-5,979,-812,3573,-172,-7274,1745152123509447082
222112,33,1017,-717,3764,-37,-7478,1745152123509447082
222304,414,1055,-444,4277,-167,-7008,1745152123509447082
222496,1030,1692,-286,6322,278,-7826,1745152123509447082
222688,1244,2842,-263,7323,370,-10458,1745152123509447082
222880,1153,2716,-230,8722,265,-11640,1745152123509447082
223072,794,2070,-280,9228,-101,-10988,1745152123509447082
223264,502,1498,-307,9163,-707,-10965,1745152123509447082
223456,103,878,-371,8448,-1431,-11676,1745152123566746246
223648,-391,26,-474,7129,-1855,-9139,1745152123566746246
223840,-328,-331,-480,4780,-835,-10691,1745152123566746246
224032,70,-1803,-220,1123,1126,-3575,1745152123566746246
224224,967,-1801,293,910,1566,-5411,1745152123566746246
224416,1081,-1003,426,678,731,-7332,1745152123566746246
224608,731,44,386,1367,-1076,-8956,1745152123566746246
224800,98,74,233,1697,-2910,-7375,1745152123566746246
224992,309,-9,191,1681,-4283,-5264,1745152123566746246
225184,885,606,297,2053,-3534,-6606,1745152123566746246
225376,485,1047,297,2643,-3347,-7452,1745152123566746246
225568,84,890,191,2805,-2977,-6057,1745152123566746246
225760,18,738,196,3229,-2582,-6002,1745152123626318879
225952,-128,775,225,3601,-1928,-5863,1745152123626318879
226144,-176,824,253,3837,-1368,-5651,1745152123626318879
226336,-134,811,298,4134,-580,-5688,1745152123626318879
226528,-183,807,316,4425,-195,-5743,1745152123626318879
226720,-139,756,325,4671,60,-5951,1745152123626318879
226912,-56,695,339,4748,184,-6395,1745152123626318879
227104,-87,655,365,4817,282,-6625,1745152123626318879
227296,-78,592,379,4842,289,-7167,1745152123626318879
227488,-29,489,398,4760,430,-7648,1745152123626318879
227680,-32,450,440,4638,635,-8007,1745152123626318879
227872,-19,440,485,4579,783,-8344,1745152123626318879
228064,33,421,519,4487,972,-8611,1745152123685894168
228256,26,390,555,4452,1114,-8472,1745152123685894168
228448,28,370,584,4490,971,-8399,1745152123685894168
228640,66,331,597,4441,801,-8364,1745152123685894168
228832,54,296,605,4473,549,-8096,1745152123685894168
229024,39,266,589,4527,283,-7867,1745152123685894168
229216,42,196,557,4528,48,-7610,1745152123685894168
229408,11,176,524,4507,-15,-7257,1745152123685894168
229600,-33,163,482,4356,-13,-7007,1745152123685894168
229792,-45,157,437,4173,192,-6796,1745152123685894168
229984,-54,132,365,3977,528,-6849,1745152123685894168
230176,-65,117,268,3808,777,-6850,1745152123685894168
230368,-60,120,160,3635,1042,-6868,1745152123762049931
230560,-44,154,69,3519,1301,-6889,1745152123762049931
230752,-19,173,-7,3441,1505,-6999,1745152123762049931
230944,6,194,-37,3458,1651,-7196,1745152123762049931
231136,37,270,-39,3728,1892,-7454,1745152123762049931
231328,99,254,-79,3950,2066,-7737,1745152123762049931
231520,161,218,-116,4182,2260,-7720,1745152123762049931
231712,229,240,-123,4380,2346,-7570,1745152123762049931
231904,299,204,-97,4480,2295,-7543,1745152123762049931
232096,377,148,-39,4588,2125,-7410,1745152123762049931
232288,482,83,12,4568,1982,-7460,1745152123762049931
232480,551,19,43,4450,1857,-7388,1745152123762049931
232672,617,-65,44,4226,1692,-7305,1745152123799702556
232864,677,-138,49,3928,1432,-7231,1745152123799702556
233056,718,-135,68,3677,1058,-7258,1745152123799702556
233248,727,-134,85,3427,604,-7263,1745152123799702556
233440,716,-124,94,3271,167,-7316,1745152123799702556
233632,690,-103,89,3148,-203,-7358,1745152123799702556
233824,644,-69,74,3056,-457,-7406,1745152123799702556
234016,590,-38,54,3027,-604,-7476,1745152123799702556
234208,535,-11,37,3014,-650,-7526,1745152123799702556
234400,474,11,29,3043,-587,-7551,1745152123799702556
234592,416,18,26,3133,-453,-7536,1745152123799702556
234784,355,17,24,3196,-356,-7538,1745152123799702556
234976,292,5,29,3211,-211,-7435,1745152123862595836
235168,262,9,40,3250,-207,-7400,1745152123862595836
235360,243,32,38,3314,-192,-7476,1745152123862595836
235552,206,38,23,3342,-189,-7517,1745152123862595836
235744,171,27,9,3362,-184,-7548,1745152123862595836
235936,136,4,2,3349,-70,-7457,1745152123862595836
236128,128,-6,8,3280,164,-7282,1745152123862595836
236320,144,5,20,3222,497,-7247,1745152123862595836
236512,166,12,31,3202,767,-7324,1745152123862595836
236704,187,1,41,3198,897,-7400,1745152123862595836
236896,213,-15,56,3199,911,-7408,1745152123862595836
237088,250,-18,76,3242,866,-7440,1745152123862595836
237280,279,-24,98,3278,727,-7443,1745152123923669601
237472,302,-38,117,3322,531,-7443,1745152123923669601
237664,320,-53,135,3326,291,-7521,1745152123923669601
237856,321,-72,143,3291,105,-7580,1745152123923669601
238048,304,-102,144,3180,-53,-7518,1745152123923669601
238240,305,-94,141,3120,-121,-7590,1745152123923669601
238432,279,-92,129,3000,-109,-7541,1745152123923669601
238624,254,-106,118,2927,-77,-7397,1745152123923669601
238816,254,-78,104,2889,-76,-7392,1745152123923669601
239008,244,-42,92,2913,-81,-7417,1745152123923669601
239200,222,-41,78,2941,-60,-7266,1745152123923669601
239392,221,-36,72,2999,-106,-7262,1745152123923669601
239584,215,-23,79,3051,-166,-7389,1745152123980622987
239776,200,-34,90,3156,-252,-7354,1745152123980622987
239968,192,-33,89,3230,-338,-7344,1745152123980622987
240160,167,-17,73,3275,-361,-7360,1745152123980622987
240352,154,-36,59,3294,-356,-7226,1745152123980622987
240544,152,-41,58,3249,-347,-7166,1745152123980622987
240736,148,-39,72,3201,-308,-7295,1745152123980622987
240928,146,-44,86,3200,-190,-7275,1745152123980622987
241120,161,-25,85,3193,8,-7216,1745152123980622987
241312,167,-17,82,3243,170,-7345,1745152123980622987
241504,168,-34,84,3304,178,-7456,1745152123980622987
241696,189,-38,87,3354,63,-7695,1745152123980622987
241888,191,-44,93,3418,-5,-7778,1745152124040470617
242080,182,-34,92,3462,-118,-7667,1745152124040470617
242272,170,-37,78,3488,-238,-7665,1745152124040470617
242464,155,-64,58,3473,-337,-7678,1745152124040470617
242656,138,-65,41,3529,-469,-7594,1745152124040470617
242848,144,-71,17,3492,-496,-7605,1745152124040470617
243040,149,-111,4,3455,-359,-7543,1745152124040470617
243232,145,-103,1,3425,-221,-7513,1745152124040470617
243424,145,-118,5,3319,-52,-7478,1745152124040470617
243616,124,-119,36,3265,14,-7329,1745152124040470617
243808,129,-110,62,3270,9,-7419,1745152124040470617
244000,137,-140,70,3340,-20,-7454,1745152124040470617
244192,128,-178,61,3435,-98,-7446,1745152124097605512
244384,90,-227,63,3349,-150,-7268,1745152124097605512
244576,97,-232,67,3166,-197,-7169,1745152124097605512
244768,117,-173,62,3058,-255,-7329,1745152124097605512
244960,100,-170,57,2956,-312,-7398,1745152124097605512
245152,79,-182,62,2911,-320,-7300,1745152124097605512
245344,87,-135,61,2839,-364,-7320,1745152124097605512
245536,83,-57,49,2865,-452,-7637,1745152124097605512
245728,51,-72,45,2958,-475,-7647,1745152124097605512
245920,23,-17,32,3087,-486,-7557,1745152124097605512
246112,-12,9,36,3182,-387,-7670,1745152124097605512
246304,-17,-9,49,3368,-219,-7518,1745152124097605512
246496,-14,13,40,3482,-190,-7582,1745152124174312884
246688,-19,-17,51,3597,-121,-7485,1745152124174312884
246880,-16,-31,65,3721,-120,-7377,1745152124174312884
247072,-19,-77,70,3682,-123,-7375,1745152124174312884
247264,1,-155,66,3584,-115,-7455,1745152124174312884
247456,15,-157,51,3436,-180,-7464,1745152124174312884
247648,16,-143,31,3192,-115,-7438,1745152124174312884
247840,61,-120,13,2868,-158,-7303,1745152124174312884
248032,48,14,9,2881,-327,-8072,1745152124174312884
248224,-32,-73,24,3030,-406,-7933,1745152124174312884
248416,-52,-48,31,3178,-446,-7729,1745152124174312884
248608,-73,21,31,3396,-404,-7871,1745152124174312884
248800,-148,-2,38,3695,-292,-7796,1745152124213883408
248992,-187,-79,21,3713,-229,-7500,1745152124213883408
249184,-170,-94,5,3579,-567,-7451,1745152124213883408
249376,-346,5,63,2722,-2874,-7463,1745152124213883408
249568,-535,97,164,2166,-3361,-7319,1745152124213883408
249760,-491,38,162,2712,-656,-7234,1745152124213883408
249952,-418,8,57,3191,1786,-7062,1745152124213883408
250144,-385,47,-31,3158,2654,-7080,1745152124213883408
250336,-272,41,-58,3073,2287,-7145,1745152124213883408
250528,-125,50,-27,3199,1484,-7359,1745152124213883408
250720,-25,61,12,3459,697,-7556,1745152124213883408
250912,20,38,29,3625,190,-7605,1745152124213883408
251104,55,-1,25,3707,52,-7653,1745152124277188402
251296,64,-35,10,3646,-113,-7706,1745152124277188402
251488,73,-50,-5,3484,-159,-7687,1745152124277188402
251680,68,-50,-1,3336,-142,-7786,1745152124277188402
251872,50,-62,4,3228,-149,-7728,1745152124277188402
252064,37,-64,-3,3159,-186,-7691,1745152124277188402
252256,23,-65,-3,3138,-58,-7659,1745152124277188402
252448,12,-84,2,3545,-141,-7259,1745152124277188402
252640,-33,-164,5,4234,-1180,-7757,1745152124277188402
252832,-175,-203,-22,4146,-2209,-7586,1745152124277188402
253024,-267,-232,-50,3782,-1786,-7349,1745152124277188402
253216,-229,-290,-50,3676,-237,-7228,1745152124277188402
253408,-205,-335,-1,3436,755,-7309,1745152124332974768
253600,-239,-376,63,3144,909,-7219,1745152124332974768
253792,-198,-398,60,2882,540,-7087,1745152124332974768
253984,-90,-372,-14,2762,88,-7264,1745152124332974768
254176,-41,-332,-62,2626,51,-7486,1745152124332974768
254368,-22,-308,-56,2396,237,-7434,1745152124332974768
254560,35,-276,-19,2245,365,-7416,1745152124332974768
254752,119,-216,10,2409,88,-6442,1745152124332974768
254944,459,-131,-20,2315,412,-8443,1745152124332974768
255136,134,-61,-15,2474,825,-7421,1745152124332974768
255328,109,-29,-12,2948,570,-7269,1745152124332974768
255520,135,-13,-30,3165,3,-7482,1745152124332974768
256864,8,-89,-16,2858,-707,-7576,1745152134208216745
642016,174,-78,-6,842,940,-8358,1745152134208216745
642208,162,-89,0,617,130,-7789,1745152134208216745
642400,79,11,-27,1043,608,-8248,1745152134208216745
642592,41,-37,-2,1243,826,-8159,1745152134208216745
642784,60,-7,11,1442,991,-8503,1745152134208216745
642976,44,-59,-1,1551,1069,-8619,1745152134208216745
643168,34,-89,-19,1572,1229,-8708,1745152134208216745
643360,67,-94,-23,1399,1426,-8758,1745152134208216745
643552,83,-120,-18,1149,1623,-8766,1745152134208216745
643744,115,-107,-16,941,1746,-8708,1745152134208216745
643936,150,-91,-13,794,1731,-8642,1745152134208216745
644128,175,-77,-8,710,1578,-8653,1745152134257808844
644320,198,-38,-2,579,1346,-8655,1745152134257808844
644512,196,-4,15,438,1126,-8604,1745152134257808844
644704,186,36,36,332,796,-8469,1745152134257808844
644896,57,93,23,336,-1248,-8507,1745152134257808844
645088,-21,143,3,1063,1522,-8192,1745152134257808844
645280,271,101,74,578,2862,-7471,1745152134257808844
645472,487,255,74,161,2199,-7929,1745152134257808844
645664,580,354,-1,165,1020,-8053,1745152134257808844
645856,813,453,-13,235,799,-7974,1745152134257808844
646048,332,377,50,1164,-855,-8212,1745152134257808844
646240,-962,118,145,3884,-5639,-7726,1745152134257808844
646432,-1279,-105,23,4522,-6108,-8168,1745152134315481078
646624,-947,-149,43,3082,-3043,-7142,1745152134315481078
646816,-1029,-248,73,1491,602,-7416,1745152134315481078
647008,-953,-216,61,374,3105,-7592,1745152134315481078
647200,-786,-122,-104,-469,4851,-7402,1745152134315481078
647392,-559,-44,-231,-929,5622,-6836,1745152134315481078
647584,-218,12,-221,-317,4930,-7118,1745152134315481078
647776,67,69,-199,523,3683,-7550,1745152134315481078
647968,226,87,-154,1333,2352,-7820,1745152134315481078
648160,265,57,-109,1883,1279,-8049,1745152134315481078
648352,217,12,-76,2050,602,-8151,1745152134315481078
648544,123,-37,-66,1851,357,-8187,1745152134315481078
648736,22,-71,-72,1384,460,-8175,1745152134376279220
648928,-61,-76,-73,860,749,-8159,1745152134376279220
649120,-111,-59,-63,486,1080,-8145,1745152134376279220
649312,-126,-27,-55,377,1291,-8125,1745152134376279220
649504,-114,10,-56,476,1385,-8122,1745152134376279220
649696,-86,39,-63,687,1360,-8145,1745152134376279220
649888,-59,54,-68,920,1270,-8136,1745152134376279220
650080,-43,53,-69,1089,1177,-8141,1745152134376279220
650272,-41,43,-72,1122,1077,-8114,1745152134376279220
650464,-47,29,-76,1043,1022,-8069,1745152134376279220
650656,-57,18,-78,890,1013,-8036,1745152134376279220
650848,-65,15,-78,738,996,-7955,1745152134376279220
651040,-72,19,-77,641,1010,-7926,1745152134432548342
651232,-74,29,-75,615,1038,-7887,1745152134432548342
651424,-72,44,-72,663,1060,-7852,1745152134432548342
651616,-64,60,-69,748,1126,-7851,1745152134432548342
651808,-56,72,-64,834,1165,-7853,1745152134432548342
652000,-46,79,-60,931,1204,-7876,1745152134432548342
652192,-36,79,-61,1019,1231,-7925,1745152134432548342
652384,-28,72,-70,1081,1245,-7978,1745152134432548342
652576,-22,65,-81,1093,1274,-8048,1745152134432548342
652768,-20,57,-88,1063,1257,-8069,1745152134432548342
652960,-14,49,-90,1037,1264,-8077,1745152134432548342
653152,-12,42,-88,964,1258,-8048,1745152134432548342
653344,-11,40,-85,906,1279,-8002,1745152134490852444
653536,-11,41,-82,831,1275,-7949,1745152134490852444
653728,-10,45,-81,805,1279,-7861,1745152134490852444
653920,-11,49,-77,816,1294,-7821,1745152134490852444
654112,-10,53,-76,850,1284,-7798,1745152134490852444
654304,-4,56,-76,902,1295,-7757,1745152134490852444
654496,5,58,-77,974,1313,-7796,1745152134490852444
654688,12,57,-74,1032,1345,-7844,1745152134490852444
654880,15,58,-70,1085,1361,-7868,1745152134490852444
655072,21,57,-69,1120,1328,-7894,1745152134490852444
655264,29,54,-70,1163,1296,-7908,1745152134490852444
655456,37,48,-75,1181,1255,-7945,1745152134490852444
655648,44,42,-81,1184,1235,-7962,1745152134552527818
655840,47,39,-82,1188,1207,-7996,1745152134552527818
656032,46,37,-79,1178,1226,-8023,1745152134552527818
656224,46,42,-74,1190,1224,-8080,1745152134552527818
656416,44,51,-69,1194,1241,-8148,1745152134552527818
656608,41,60,-67,1225,1234,-8276,1745152134552527818
656800,39,69,-68,1282,1192,-8417,1745152134552527818
656992,38,78,-71,1372,1140,-8530,1745152134552527818
657184,37,88,-76,1423,1041,-8597,1745152134552527818
657376,28,98,-75,1479,995,-8761,1745152134552527818
657568,7,104,-71,1582,925,-8934,1745152134552527818
657760,-18,100,-64,1736,862,-8951,1745152134552527818
657952,-48,91,-51,1975,817,-8817,1745152134615155528
658144,-78,82,-46,2302,774,-8802,1745152134615155528
658336,-114,35,-50,2735,583,-8814,1745152134615155528
658528,-175,-60,-43,3217,365,-8512,1745152134615155528
658720,-239,-160,-28,3527,262,-7943,1745152134615155528
658912,-268,-247,-32,3560,385,-7536,1745152134615155528
659104,-277,-317,-59,3473,525,-7230,1745152134615155528
659296,-289,-360,-113,3253,758,-6944,1745152134615155528
659488,-299,-378,-186,3037,967,-6529,1745152134615155528
659680,-282,-363,-264,2894,1300,-5986,1745152134615155528
659872,-197,-301,-340,2753,1866,-5878,1745152134615155528
660064,-77,-210,-394,2795,2230,-5881,1745152134615155528
660256,-25,-151,-426,2907,2388,-6073,1745152134672766199
660448,-63,-104,-402,3368,1854,-7004,1745152134672766199
660640,-49,-81,-417,3698,1632,-6804,1745152134672766199
660832,131,-102,-453,3766,2076,-6726,1745152134672766199
661024,331,-56,-481,3767,2514,-6863,1745152134672766199
661216,506,9,-503,3942,2536,-7272,1745152134672766199
661408,707,-10,-542,4229,2188,-7466,1745152134672766199
661600,953,-124,-612,4489,1677,-7496,1745152134672766199
661792,1184,-280,-704,4513,1155,-7562,1745152134672766199
661984,1351,-420,-800,4105,652,-7999,1745152134672766199
662176,1429,-514,-889,3360,143,-7871,1745152134672766199
662368,1478,-534,-941,2472,-319,-7502,1745152134672766199
662560,1508,-453,-930,2219,-788,-7595,1745152134726509458
662752,1451,-379,-880,2558,-1445,-8157,1745152134726509458
662944,1310,-505,-786,3052,-2313,-8470,1745152134726509458
663136,1004,-628,-604,4354,-3107,-7499,1745152134726509458
663328,516,-564,-539,5473,-3600,-8544,1745152134726509458
663520,87,-561,-557,5764,-4678,-6440,1745152134726509458
663712,-852,-90,178,7273,-3758,-5238,1745152134726509458
663904,-1828,-100,711,7451,-3550,-3916,1745152134726509458
664096,-1408,-1100,226,5264,-728,-6181,1745152134726509458
664288,-1117,-1373,-561,2882,416,-6720,1745152134726509458
664480,-888,-1321,-1028,2446,936,-7351,1745152134726509458
664672,-780,-1187,-883,3126,303,-6884,1745152134726509458
664864,-650,-1215,-410,4284,-986,-7200,1745152134780734536
665056,-549,-1306,-70,4659,-1699,-7582,1745152134780734536
665248,-521,-1378,102,4185,-2251,-7802,1745152134780734536
665440,-512,-1367,131,3230,-2698,-7664,1745152134780734536
665632,-487,-1283,46,2105,-2619,-7505,1745152134780734536
665824,-454,-1150,7,1322,-2211,-7392,1745152134780734536
666016,-391,-1006,96,1004,-1997,-7277,1745152134780734536
666208,-303,-881,247,1104,-1931,-7198,1745152134780734536
666400,-214,-776,361,1320,-1881,-7203,1745152134780734536
666592,-150,-687,434,1558,-1948,-7091,1745152134780734536
666784,-109,-601,493,1520,-2085,-6843,1745152134780734536
666976,-79,-495,571,1219,-2204,-6717,1745152134780734536
667168,-67,-368,659,816,-2287,-6693,1745152134840590447
667360,-66,-224,761,617,-2379,-6732,1745152134840590447
667552,-78,-79,880,688,-2485,-6664,1745152134840590447
667744,-92,60,1014,890,-2550,-6560,1745152134840590447
667936,-112,188,1144,1038,-2489,-6429,1745152134840590447
668128,-134,312,1265,1062,-2357,-6385,1745152134840590447
668320,-159,432,1378,1035,-2205,-6313,1745152134840590447
668512,-183,548,1499,1050,-2075,-6244,1745152134840590447
668704,-211,659,1634,1111,-1994,-6217,1745152134840590447
668896,-246,765,1772,1205,-1923,-6251,1745152134840590447
669088,-282,868,1909,1308,-1864,-6339,1745152134840590447
669280,-316,956,2042,1470,-1784,-6451,1745152134840590447
669472,-346,1029,2170,1592,-1686,-6481,1745152134902299988
669664,-368,1101,2290,1625,-1591,-6513,1745152134902299988
669856,-376,1170,2397,1624,-1509,-6591,1745152134902299988
670048,-381,1236,2498,1615,-1449,-6752,1745152134902299988
670240,-388,1301,2597,1640,-1407,-6931,1745152134902299988
670432,-403,1360,2696,1699,-1295,-7131,1745152134902299988
670624,-423,1414,2809,1802,-1147,-7305,1745152134902299988
670816,-439,1465,2930,1911,-1040,-7438,1745152134902299988
671008,-434,1503,3024,1936,-842,-7487,1745152134902299988
671200,-419,1493,3102,2090,-567,-7720,1745152134902299988
671392,-402,1492,3193,2301,-300,-8211,1745152134902299988
671584,-395,1535,3293,2468,-76,-8560,1745152134902299988
671776,-402,1615,3398,2615,446,-8873,1745152134957260007
671968,-446,1739,3561,2728,445,-8724,1745152134957260007
672160,-477,1814,3678,2819,622,-8655,1745152134957260007
672352,-492,1841,3747,2996,673,-8701,1745152134957260007
672544,-505,1866,3804,3133,696,-8739,1745152134957260007
672736,-520,1876,3867,3280,724,-8751,1745152134957260007
672928,-542,1876,3933,3589,734,-8706,1745152134957260007
673120,-575,1853,3993,3900,710,-8667,1745152134957260007
673312,-619,1818,4048,4155,786,-8553,1745152134957260007
673504,-669,1782,4096,4335,799,-8571,1745152134957260007
673696,-722,1729,4134,4571,767,-8677,1745152134957260007
673888,-781,1665,4163,4725,688,-8672,1745152134957260007
674080,-843,1606,4196,4897,616,-8652,1745152135021688428
674272,-902,1540,4226,5081,599,-8641,1745152135021688428
674464,-968,1473,4246,5255,600,-8430,1745152135021688428
674656,-1033,1416,4255,5371,602,-8260,1745152135021688428
674848,-1082,1366,4260,5448,746,-8194,1745152135021688428
675040,-1111,1322,4267,5580,1068,-8276,1745152135021688428
675232,-1134,1282,4273,5783,1429,-8423,1745152135021688428
675424,-1167,1237,4267,6188,1643,-8454,1745152135021688428
675616,-1206,1193,4234,6611,1716,-8451,1745152135021688428
675808,-1227,1147,4190,6997,1706,-8434,1745152135021688428
676000,-1226,1091,4157,7200,1813,-8297,1745152135021688428
676192,-1212,993,4177,7347,1890,-8082,1745152135021688428
676384,-1187,875,4205,7567,1839,-8274,1745152135077759791
676576,-1183,802,4191,7669,1889,-8169,1745152135077759791
676768,-1187,742,4157,7732,1895,-8115,1745152135077759791
676960,-1197,694,4114,7767,1944,-7973,1745152135077759791
677152,-1205,652,4076,7793,2046,-7827,1745152135077759791
677344,-1209,614,4048,7822,2197,-7670,1745152135077759791
677536,-1208,578,4028,7896,2378,-7558,1745152135077759791
677728,-1202,538,4016,8036,2493,-7487,1745152135077759791
677920,-1198,499,4000,8183,2550,-7426,1745152135077759791
678112,-1191,463,3972,8344,2598,-7340,1745152135077759791
678304,-1183,435,3936,8471,2627,-7347,1745152135077759791
678496,-1179,411,3894,8548,2679,-7313,1745152135077759791
678688,-1182,386,3850,8623,2721,-7267,1745152135130843681
678880,-1187,362,3801,8626,2787,-7232,1745152135130843681
679072,-1191,344,3750,8644,2850,-7204,1745152135130843681
679264,-1194,331,3692,8611,2914,-7234,1745152135130843681
679456,-1197,319,3638,8615,2980,-7216,1745152135130843681
679648,-1198,311,3584,8602,3101,-7267,1745152135130843681
679840,-1198,303,3534,8617,3192,-7361,1745152135130843681
680032,-1197,289,3483,8639,3319,-7396,1745152135130843681
680224,-1188,272,3431,8655,3418,-7479,1745152135130843681
680416,-1180,254,3376,8720,3437,-7533,1745152135130843681
680608,-1190,216,3315,8739,3312,-7348,1745152135130843681
680800,-1197,182,3251,8662,3307,-7213,1745152135130843681
680992,-1208,150,3181,8547,3313,-7070,1745152135197790101
681184,-1229,103,3097,8385,3312,-6898,1745152135197790101
681376,-1259,58,3004,8192,3323,-6739,1745152135197790101
681568,-1292,22,2905,8008,3350,-6583,1745152135197790101
681760,-1329,-6,2806,7748,3374,-6476,1745152135197790101
681952,-1370,-33,2717,7548,3373,-6440,1745152135197790101
682144,-1409,-66,2628,7416,3327,-6380,1745152135197790101
682336,-1442,-101,2535,7286,3208,-6283,1745152135197790101
682528,-1471,-128,2432,7121,3118,-6148,1745152135197790101
682720,-1490,-141,2329,6877,3180,-5962,1745152135197790101
682912,-1499,-167,2243,6639,3317,-5743,1745152135197790101
683104,-1501,-212,2167,6478,3352,-5736,1745152135197790101
683296,-1502,-247,2080,6297,3331,-5676,1745152135252679548
683680,-1466,-300,1913,5996,3122,-5511,1745152135252679548
683872,-1434,-318,1835,5815,3045,-5467,1745152135252679548
684064,-1392,-334,1757,5617,3071,-5413,1745152135252679548
684256,-1342,-343,1690,5404,3153,-5376,1745152135252679548
684448,-1278,-343,1630,5175,3300,-5365,1745152135252679548
684640,-1197,-333,1565,5001,3469,-5326,1745152135252679548
684832,-1100,-319,1489,4903,3583,-5329,1745152135252679548
685024,-991,-304,1419,4813,3683,-5360,1745152135252679548
685216,-872,-289,1366,4720,3733,-5428,1745152135252679548
685408,-749,-271,1320,4653,3743,-5554,1745152135252679548
685600,-637,-257,1270,4601,3672,-5694,1745152135252679548
685792,-544,-243,1222,4567,3402,-5787,1745152135314513514
685984,-462,-236,1186,4495,3028,-5806,1745152135314513514
686176,-382,-233,1160,4412,2705,-5844,1745152135314513514
686368,-317,-230,1139,4319,2504,-5909,1745152135314513514
686560,-285,-216,1116,4209,2467,-5968,1745152135314513514
686752,-278,-189,1090,4110,2536,-6026,1745152135314513514
686944,-277,-155,1055,4046,2684,-6038,1745152135314513514
687136,-267,-121,1017,4034,2850,-6078,1745152135314513514
687328,-253,-95,979,4109,3025,-6137,1745152135314513514
687520,-236,-78,944,4237,3091,-6156,1745152135314513514
687712,-225,-70,912,4377,3096,-6195,1745152135314513514
687904,-214,-67,878,4500,3069,-6204,1745152135314513514
688096,-206,-73,840,4555,3089,-6218,1745152135375003222
688288,-198,-88,795,4577,3054,-6216,1745152135375003222
688480,-190,-110,742,4555,2958,-6207,1745152135375003222
688672,-182,-131,689,4451,2867,-6206,1745152135375003222
688864,-176,-144,639,4315,2759,-6223,1745152135375003222
689056,-180,-149,590,4199,2609,-6222,1745152135375003222
689248,-187,-151,543,4091,2397,-6178,1745152135375003222
689440,-193,-150,502,3984,2174,-6181,1745152135375003222
689632,-201,-146,462,3937,1996,-6204,1745152135375003222
689824,-224,-140,420,3904,1841,-6230,1745152135375003222
690016,-256,-132,381,3862,1775,-6204,1745152135375003222
690208,-291,-122,345,3847,1787,-6197,1745152135375003222
690400,-323,-111,310,3820,1802,-6118,1745152135431903744
690592,-341,-103,281,3831,1807,-6071,1745152135431903744
690784,-340,-96,256,3798,1795,-6083,1745152135431903744
690976,-324,-87,237,3763,1860,-6129,1745152135431903744
691168,-303,-75,219,3761,1951,-6202,1745152135431903744
691360,-284,-61,197,3711,2020,-6276,1745152135431903744
691552,-259,-43,170,3655,2090,-6291,1745152135431903744
691744,-221,-35,158,3643,2124,-6322,1745152135431903744
691936,-174,-26,156,3648,2069,-6385,1745152135431903744
692128,-128,-18,147,3675,1988,-6471,1745152135431903744
692320,-94,-9,129,3696,1879,-6587,1745152135431903744
692512,-71,-5,110,3725,1721,-6623,1745152135431903744
692704,-50,-2,100,3733,1586,-6581,1745152135494097446
692896,-25,0,97,3728,1510,-6610,1745152135494097446
693088,-6,2,89,3692,1456,-6605,1745152135494097446
693280,5,6,75,3638,1443,-6602,1745152135494097446
693472,12,13,59,3565,1446,-6618,1745152135494097446
693664,15,22,44,3558,1428,-6653,1745152135494097446
693856,17,32,27,3609,1352,-6695,1745152135494097446
694048,24,39,8,3642,1273,-6730,1745152135494097446
694240,37,44,-8,3677,1234,-6755,1745152135494097446
694432,53,45,-19,3703,1264,-6805,1745152135494097446
694624,69,46,-29,3702,1317,-6846,1745152135494097446
694816,87,47,-43,3704,1372,-6901,1745152135494097446
695008,103,50,-66,3681,1392,-6959,1745152135550973177
695200,115,56,-90,3659,1339,-7006,1745152135550973177
695392,124,59,-105,3648,1232,-7044,1745152135550973177
695584,129,58,-107,3671,1039,-7052,1745152135550973177
695776,129,55,-101,3699,780,-7038,1745152135550973177
695968,126,54,-93,3699,637,-7049,1745152135550973177
696160,115,59,-89,3654,584,-7095,1745152135550973177
696352,90,67,-91,3604,591,-7112,1745152135550973177
696544,59,78,-95,3557,631,-7080,1745152135550973177
696736,32,88,-96,3542,663,-7070,1745152135550973177
696928,14,97,-94,3571,658,-7098,1745152135550973177
697120,0,106,-91,3604,611,-7169,1745152135550973177
697312,-10,116,-89,3646,597,-7270,1745152135610753047
697504,-15,131,-85,3701,603,-7282,1745152135610753047
697696,-13,145,-82,3727,741,-7291,1745152135610753047
697888,-2,156,-83,3790,938,-7279,1745152135610753047
698080,16,160,-90,3801,1051,-7309,1745152135610753047
698272,41,158,-103,3843,1045,-7346,1745152135610753047
698464,66,154,-121,3848,866,-7395,1745152135610753047
698656,89,153,-138,3857,671,-7456,1745152135610753047
698848,110,151,-148,3832,489,-7507,1745152135610753047
699040,120,147,-159,3828,356,-7552,1745152135610753047
699232,119,145,-171,3838,282,-7548,1745152135610753047
699424,111,144,-188,3846,261,-7513,1745152135610753047
699616,98,143,-207,3865,202,-7455,1745152135668659133
699808,85,137,-223,3900,93,-7395,1745152135668659133
700000,75,125,-231,3903,-63,-7319,1745152135668659133
700192,70,113,-231,3913,-205,-7322,1745152135668659133
700384,66,105,-226,3864,-191,-7382,1745152135668659133
700576,56,106,-222,3808,-48,-7421,1745152135668659133
700768,48,114,-221,3785,155,-7444,1745152135668659133
700960,48,123,-218,3796,410,-7398,1745152135668659133
701152,61,131,-210,3877,636,-7359,1745152135668659133
701344,83,136,-199,3968,760,-7350,1745152135668659133
701536,112,137,-185,4053,821,-7359,1745152135668659133
701728,146,132,-170,4161,808,-7321,1745152135668659133
701920,182,120,-158,4239,728,-7312,1745152135791178170
702112,206,107,-156,4307,619,-7334,1745152135791178170
702304,217,95,-165,4317,510,-7351,1745152135791178170
702496,219,84,-182,4294,413,-7338,1745152135791178170
702688,212,73,-203,4239,276,-7308,1745152135791178170
702880,198,63,-224,4199,111,-7246,1745152135791178170
703072,184,47,-243,4159,-41,-7142,1745152135791178170
703264,174,35,-259,4103,-89,-7079,1745152135791178170
703456,158,32,-277,4045,-4,-7066,1745152135791178170
703648,131,37,-297,4032,147,-6995,1745152135791178170
703840,102,45,-319,4041,344,-6871,1745152135791178170
704032,80,52,-340,4112,545,-6757,1745152135791178170
704224,67,57,-360,4190,721,-6662,1745152135799656530
704416,61,57,-378,4286,894,-6626,1745152135799656530
704608,61,50,-394,4359,991,-6577,1745152135799656530
704800,72,41,-408,4399,1135,-6541,1745152135799656530
704992,96,37,-419,4368,1356,-6482,1745152135799656530
705184,128,37,-430,4347,1607,-6395,1745152135799656530
705376,165,41,-446,4344,1839,-6326,1745152135799656530
705568,204,45,-467,4376,1987,-6275,1745152135799656530
705760,245,49,-493,4442,2094,-6262,1745152135799656530
705952,284,53,-524,4512,2175,-6266,1745152135799656530
706144,314,57,-559,4573,2271,-6272,1745152135799656530
706336,335,63,-598,4635,2398,-6257,1745152135799656530
706528,348,73,-645,4693,2539,-6246,1745152135846311625
706720,364,90,-700,4731,2651,-6238,1745152135846311625
706912,394,111,-767,4786,2714,-6228,1745152135846311625
707104,436,129,-844,4848,2717,-6217,1745152135846311625
707296,491,140,-926,4935,2781,-6177,1745152135846311625
707488,546,151,-1015,5019,2854,-6063,1745152135846311625
707680,591,160,-1122,5162,2879,-6046,1745152135846311625
707872,629,150,-1241,5300,2792,-6078,1745152135846311625
708064,667,115,-1352,5462,2610,-6101,1745152135846311625
708256,704,66,-1454,5581,2511,-6098,1745152135846311625
708448,729,18,-1557,5629,2484,-6076,1745152135846311625
708640,743,-29,-1669,5621,2616,-6018,1745152135846311625
708832,757,-70,-1783,5540,2837,-5940,1745152135900548577
709024,779,-101,-1894,5445,3148,-5941,1745152135900548577
709216,806,-122,-1997,5408,3374,-5991,1745152135900548577
709408,836,-145,-2091,5431,3463,-6084,1745152135900548577
709600,871,-173,-2170,5493,3431,-6212,1745152135900548577
709792,913,-201,-2236,5566,3390,-6335,1745152135900548577
709984,946,-227,-2296,5602,3398,-6418,1745152135900548577
710176,964,-245,-2355,5602,3419,-6523,1745152135900548577
710368,966,-263,-2419,5632,3389,-6610,1745152135900548577
710560,961,-284,-2479,5646,3359,-6576,1745152135900548577
710752,957,-295,-2535,5611,3358,-6547,1745152135900548577
710944,953,-300,-2589,5534,3315,-6530,1745152135900548577
711136,955,-303,-2635,5472,3227,-6438,1745152135961138024
711328,962,-304,-2677,5431,3173,-6458,1745152135961138024
711520,964,-305,-2720,5449,3049,-6539,1745152135961138024
711712,956,-309,-2765,5490,2935,-6635,1745152135961138024
711904,946,-318,-2804,5549,2816,-6654,1745152135961138024
712096,937,-328,-2840,5594,2777,-6666,1745152135961138024
712288,923,-339,-2870,5615,2789,-6712,1745152135961138024
712480,906,-347,-2896,5604,2835,-6738,1745152135961138024
712672,892,-350,-2921,5545,2956,-6811,1745152135961138024
712864,886,-347,-2943,5497,3153,-6886,1745152135961138024
713056,895,-340,-2964,5455,3397,-7019,1745152135961138024
713248,914,-319,-2979,5424,3669,-7166,1745152135961138024
713440,939,-310,-2987,5486,3765,-7238,1745152136019923945
713632,974,-316,-2993,5626,3702,-7365,1745152136019923945
713824,1005,-329,-3008,5723,3508,-7500,1745152136019923945
714016,1024,-348,-3024,5749,3334,-7502,1745152136019923945
714208,1037,-361,-3039,5719,3187,-7437,1745152136019923945
714400,1043,-376,-3055,5652,3054,-7361,1745152136019923945
714592,1038,-398,-3076,5639,2897,-7303,1745152136019923945
714784,1023,-426,-3107,5651,2768,-7219,1745152136019923945
714976,1007,-461,-3148,5673,2654,-7176,1745152136019923945
715168,993,-504,-3193,5728,2571,-7234,1745152136019923945
715360,976,-564,-3242,5801,2483,-7295,1745152136019923945
715552,958,-633,-3294,5853,2449,-7360,1745152136019923945
715744,946,-693,-3344,5813,2485,-7542,1745152136076329419
715936,949,-741,-3394,5666,2635,-7764,1745152136076329419
716128,956,-776,-3447,5500,2845,-7957,1745152136076329419
716320,966,-799,-3498,5347,3014,-8110,1745152136076329419
716512,986,-817,-3543,5174,3111,-8235,1745152136076329419
716704,1017,-828,-3571,5034,3168,-8344,1745152136076329419
716896,1049,-833,-3583,4948,3129,-8431,1745152136076329419
717088,1074,-831,-3589,4898,3054,-8454,1745152136076329419
717280,1085,-824,-3586,4862,2874,-8445,1745152136076329419
717472,1082,-819,-3575,4859,2618,-8341,1745152136076329419
717664,1061,-820,-3560,4823,2282,-8249,1745152136076329419
717856,1030,-826,-3538,4731,1889,-8200,1745152136076329419
718048,985,-836,-3513,4642,1493,-8195,1745152136154830890
718240,925,-850,-3489,4527,1136,-8191,1745152136154830890
718432,856,-862,-3461,4394,871,-8121,1745152136154830890
718624,789,-868,-3434,4226,733,-8067,1745152136154830890
718816,729,-873,-3411,4065,710,-8059,1745152136154830890
719008,674,-876,-3392,3922,780,-8131,1745152136154830890
719200,627,-873,-3373,3790,892,-8181,1745152136154830890
719392,595,-864,-3349,3679,1035,-8267,1745152136154830890
719584,584,-851,-3314,3577,1208,-8309,1745152136154830890
719776,587,-842,-3272,3561,1335,-8306,1745152136154830890
719968,589,-845,-3229,3649,1331,-8304,1745152136154830890
720160,587,-865,-3187,3763,1205,-8182,1745152136154830890
720352,584,-890,-3146,3740,962,-8011,1745152136194287925
720544,582,-909,-3107,3564,723,-7879,1745152136194287925
720736,581,-922,-3072,3311,486,-7798,1745152136194287925
720928,575,-924,-3035,3039,295,-7797,1745152136194287925
721120,558,-917,-2993,2836,111,-7805,1745152136194287925
721312,532,-906,-2948,2732,-34,-7838,1745152136194287925
721504,497,-889,-2900,2664,-101,-7933,1745152136194287925
721696,457,-867,-2850,2610,-107,-8010,1745152136194287925
721888,411,-847,-2796,2589,-76,-8076,1745152136194287925
722080,361,-828,-2743,2644,-80,-8101,1745152136194287925
722272,311,-822,-2692,2757,-98,-8123,1745152136194287925
722464,258,-830,-2636,2872,-170,-8047,1745152136194287925
722656,204,-838,-2581,2854,-218,-7918,1745152136253548009
722848,166,-839,-2529,2703,-128,-7865,1745152136253548009
723040,148,-832,-2484,2524,18,-7812,1745152136253548009
723232,142,-822,-2445,2422,133,-7759,1745152136253548009
723424,138,-823,-2405,2472,129,-7802,1745152136253548009
723616,128,-848,-2353,2639,8,-7770,1745152136253548009
723808,111,-885,-2296,2676,-195,-7461,1745152136253548009
724000,105,-901,-2247,2509,-234,-7307,1745152136253548009
724192,113,-915,-2217,2288,-289,-7334,1745152136253548009
724384,124,-927,-2200,2070,-387,-7372,1745152136253548009
724576,139,-928,-2176,1866,-450,-7477,1745152136253548009
724768,162,-913,-2140,1704,-469,-7640,1745152136253548009
724960,190,-891,-2095,1605,-381,-7693,1745152136312333982
725152,226,-871,-2017,1557,-292,-7725,1745152136312333982
725344,247,-856,-1960,1411,-266,-7841,1745152136312333982
725536,260,-829,-1918,1286,-324,-7707,1745152136312333982
725728,275,-791,-1855,1178,-460,-7625,1745152136312333982
725920,279,-752,-1776,1101,-662,-7594,1745152136312333982
726112,262,-710,-1700,1052,-886,-7604,1745152136312333982
726304,229,-662,-1628,996,-1043,-7593,1745152136312333982
726496,191,-613,-1551,971,-1112,-7608,1745152136312333982
726688,150,-565,-1472,951,-1053,-7714,1745152136312333982
726880,110,-514,-1393,994,-897,-7824,1745152136312333982
727072,72,-465,-1310,1083,-724,-7887,1745152136312333982
727264,38,-420,-1224,1209,-520,-7867,1745152136365076469
727456,21,-383,-1136,1279,-272,-7832,1745152136365076469
727648,31,-342,-1059,1236,-46,-7774,1745152136365076469
727840,66,-300,-993,1222,169,-7816,1745152136365076469
728032,109,-260,-931,1253,277,-7855,1745152136365076469
728224,148,-222,-867,1331,231,-7919,1745152136365076469
728416,180,-189,-800,1385,128,-7978,1745152136365076469
728608,204,-157,-734,1337,-29,-7997,1745152136365076469
728800,218,-121,-674,1234,-168,-8005,1745152136365076469
728992,226,-86,-616,1100,-277,-7996,1745152136365076469
729184,221,-44,-558,948,-434,-7820,1745152136365076469
729376,200,-4,-512,845,-602,-7647,1745152136365076469
729568,210,48,-471,770,-517,-7856,1745152136428717554
729760,226,110,-410,765,-360,-7971,1745152136428717554
729952,208,178,-340,720,-381,-8052,1745152136428717554
730144,168,244,-269,587,-712,-7838,1745152136428717554
730336,141,313,-200,417,-939,-7509,1745152136428717554
730528,125,393,-151,305,-836,-7341,1745152136428717554
730720,121,475,-122,393,-688,-7533,1745152136428717554
730912,132,539,-29,978,-763,-7540,1745152136428717554
731104,199,555,110,1776,-627,-7779,1745152136428717554
731296,294,513,208,2140,-245,-7466,1745152136428717554
731488,380,482,238,2066,79,-7172,1745152136428717554
731680,452,490,223,1790,257,-6967,1745152136428717554
731872,525,513,209,1592,295,-6910,1745152136508314275
732064,591,531,217,1639,250,-7138,1745152136508314275
732256,639,535,231,1790,87,-7509,1745152136508314275
732448,675,524,260,1970,-245,-7423,1745152136508314275
732640,696,496,279,1897,-476,-6857,1745152136508314275
732832,670,473,260,1629,-657,-6592,1745152136508314275
733024,580,457,228,1423,-958,-6538,1745152136508314275
733216,476,449,226,1455,-1268,-6641,1745152136508314275
733408,388,446,266,1614,-1363,-6873,1745152136508314275
733600,314,435,331,1819,-1245,-7071,1745152136508314275
733792,273,420,390,1966,-1043,-7272,1745152136508314275
733984,287,412,422,2009,-728,-7565,1745152136508314275
734176,348,416,419,2017,-363,-7855,1745152136543571453
734368,430,432,392,2011,-85,-8109,1745152136543571453
734560,509,450,360,2020,12,-8309,1745152136543571453
734752,567,460,344,2120,-88,-8407,1745152136543571453
734944,596,462,343,2233,-294,-8379,1745152136543571453
735136,589,456,351,2395,-547,-8248,1745152136543571453
735328,542,441,353,2477,-815,-7982,1745152136543571453
735520,473,426,352,2443,-1023,-7699,1745152136543571453
735712,397,422,348,2314,-1155,-7402,1745152136543571453
735904,329,429,341,2116,-1186,-7119,1745152136543571453
736096,277,441,330,1918,-1150,-6897,1745152136543571453
736288,239,460,317,1805,-1064,-6782,1745152136543571453
736480,208,477,304,1756,-1000,-6644,1745152136608520547
736672,185,497,292,1763,-959,-6554,1745152136608520547
736864,164,517,284,1818,-961,-6518,1745152136608520547
737056,149,533,283,1894,-980,-6523,1745152136608520547
737248,138,548,286,1986,-961,-6602,1745152136608520547
737440,126,563,285,2044,-895,-6751,1745152136608520547
737632,104,579,280,2041,-764,-6956,1745152136608520547
737824,78,597,281,2063,-615,-7034,1745152136608520547
738016,53,613,293,2093,-484,-7070,1745152136608520547
738208,35,628,320,2122,-400,-7097,1745152136608520547
738400,21,639,351,2172,-384,-7091,1745152136608520547
738592,3,655,376,2221,-364,-7108,1745152136608520547
738784,-13,670,402,2316,-319,-7216,1745152136662322400
738976,-8,664,427,2455,-229,-7341,1745152136662322400
739168,36,631,442,2611,-12,-7415,1745152136662322400
739360,116,596,443,2748,295,-7414,1745152136662322400
739552,214,564,435,2921,565,-7436,1745152136662322400
739744,301,514,415,3112,663,-7644,1745152136662322400
739936,364,424,380,3358,515,-8080,1745152136662322400
740128,396,282,326,3611,80,-8492,1745152136662322400
740320,394,115,260,3772,-447,-8940,1745152136662322400
740512,351,-54,202,3798,-959,-9279,1745152136662322400
740704,271,-201,163,3571,-1227,-9439,1745152136662322400
740896,167,-305,152,3192,-1239,-9483,1745152136662322400
741088,61,-347,150,2584,-847,-9267,1745152136721182174
741280,-23,-333,143,1950,-190,-8909,1745152136721182174
741472,-73,-269,129,1409,553,-8579,1745152136721182174
741664,-92,-175,109,1180,1110,-8332,1745152136721182174
741856,-88,-83,90,1256,1352,-8239,1745152136721182174
742048,-81,-10,73,1556,1339,-8302,1745152136721182174
742240,-83,28,58,1922,1147,-8453,1745152136721182174
742432,-89,33,42,2223,925,-8574,1745152136721182174
742624,-80,13,27,2355,789,-8647,1745152136721182174
742816,-44,-11,15,2265,791,-8686,1745152136721182174
743008,10,-29,-1,1971,817,-8709,1745152136721182174
743200,67,-41,-25,1539,821,-8576,1745152136721182174
743392,99,-34,-44,1213,738,-8440,1745152136777419525
743584,99,-21,-46,1132,529,-8287,1745152136777419525
743776,87,-10,-28,1282,295,-8155,1745152136777419525
743968,58,-1,-9,1481,18,-8113,1745152136777419525
744160,16,1,-5,1647,-149,-8087,1745152136777419525
744352,-23,0,-15,1700,-198,-7971,1745152136777419525
744544,-43,6,-26,1588,-191,-7901,1745152136777419525
744736,-41,21,-36,1438,-154,-7800,1745152136777419525
744928,-32,37,-45,1177,-119,-8255,1745152136777419525
745120,-33,40,-41,820,-287,-8210,1745152136777419525
745312,-45,49,-30,608,-416,-7967,1745152136777419525
745504,-77,55,-16,770,-380,-7940,1745152136777419525
745696,-74,29,-3,1198,-117,-7924,1745152136837691423
745888,-35,1,-12,1538,266,-7914,1745152136837691423
746080,-14,-11,-50,1613,560,-7925,1745152136837691423
746272,-38,-14,-86,1511,656,-7850,1745152136837691423
746464,-58,-21,-92,1327,570,-7694,1745152136837691423
746656,-47,-28,-78,1157,407,-7651,1745152136837691423
746848,-18,-36,-72,1016,339,-7726,1745152136837691423
747040,6,-40,-80,915,353,-7755,1745152136837691423
747232,18,-41,-86,884,387,-7790,1745152136837691423
747424,23,-40,-85,909,420,-7850,1745152136837691423
747616,25,-39,-78,942,392,-7913,1745152136837691423
747808,21,-37,-71,987,341,-8017,1745152136837691423
748000,7,-32,-71,990,226,-8131,1745152136895877245
748192,-12,-26,-73,995,149,-8220,1745152136895877245
748384,-27,-22,-69,996,124,-8270,1745152136895877245
748576,-38,-21,-59,1004,184,-8341,1745152136895877245
748768,-49,-17,-49,1031,337,-8387,1745152136895877245
748960,-60,-13,-43,1031,446,-8371,1745152136895877245
749152,-71,-10,-35,1026,498,-8342,1745152136895877245
749344,-74,-6,-25,985,488,-8272,1745152136895877245
749536,-70,-4,-15,953,451,-8210,1745152136895877245
749728,-65,1,-8,958,441,-8138,1745152136895877245
749920,-71,4,-6,973,413,-8065,1745152136895877245
750112,-78,8,-7,990,405,-8013,1745152136895877245
750304,-80,15,-6,1018,408,-7965,1745152137016832390
750496,-73,20,-5,1038,417,-7980,1745152137016832390
750688,-65,22,-5,1097,407,-8004,1745152137016832390
750880,-57,21,-3,1145,342,-8056,1745152137016832390
751072,-49,19,0,1200,262,-8078,1745152137016832390
751264,-44,16,3,1261,205,-8089,1745152137016832390
751456,-45,16,4,1278,136,-8134,1745152137016832390
751648,-52,16,2,1240,70,-8181,1745152137016832390
751840,-62,12,2,1129,21,-8164,1745152137016832390
752032,-69,10,7,1049,13,-8126,1745152137016832390
752224,-71,14,12,986,73,-8077,1745152137016832390
752416,-73,22,16,1010,192,-8031,1745152137016832390
752608,-70,33,18,1118,318,-8002,1745152137025607258
752800,-65,39,15,1212,376,-7978,1745152137025607258
752992,-58,39,16,1307,404,-7950,1745152137025607258
753184,-51,32,18,1363,401,-7965,1745152137025607258
753376,-41,20,17,1357,409,-7982,1745152137025607258
753568,-32,8,16,1305,421,-8013,1745152137025607258
753760,-28,3,13,1200,419,-8014,1745152137025607258
753952,-28,7,11,1123,413,-8022,1745152137025607258
754144,-25,19,13,1100,408,-8078,1745152137025607258
754336,-21,30,14,1152,430,-8148,1745152137025607258
754528,-20,37,16,1230,455,-8217,1745152137025607258
754720,-15,39,19,1306,469,-8241,1745152137025607258
754912,-4,35,20,1312,436,-8236,1745152137077407983
755104,7,31,16,1343,383,-8231,1745152137077407983
755296,10,27,10,1288,297,-8195,1745152137077407983
755488,6,24,7,1218,211,-8162,1745152137077407983
755680,-5,24,9,1139,146,-8130,1745152137077407983
755872,-20,30,13,1108,114,-8088,1745152137077407983
756064,-33,38,19,1104,111,-8045,1745152137077407983
756256,-40,42,22,1111,141,-8016,1745152137077407983
756448,-43,42,21,1137,188,-8015,1745152137077407983
756640,-48,40,16,1164,231,-7998,1745152137077407983
756832,-50,40,14,1166,285,-7978,1745152137077407983
757024,-46,38,16,1159,344,-7915,1745152137077407983
757216,-40,34,17,1161,382,-7863,1745152137127801377
757408,-31,29,11,1154,423,-7834,1745152137127801377
757600,-19,24,4,1130,415,-7805,1745152137127801377
757792,-10,19,-2,1106,404,-7865,1745152137127801377
757984,-4,14,-5,1080,372,-7913,1745152137127801377
758176,0,9,-5,1063,317,-7950,1745152137127801377
758368,3,8,-4,1052,275,-8025,1745152137127801377
758560,1,9,-1,1024,286,-8110,1745152137127801377
758752,16,-33,20,126,-680,-3883,1745152137127801377
758944,-667,44,24,-2717,-13980,-10167,1745152137127801377
759136,-1213,531,-152,1731,-3066,-9747,1745152137127801377
759328,-438,-279,120,5484,5071,-5183,1745152137127801377
759520,-114,-237,214,4248,4386,-6430,1745152137188807017
759712,-184,-82,-45,1141,3380,-9847,1745152137188807017
759904,-395,-190,-241,350,2302,-7612,1745152137188807017
760096,-190,-193,-228,207,1831,-7526,1745152137188807017
760288,51,-200,-103,128,1556,-7502,1745152137188807017
760480,186,-166,-41,517,2362,-8513,1745152137188807017
760672,129,-87,-47,829,2441,-7911,1745152137188807017
760864,174,-48,-79,992,2072,-8071,1745152137188807017
761056,223,-43,-101,1117,1716,-8106,1745152137188807017
761248,279,-60,-99,1314,1379,-8104,1745152137188807017
761440,325,-70,-95,1262,1182,-8125,1745152137188807017
761632,358,-72,-82,999,974,-8168,1745152137188807017
761824,372,-73,-53,821,784,-8202,1745152137247042735
762016,376,-63,-31,741,664,-8294,1745152137247042735
762208,375,-51,-10,749,595,-8388,1745152137247042735
762400,373,-43,14,870,463,-8438,1745152137247042735
762592,368,-44,32,1044,273,-8460,1745152137247042735
762784,351,-54,41,1209,95,-8445,1745152137247042735
762976,328,-70,40,1246,59,-8390,1745152137247042735
763168,309,-86,37,1269,39,-8333,1745152137247042735
763360,282,-108,31,1344,-119,-8313,1745152137247042735
763552,245,-129,23,1347,-336,-8231,1745152137247042735
763744,212,-144,17,1219,-385,-8157,1745152137247042735
763936,184,-154,13,1194,-489,-8069,1745152137247042735
764128,147,-169,4,1229,-618,-8013,1745152137305968759
764320,106,-174,-6,1148,-595,-7981,1745152137305968759
764512,66,-174,-12,982,-541,-7938,1745152137305968759
764704,29,-158,-17,757,-446,-7906,1745152137305968759
764896,-5,-134,-22,570,-388,-7875,1745152137305968759
765088,-36,-109,-23,480,-406,-7875,1745152137305968759
765280,-58,-80,-23,475,-417,-7907,1745152137305968759
765472,-80,-46,-22,486,-459,-7954,1745152137305968759
765664,-105,-10,-18,566,-406,-8009,1745152137305968759
765856,-131,24,-12,634,-336,-8078,1745152137305968759
766048,-152,55,-7,674,-217,-8207,1745152137305968759
766240,-166,85,-8,702,-55,-8302,1745152137305968759
800992,-65,-25,4,658,686,-9367,1745152138245679134
801184,-65,-18,5,1895,2185,-7317,1745152138245679134
801376,114,-84,30,920,839,-8173,1745152138245679134
801568,118,-14,32,712,863,-8598,1745152138245679134
801760,143,-31,42,643,782,-7992,1745152138245679134
801952,173,15,61,642,692,-8045,1745152138245679134
802144,166,43,66,550,406,-7958,1745152138245679134
802336,160,86,55,504,4,-7488,1745152138245679134
802528,203,131,52,338,329,-7359,1745152138245679134
802720,193,136,75,1032,-184,-7664,1745152138245679134
802912,133,120,68,1520,-587,-7505,1745152138245679134
803104,55,90,64,1710,-671,-7491,1745152138245679134
803296,8,56,72,1691,-499,-7493,1745152138305999989
803488,-13,23,72,1524,-144,-7473,1745152138305999989
803680,-18,-4,53,1267,269,-7531,1745152138305999989
803872,-6,-17,27,1057,512,-7529,1745152138305999989
804064,23,-19,6,984,645,-7571,1745152138305999989
804256,57,-21,-5,1036,602,-7671,1745152138305999989
804448,79,-25,-12,1147,544,-7787,1745152138305999989
804640,84,-35,-14,1231,465,-7895,1745152138305999989
804832,75,-43,-15,1238,430,-8011,1745152138305999989
805024,57,-52,-16,1190,440,-8133,1745152138305999989
805216,36,-55,-17,1060,472,-8230,1745152138305999989
805408,13,-52,-16,963,494,-8305,1745152138305999989
805600,-10,-47,-13,912,500,-8353,1745152138359060962
805792,-29,-39,-8,920,518,-8388,1745152138359060962
805984,-45,-30,-4,950,538,-8387,1745152138359060962
806176,-63,-25,-2,984,525,-8374,1745152138359060962
806368,-79,-21,0,1012,494,-8337,1745152138359060962
806560,-97,-19,0,1025,496,-8270,1745152138359060962
806752,-110,-19,1,1036,496,-8188,1745152138359060962
806944,-118,-18,1,1047,505,-8114,1745152138359060962
807136,-123,-16,0,1063,516,-8051,1745152138359060962
807328,-126,-14,-4,1088,520,-8054,1745152138359060962
807520,-125,-13,-7,1107,485,-8043,1745152138359060962
807712,-121,-20,-9,1189,477,-8040,1745152138359060962
807904,-118,-35,-11,1299,428,-8071,1745152138419406609
808096,-121,-54,-13,1394,395,-8045,1745152138419406609
808288,-124,-74,-14,1416,373,-8094,1745152138419406609
808480,-133,-96,-18,1450,378,-8249,1745152138419406609
808672,-152,-121,-21,1515,375,-8418,1745152138419406609
808864,-187,-143,-26,1597,387,-8600,1745152138419406609
809056,-238,-162,-33,1695,399,-8797,1745152138419406609
809248,-296,-188,-38,1832,407,-8867,1745152138419406609
809440,-347,-216,-40,1967,475,-8801,1745152138419406609
809632,-385,-245,-38,2098,554,-8682,1745152138419406609
809824,-416,-271,-38,2224,626,-8388,1745152138419406609
810016,-448,-276,-69,2206,686,-8281,1745152138419406609
810208,-491,-255,-130,2059,802,-8617,1745152138478332894
810400,-524,-208,-193,1876,953,-8829,1745152138478332894
810592,-527,-163,-224,1769,1026,-8287,1745152138478332894
810784,-510,-134,-229,1772,1097,-7974,1745152138478332894
810976,-484,-117,-234,1596,1172,-7440,1745152138478332894
811168,-419,-42,-256,1152,1387,-7824,1745152138478332894
811360,-354,27,-263,1182,1355,-8054,1745152138478332894
811552,-327,55,-251,1666,1017,-8021,1745152138478332894
811744,-307,23,-225,2194,862,-7932,1745152138478332894
811936,-271,-50,-180,2605,983,-7340,1745152138478332894
812128,-237,-81,-150,2825,1137,-6742,1745152138478332894
812320,-206,-107,-172,2987,1185,-6973,1745152138478332894
812512,-164,-163,-221,2924,1121,-6859,1745152138534937741
812704,-109,-186,-257,2641,973,-6586,1745152138534937741
812896,-82,-142,-280,2352,872,-6495,1745152138534937741
813088,-72,-62,-324,2199,906,-6823,1745152138534937741
813280,11,-76,-384,2425,1003,-7091,1745152138534937741
813472,125,-136,-438,2925,1047,-6922,1745152138534937741
813664,222,-164,-479,3438,1020,-7234,1745152138534937741
813856,317,-226,-523,3832,915,-7701,1745152138534937741
814048,439,-334,-578,4041,756,-7606,1745152138534937741
814240,561,-425,-636,3910,404,-7264,1745152138534937741
814432,633,-471,-681,3578,-94,-7128,1745152138534937741
814624,614,-493,-710,3230,-679,-7000,1745152138534937741
814816,494,-518,-723,2936,-1170,-6992,1745152138615443308
815008,280,-525,-723,2757,-1347,-6978,1745152138615443308
815200,6,-493,-710,2860,-1283,-6730,1745152138615443308
815392,-271,-492,-704,3182,-984,-6544,1745152138615443308
815584,-490,-564,-715,3568,-608,-6305,1745152138615443308
815776,-640,-602,-710,4103,-215,-5848,1745152138615443308
815968,-721,-670,-737,4453,257,-6338,1745152138615443308
816160,-723,-829,-814,4337,809,-6542,1745152138615443308
816352,-680,-941,-887,3973,1251,-6536,1745152138615443308
816544,-581,-996,-960,3496,1483,-6660,1745152138615443308
816736,-419,-1031,-966,3261,1050,-6487,1745152138615443308
816928,-406,-930,-811,3661,163,-6688,1745152138615443308
817120,-439,-913,-772,3599,-136,-7203,1745152138657453757
817312,-335,-1027,-817,2744,-135,-6519,1745152138657453757
817504,-256,-1020,-847,2117,-472,-6425,1745152138657453757
817696,-225,-938,-858,1820,-896,-6830,1745152138657453757
817888,-258,-824,-829,1672,-1365,-7024,1745152138657453757
818080,-346,-693,-752,1413,-1791,-6404,1745152138657453757
818272,-397,-666,-685,1452,-2282,-6248,1745152138657453757
818464,-379,-592,-654,1340,-2158,-6342,1745152138657453757
818656,-385,-453,-629,1121,-1924,-6245,1745152138657453757
818848,-258,-193,-562,919,-1269,-7247,1745152138657453757
819040,-101,-43,-455,548,-610,-7689,1745152138657453757
819232,-88,35,-378,-189,-1784,-7331,1745152138657453757
819424,-103,173,-377,-1196,-3004,-6575,1745152138713815222
819616,-172,309,-311,-1569,-3603,-6076,1745152138713815222
819808,-325,401,-165,-923,-3903,-7066,1745152138713815222
820000,-492,450,2,69,-3709,-7352,1745152138713815222
820192,-516,485,244,908,-2747,-7739,1745152138713815222
820384,-438,438,487,975,-1140,-8554,1745152138713815222
820576,-287,337,513,84,510,-9013,1745152138713815222
820768,-99,367,306,-1538,2506,-9274,1745152138713815222
820960,103,466,129,-2089,3120,-8499,1745152138713815222
821152,249,509,39,-2044,3561,-6893,1745152138713815222
821344,371,339,80,58,2500,-7432,1745152138713815222
821536,467,76,119,2519,1086,-7771,1745152138713815222
821728,463,-329,271,4666,-229,-6949,1745152138771964013
821920,330,-771,506,5255,-1178,-6384,1745152138771964013
822112,132,-1024,729,4317,-1439,-6946,1745152138771964013
822304,-147,-1183,931,3068,-2470,-7603,1745152138771964013
822496,-377,-1314,1052,2141,-3266,-7337,1745152138771964013
822688,-573,-1355,1245,1332,-4037,-6251,1745152138771964013
822880,-768,-1170,1505,-247,-4624,-6657,1745152138771964013
823072,-1114,-779,1789,-2178,-6009,-7642,1745152138771964013
823264,-1467,-313,1867,-3861,-6396,-8235,1745152138771964013
823456,-1719,131,1946,-3764,-5320,-8614,1745152138771964013
823648,-1829,465,2128,-1936,-3285,-8560,1745152138771964013
823840,-1737,617,2174,58,-693,-8634,1745152138771964013
824032,-1501,658,2012,772,1374,-8332,1745152138830502489
824224,-1114,678,1879,701,2884,-8428,1745152138830502489
824416,-704,693,1989,646,2682,-8620,1745152138830502489
824608,-355,726,2222,397,1909,-8759,1745152138830502489
824800,-64,786,2387,393,569,-8624,1745152138830502489
824992,158,855,2416,402,90,-8608,1745152138830502489
825184,320,944,2440,455,48,-8493,1745152138830502489
825376,460,1030,2462,536,252,-8345,1745152138830502489
825568,587,1106,2475,689,312,-8276,1745152138830502489
825760,684,1174,2482,902,28,-8208,1745152138830502489
825952,724,1232,2502,994,-520,-8017,1745152138830502489
826144,711,1303,2543,921,-1017,-7838,1745152138830502489
826336,656,1391,2593,824,-1260,-7626,1745152138885097980
826528,580,1499,2652,814,-1194,-7602,1745152138885097980
826720,492,1608,2717,1086,-1115,-7881,1745152138885097980
826912,370,1681,2802,1627,-1239,-7976,1745152138885097980
827104,217,1721,2924,2108,-1460,-7829,1745152138885097980
827296,49,1750,3062,2491,-1640,-7852,1745152138885097980
827488,-159,1752,3190,2830,-1801,-7428,1745152138885097980
827680,-381,1770,3316,2805,-1666,-6672,1745152138885097980
827872,-551,1842,3440,2567,-1086,-6420,1745152138885097980
828064,-662,1929,3540,2424,-306,-6243,1745152138885097980
828256,-744,2015,3613,2483,381,-6253,1745152138885097980
828448,-800,2086,3679,2773,735,-6405,1745152138885097980
828640,-850,2129,3748,3262,809,-6729,1745152138943907130
828832,-922,2123,3826,3962,471,-6948,1745152138943907130
829024,-1011,2073,3910,4547,24,-6908,1745152138943907130
829216,-1090,1997,3994,4730,-323,-6430,1745152138943907130
829408,-1126,1869,4053,5116,-173,-7607,1745152138943907130
829600,-1203,1896,4101,4907,-134,-7047,1745152138943907130
829792,-1242,1868,4117,4932,56,-7362,1745152138943907130
829984,-1256,1817,4126,5086,134,-7477,1745152138943907130
830176,-1255,1761,4133,5351,157,-7650,1745152138943907130
830368,-1256,1700,4145,5676,195,-7815,1745152138943907130
830560,-1265,1642,4153,6062,168,-7944,1745152138943907130
830752,-1286,1582,4143,6544,131,-8185,1745152138943907130
830944,-1320,1508,4136,7006,83,-8219,1745152139008924245
831136,-1345,1435,4156,7328,221,-7930,1745152139008924245
831328,-1321,1367,4194,7440,659,-7656,1745152139008924245
831520,-1256,1319,4219,7446,1285,-7584,1745152139008924245
831712,-1167,1281,4212,7446,1890,-7499,1745152139008924245
831904,-1064,1250,4182,7551,2338,-7465,1745152139008924245
832096,-951,1217,4155,7760,2538,-7485,1745152139008924245
832288,-835,1169,4149,8086,2513,-7544,1745152139008924245
832480,-735,1112,4149,8463,2338,-7673,1745152139008924245
832672,-653,1055,4146,8768,2177,-7728,1745152139008924245
832864,-579,1004,4139,8967,2078,-7785,1745152139008924245
833056,-520,959,4124,9099,2014,-7832,1745152139008924245
833248,-478,910,4100,9175,1943,-7795,1745152139064765297
833440,-449,866,4065,9267,1846,-7774,1745152139064765297
833632,-445,835,4018,9371,1737,-7811,1745152139064765297
833824,-468,820,3967,9486,1646,-7842,1745152139064765297
834016,-505,806,3913,9599,1617,-7899,1745152139064765297
834208,-553,790,3863,9690,1664,-7924,1745152139064765297
834400,-616,772,3815,9773,1766,-7883,1745152139064765297
834592,-689,752,3759,9872,1887,-7805,1745152139064765297
834784,-766,732,3694,9936,2061,-7798,1745152139064765297
834976,-840,709,3620,9955,2212,-7798,1745152139064765297
835168,-909,675,3540,9927,2366,-7755,1745152139064765297
835360,-975,638,3465,9796,2526,-7698,1745152139064765297
835552,-1036,597,3407,9690,2652,-7529,1745152139122198679
835744,-1080,540,3361,9612,2846,-7404,1745152139122198679
835936,-1117,488,3314,9491,2950,-7145,1745152139122198679
836128,-1148,421,3243,9333,2978,-6735,1745152139122198679
836320,-1173,344,3151,9121,2918,-6417,1745152139122198679
836512,-1214,265,3047,8827,2839,-6165,1745152139122198679
836704,-1272,200,2944,8426,2703,-6067,1745152139122198679
836896,-1342,153,2840,8019,2551,-5980,1745152139122198679
837088,-1412,111,2735,7699,2412,-6010,1745152139122198679
837280,-1481,69,2626,7469,2285,-6035,1745152139122198679
837472,-1545,35,2508,7261,2159,-6159,1745152139122198679
837664,-1603,6,2390,7071,2037,-6228,1745152139122198679
837856,-1649,-21,2283,6878,1928,-6265,1745152139182011153
838048,-1671,-50,2183,6702,1920,-6294,1745152139182011153
838240,-1668,-67,2080,6523,2084,-6312,1745152139182011153
838432,-1651,-70,1969,6346,2372,-6306,1745152139182011153
838624,-1622,-64,1853,6194,2694,-6302,1745152139182011153
838816,-1574,-61,1744,6091,2978,-6311,1745152139182011153
839008,-1507,-67,1645,6061,3111,-6289,1745152139182011153
839200,-1423,-84,1557,5999,3188,-6251,1745152139182011153
839392,-1326,-96,1482,5839,3287,-6234,1745152139182011153
839584,-1220,-101,1411,5684,3341,-6295,1745152139182011153
839776,-1111,-103,1342,5535,3332,-6302,1745152139182011153
839968,-993,-110,1277,5422,3260,-6277,1745152139182011153
840160,-875,-121,1218,5308,3063,-6234,1745152139236500551
840352,-764,-137,1164,5237,2788,-6152,1745152139236500551
840544,-666,-152,1111,5186,2493,-6099,1745152139236500551
840736,-594,-164,1060,5127,2184,-6087,1745152139236500551
840928,-546,-176,1011,5071,1906,-6067,1745152139236500551
841120,-504,-188,968,4996,1723,-6055,1745152139236500551
841312,-464,-190,931,4919,1669,-6021,1745152139236500551
841504,-430,-187,892,4861,1695,-6047,1745152139236500551
841696,-397,-188,853,4834,1712,-6048,1745152139236500551
841888,-366,-190,815,4810,1691,-6079,1745152139236500551
842080,-340,-193,783,4817,1636,-6146,1745152139236500551
842272,-327,-195,754,4820,1534,-6207,1745152139236500551
842464,-327,-199,725,4804,1403,-6288,1745152139297049894
842656,-340,-199,698,4767,1352,-6321,1745152139297049894
842848,-362,-192,673,4718,1356,-6361,1745152139297049894
843040,-390,-182,648,4626,1422,-6400,1745152139297049894
843232,-417,-171,620,4572,1531,-6426,1745152139297049894
843424,-438,-160,591,4533,1554,-6441,1745152139297049894
843616,-451,-148,566,4507,1549,-6399,1745152139297049894
843808,-457,-135,545,4511,1499,-6378,1745152139297049894
844000,-457,-125,523,4513,1481,-6346,1745152139297049894
844192,-442,-121,499,4511,1464,-6273,1745152139297049894
844384,-414,-123,471,4520,1447,-6254,1745152139297049894
844576,-385,-127,441,4521,1409,-6257,1745152139297049894
844768,-358,-130,414,4515,1362,-6223,1745152139354825043
844960,-327,-136,387,4517,1249,-6188,1745152139354825043
845152,-288,-142,361,4521,1181,-6216,1745152139354825043
845344,-249,-144,336,4497,1203,-6275,1745152139354825043
845536,-214,-144,313,4466,1259,-6267,1745152139354825043
845728,-177,-147,293,4450,1280,-6252,1745152139354825043
845920,-133,-151,273,4435,1243,-6203,1745152139354825043
846112,-84,-157,254,4406,1176,-6192,1745152139354825043
846304,-39,-162,236,4387,1065,-6255,1745152139354825043
846496,-7,-162,223,4383,906,-6309,1745152139354825043
846688,14,-160,211,4350,755,-6351,1745152139354825043
846880,28,-160,199,4340,643,-6379,1745152139354825043
847072,32,-158,189,4314,554,-6397,1745152139412370976
847264,28,-152,179,4264,495,-6420,1745152139412370976
847456,17,-146,172,4230,444,-6445,1745152139412370976
847648,4,-136,168,4196,420,-6477,1745152139412370976
847840,-7,-122,167,4184,423,-6500,1745152139412370976
848032,-22,-108,166,4171,437,-6526,1745152139412370976
848224,-43,-93,164,4147,443,-6556,1745152139412370976
848416,-62,-80,165,4160,415,-6537,1745152139412370976
848608,-71,-72,169,4160,368,-6524,1745152139412370976
848800,-73,-66,173,4153,335,-6507,1745152139412370976
848992,-73,-58,172,4169,337,-6513,1745152139412370976
849184,-76,-47,163,4184,337,-6522,1745152139412370976
849376,-80,-37,152,4212,339,-6570,1745152139474382857
849568,-82,-33,140,4242,315,-6605,1745152139474382857
849760,-85,-33,130,4275,276,-6606,1745152139474382857
849952,-87,-34,122,4275,255,-6576,1745152139474382857
850144,-92,-36,113,4290,235,-6549,1745152139474382857
850336,-97,-38,102,4292,188,-6529,1745152139474382857
850528,-97,-42,90,4270,173,-6515,1745152139474382857
850720,-95,-46,79,4257,191,-6521,1745152139474382857
850912,-98,-47,68,4253,203,-6521,1745152139474382857
851104,-99,-49,57,4254,177,-6560,1745152139474382857
851296,-97,-52,46,4246,154,-6606,1745152139474382857
851488,-91,-54,38,4248,145,-6627,1745152139474382857
851680,-85,-53,29,4252,180,-6654,1745152139532022122
851872,-82,-48,24,4242,211,-6675,1745152139532022122
852064,-81,-45,17,4232,237,-6708,1745152139532022122
852256,-83,-43,9,4231,207,-6717,1745152139532022122
852448,-85,-42,4,4197,136,-6660,1745152139532022122
852640,-77,-39,2,4172,31,-6595,1745152139532022122
852832,-61,-37,3,4154,-99,-6583,1745152139532022122
853024,-43,-32,3,4120,-166,-6575,1745152139532022122
853216,-32,-21,2,4095,-238,-6620,1745152139532022122
853408,-25,-10,3,4085,-327,-6612,1745152139532022122
853600,-12,0,9,4080,-394,-6618,1745152139532022122
853792,3,10,15,4079,-424,-6663,1745152139532022122
853984,10,22,22,4094,-411,-6737,1745152139587857289
854176,13,33,30,4095,-367,-6766,1745152139587857289
854368,16,46,37,4096,-323,-6811,1745152139587857289
854560,18,59,43,4112,-274,-6850,1745152139587857289
854752,20,68,45,4138,-267,-6900,1745152139587857289
854944,19,74,47,4174,-270,-6905,1745152139587857289
855136,15,76,45,4215,-322,-6893,1745152139587857289
855328,7,75,41,4242,-360,-6865,1745152139587857289
855520,-2,71,32,4264,-404,-6873,1745152139587857289
855712,-15,69,19,4274,-389,-6866,1745152139587857289
855904,-29,63,7,4267,-383,-6870,1745152139587857289
856096,-35,56,-6,4262,-396,-6879,1745152139587857289
856288,-36,46,-20,4294,-427,-6878,1745152139648981210
856480,-36,32,-30,4304,-481,-6860,1745152139648981210
856672,-35,19,-37,4309,-518,-6903,1745152139648981210
856864,-40,11,-44,4301,-507,-6967,1745152139648981210
857056,-48,7,-50,4260,-458,-6983,1745152139648981210
857248,-50,2,-58,4256,-416,-6998,1745152139648981210
857440,-50,-5,-67,4257,-398,-7018,1745152139648981210
857632,-46,-13,-70,4266,-406,-7050,1745152139648981210
857824,-43,-20,-68,4277,-440,-7099,1745152139648981210
858016,-40,-22,-73,4248,-530,-7089,1745152139648981210
858208,-27,-23,-72,4131,-504,-7045,1745152139648981210
858400,-5,-30,-51,4102,-473,-7071,1745152139648981210
858592,12,-25,-38,4086,-486,-7098,1745152139705066010
858784,24,-13,-42,4032,-525,-7130,1745152139705066010
858976,32,4,-44,4009,-569,-7162,1745152139705066010
859168,37,14,-37,4037,-646,-7218,1745152139705066010
859360,37,20,-28,4097,-737,-7249,1745152139705066010
859552,30,24,-20,4170,-805,-7296,1745152139705066010
859744,20,32,-16,4218,-824,-7321,1745152139705066010
859936,10,39,-18,4298,-823,-7352,1745152139705066010
860128,-1,40,-27,4362,-816,-7315,1745152139705066010
860320,-10,35,-34,4413,-796,-7259,1745152139705066010
860512,-11,26,-35,4395,-761,-7212,1745152139705066010
860704,-3,15,-35,4361,-742,-7161,1745152139705066010
860896,14,2,-39,4349,-737,-7075,1745152139776034945
861088,35,-9,-49,4327,-732,-7055,1745152139776034945
861280,48,-19,-61,4302,-767,-7054,1745152139776034945
861472,57,-28,-67,4296,-790,-7055,1745152139776034945
861664,65,-39,-66,4252,-830,-7090,1745152139776034945
861856,71,-50,-63,4250,-869,-7152,1745152139776034945
862048,69,-56,-62,4207,-888,-7199,1745152139776034945
862240,60,-59,-62,4180,-943,-7193,1745152139776034945
862432,55,-59,-59,4155,-982,-7190,1745152139776034945
862624,52,-57,-51,4146,-986,-7198,1745152139776034945
862816,47,-54,-47,4156,-969,-7181,1745152139776034945
863008,38,-48,-43,4133,-954,-7146,1745152139776034945
863200,35,-46,-38,4136,-944,-7081,1745152139821463801
863392,36,-47,-30,4143,-975,-7042,1745152139821463801
863584,34,-46,-22,4127,-1016,-7016,1745152139821463801
863776,28,-45,-13,4104,-1036,-7013,1745152139821463801
863968,21,-43,-5,4073,-1067,-7010,1745152139821463801
864160,9,-38,5,4062,-1071,-7010,1745152139821463801
864352,-5,-31,14,4051,-1045,-7028,1745152139821463801
864544,-21,-24,21,4099,-1056,-7017,1745152139821463801
864736,-41,-18,27,4139,-998,-7010,1745152139821463801
864928,-57,-13,34,4177,-954,-6951,1745152139821463801
865120,-64,-12,41,4228,-883,-6882,1745152139821463801
865312,-63,-15,45,4251,-790,-6860,1745152139821463801
865504,-61,-18,46,4277,-724,-6848,1745152139889903905
865696,-57,-20,40,4312,-667,-6853,1745152139889903905
865888,-51,-21,33,4301,-628,-6891,1745152139889903905
866080,-43,-22,28,4302,-587,-6916,1745152139889903905
866272,-32,-25,22,4291,-534,-6936,1745152139889903905
866464,-24,-25,14,4289,-484,-6977,1745152139889903905
866656,-20,-24,3,4281,-452,-6970,1745152139889903905
866848,-19,-26,-10,4277,-507,-6940,1745152139889903905
867040,-13,-31,-19,4257,-612,-6898,1745152139889903905
867232,2,-38,-22,4219,-691,-6920,1745152139889903905
867424,13,-45,-25,4171,-701,-6952,1745152139889903905
867616,10,-46,-30,4115,-709,-6956,1745152139889903905
867808,10,-46,-36,4085,-722,-6903,1745152139939857511
868000,17,-50,-35,4088,-708,-6855,1745152139939857511
868192,21,-52,-30,4100,-686,-6845,1745152139939857511
868384,19,-53,-25,4102,-689,-6810,1745152139939857511
868576,18,-53,-22,4108,-694,-6777,1745152139939857511
868768,20,-52,-20,4138,-670,-6773,1745152139939857511
868960,19,-52,-19,4164,-669,-6809,1745152139939857511
869152,18,-53,-17,4175,-709,-6851,1745152139939857511
869344,18,-58,-12,4154,-741,-6890,1745152139939857511
869536,17,-59,-6,4150,-730,-6915,1745152139939857511
869728,12,-57,-6,4113,-661,-6933,1745152139939857511
869920,2,-49,-11,4077,-554,-6939,1745152139939857511
870112,-4,-38,-15,4039,-481,-6934,1745152139997571515
870304,-2,-27,-14,4013,-467,-6921,1745152139997571515
870496,6,-18,-10,3999,-501,-6923,1745152139997571515
870688,15,-11,-6,4012,-587,-6912,1745152139997571515
870880,17,-2,-3,4036,-690,-6977,1745152139997571515
871072,9,7,-3,4057,-704,-6995,1745152139997571515
871264,-4,15,-1,4072,-722,-6977,1745152139997571515
871456,-12,21,4,4093,-649,-6953,1745152139997571515
871648,-14,23,10,4119,-561,-6935,1745152139997571515
871840,-12,22,9,4170,-505,-6878,1745152139997571515
872032,-7,16,4,4218,-546,-6825,1745152139997571515
872224,2,8,0,4232,-635,-6782,1745152139997571515
872416,18,-5,3,4237,-693,-6791,1745152140056991025
872608,32,-15,8,4227,-708,-6811,1745152140056991025
872800,33,-23,8,4215,-718,-6819,1745152140056991025
872992,34,-30,3,4191,-780,-6834,1745152140056991025
873184,33,-37,-1,4167,-784,-6856,1745152140056991025
873376,25,-38,-1,4120,-792,-6887,1745152140056991025
873568,13,-32,1,4058,-763,-6919,1745152140056991025
873760,3,-23,3,4019,-715,-6936,1745152140056991025
873952,-1,-14,5,4015,-660,-6967,1745152140056991025
874144,-5,-6,6,4036,-649,-6999,1745152140056991025
874336,-11,1,10,4039,-654,-7021,1745152140056991025
874528,-18,6,12,4069,-651,-7057,1745152140056991025
874720,-26,9,13,4077,-627,-7080,1745152140115338981
874912,-34,14,10,4075,-554,-7096,1745152140115338981
875104,-37,18,4,4100,-519,-7064,1745152140115338981
875296,-33,20,-4,4125,-499,-7010,1745152140115338981
875488,-23,19,-11,4138,-487,-6993,1745152140115338981
875680,-10,16,-18,4159,-500,-6992,1745152140115338981
875872,0,11,-23,4182,-546,-6995,1745152140115338981
876064,11,3,-26,4200,-570,-6995,1745152140115338981
876256,19,-4,-28,4201,-586,-6998,1745152140115338981
876448,26,-9,-29,4199,-582,-6995,1745152140115338981
876640,36,-13,-31,4182,-589,-6999,1745152140115338981
876832,47,-18,-31,4190,-570,-6988,1745152140115338981
877024,55,-22,-32,4183,-602,-6970,1745152140173669542
877216,59,-26,-34,4183,-656,-6977,1745152140173669542
877408,59,-32,-36,4175,-736,-6984,1745152140173669542
877600,55,-38,-38,4138,-817,-6981,1745152140173669542
877792,47,-41,-37,4090,-838,-6999,1745152140173669542
877984,32,-40,-38,4056,-833,-6991,1745152140173669542
878176,13,-38,-37,4007,-861,-6973,1745152140173669542
878368,-4,-36,-36,4008,-864,-6934,1745152140173669542
878560,-16,-32,-29,3981,-899,-6911,1745152140173669542
878752,-20,-28,-21,3993,-865,-6903,1745152140173669542
878944,-19,-24,-16,3992,-833,-6936,1745152140173669542
879136,-19,-21,-13,4005,-796,-6992,1745152140173669542
879328,-19,-18,-8,4029,-769,-6990,1745152140250922066
879520,-6,-16,0,4057,-723,-7003,1745152140250922066
879712,2,-11,9,4072,-689,-7025,1745152140250922066
879904,8,-12,12,4091,-700,-7037,1745152140250922066
880096,9,-12,14,4109,-706,-7055,1745152140250922066
880288,7,-13,18,4106,-738,-7042,1745152140250922066
880480,2,-11,24,4108,-727,-7059,1745152140250922066
880672,-5,-8,28,4105,-702,-7029,1745152140250922066
880864,-11,-5,30,4091,-648,-6994,1745152140250922066
881056,-14,-1,29,4073,-623,-6990,1745152140250922066
881248,-17,4,29,4062,-637,-6959,1745152140250922066
881440,-13,8,30,4100,-691,-6908,1745152140250922066
881632,-4,8,31,4093,-694,-6946,1745152140288843178
881824,0,10,29,4102,-694,-6988,1745152140288843178
882016,-5,12,28,4115,-685,-7023,1745152140288843178
882208,-13,15,26,4125,-667,-7008,1745152140288843178
882400,-19,18,25,4118,-657,-6993,1745152140288843178
882592,-21,19,22,4118,-666,-7013,1745152140288843178
882784,-22,17,19,4122,-705,-7028,1745152140288843178
882976,-22,14,21,4120,-706,-7043,1745152140288843178
883168,-27,13,23,4096,-653,-7040,1745152140288843178
883360,-31,14,22,4077,-597,-7023,1745152140288843178
883552,-30,14,20,4076,-509,-6974,1745152140288843178
883744,-21,12,16,4083,-437,-6963,1745152140288843178
883936,-11,9,12,4094,-443,-6961,1745152140354028728
884128,-2,5,7,4106,-489,-6991,1745152140354028728
884320,7,2,4,4146,-542,-7018,1745152140354028728
884512,17,-2,2,4157,-585,-7040,1745152140354028728
884704,20,-5,-1,4142,-568,-7061,1745152140354028728
884896,18,-5,-8,4124,-565,-7062,1745152140354028728
885088,16,-4,-15,4095,-569,-7049,1745152140354028728
885280,17,-4,-20,4052,-520,-7042,1745152140354028728
885472,18,-2,-24,4037,-513,-7038,1745152140354028728
885664,18,-1,-28,4027,-543,-7013,1745152140354028728
885856,23,0,-29,4022,-588,-6981,1745152140354028728
886048,34,2,-27,4049,-591,-6963,1745152140354028728
886240,43,3,-24,4089,-568,-6960,1745152140406037159
886432,49,4,-24,4097,-595,-6991,1745152140406037159
886624,57,3,-24,4108,-634,-7011,1745152140406037159
886816,70,-1,-19,4118,-684,-7007,1745152140406037159
887008,77,-4,-14,4116,-698,-7008,1745152140406037159
887200,75,-4,-13,4119,-705,-7041,1745152140406037159
887392,69,-2,-12,4093,-697,-7041,1745152140406037159
887584,65,0,-6,4056,-679,-7056,1745152140406037159
887776,60,2,2,4059,-675,-7051,1745152140406037159
887968,53,5,9,4069,-672,-7053,1745152140406037159
888160,49,6,13,4103,-704,-7066,1745152140406037159
888352,47,6,16,4114,-709,-7092,1745152140406037159
888544,43,4,15,4112,-719,-7096,1745152140466249578
888736,37,3,11,4116,-704,-7104,1745152140466249578
888928,33,0,7,4133,-740,-7081,1745152140466249578
889120,28,-3,3,4105,-755,-7087,1745152140466249578
889312,20,-4,-1,4082,-734,-7092,1745152140466249578
889504,10,-2,-3,4055,-685,-7085,1745152140466249578
889696,3,1,-5,4039,-661,-7075,1745152140466249578
889888,-1,3,-6,4052,-681,-7087,1745152140466249578
890080,-1,3,-5,4070,-703,-7089,1745152140466249578
890272,0,4,-2,4076,-679,-7139,1745152140466249578
890464,-5,4,-1,4116,-647,-7159,1745152140466249578
890656,-10,2,0,4126,-610,-7132,1745152140466249578
890848,-11,-3,-1,4156,-530,-7106,1745152140524595034
891040,-10,-11,-3,4170,-480,-7058,1745152140524595034
891232,-4,-17,-7,4158,-451,-7042,1745152140524595034
891424,3,-26,-13,4150,-524,-7034,1745152140524595034
891616,13,-37,-15,4150,-639,-7020,1745152140524595034
891808,25,-48,-12,4136,-728,-7031,1745152140524595034
892000,32,-58,-7,4116,-769,-7067,1745152140524595034
892192,31,-68,-6,4112,-812,-7090,1745152140524595034
892384,22,-76,-4,4086,-812,-7098,1745152140524595034
892576,8,-77,-2,4059,-782,-7127,1745152140524595034
892768,-8,-74,3,4019,-713,-7159,1745152140524595034
892960,-23,-69,7,3982,-653,-7170,1745152140524595034
893152,-38,-61,13,3991,-604,-7180,1745152140583644651
893344,-50,-53,19,4020,-630,-7151,1745152140583644651
893536,-52,-43,29,4047,-643,-7103,1745152140583644651
893728,-47,-32,36,4051,-629,-7119,1745152140583644651
893920,-43,-23,36,4021,-589,-7139,1745152140583644651
894112,-41,-13,31,4009,-542,-7152,1745152140583644651
894304,-40,-4,23,3987,-521,-7132,1745152140583644651
894496,-39,4,14,3996,-481,-7117,1745152140583644651
894688,-36,10,5,4018,-496,-7004,1745152140583644651
894880,-21,13,0,4047,-515,-6930,1745152140583644651
895072,2,14,-6,4043,-488,-6931,1745152140583644651
895264,21,15,-13,4020,-424,-6969,1745152140583644651
895456,35,18,-22,4060,-323,-7007,1745152140663755951
895648,43,22,-30,4119,-234,-7002,1745152140663755951
895840,46,21,-36,4201,-193,-6957,1745152140663755951
896032,49,14,-43,4259,-171,-6908,1745152140663755951
896224,52,2,-54,4317,-166,-6859,1745152140663755951
896416,56,-12,-66,4311,-112,-6869,1745152140663755951
896608,62,-23,-80,4278,-65,-6898,1745152140663755951
896800,63,-31,-99,4223,99,-6923,1745152140663755951
896992,60,-33,-120,4187,263,-6913,1745152140663755951
897184,54,-34,-141,4196,411,-6889,1745152140663755951
897376,51,-33,-165,4224,547,-6853,1745152140663755951
897568,51,-33,-191,4265,666,-6841,1745152140663755951
897760,53,-32,-223,4267,855,-6880,1745152140699320001
897952,50,-27,-261,4330,1092,-6880,1745152140699320001
898144,42,-20,-303,4388,1397,-6836,1745152140699320001
898336,31,-16,-349,4463,1741,-6754,1745152140699320001
898528,17,-15,-403,4521,2086,-6651,1745152140699320001
898720,8,-15,-462,4596,2449,-6578,1745152140699320001
898912,11,-11,-530,4675,2831,-6531,1745152140699320001
899104,30,-3,-608,4746,3221,-6465,1745152140699320001
899296,65,8,-693,4869,3598,-6424,1745152140699320001
899488,117,22,-784,5033,3980,-6400,1745152140699320001
899680,189,37,-882,5205,4324,-6442,1745152140699320001
899872,277,45,-986,5440,4612,-6579,1745152140699320001
900064,371,35,-1099,5794,4738,-6654,1745152140758824926
900256,456,6,-1221,6176,4701,-6673,1745152140758824926
900448,532,-41,-1354,6542,4543,-6685,1745152140758824926
900640,589,-99,-1496,6772,4325,-6643,1745152140758824926
900832,639,-161,-1644,6804,4174,-6581,1745152140758824926
901024,691,-216,-1797,6696,3972,-6823,1745152140758824926
901216,744,-272,-1954,6639,3984,-6397,1745152140758824926
901408,794,-310,-2110,6540,3989,-6122,1745152140758824926
901600,853,-345,-2256,6463,4038,-5928,1745152140758824926
901792,928,-367,-2401,6383,4179,-5782,1745152140758824926
901984,1015,-381,-2535,6329,4347,-5530,1745152140758824926
902176,1105,-384,-2659,6374,4493,-5396,1745152140758824926
902368,1197,-388,-2767,6480,4595,-5247,1745152140816933353
902560,1303,-388,-2859,6589,4683,-5163,1745152140816933353
902752,1420,-380,-2943,6631,4655,-5383,1745152140816933353
902944,1532,-366,-3031,6616,4552,-5767,1745152140816933353
903136,1617,-356,-3120,6579,4293,-6070,1745152140816933353
903328,1691,-347,-3208,6529,4017,-6173,1745152140816933353
903520,1740,-332,-3283,6426,3771,-6379,1745152140816933353
903712,1763,-315,-3349,6332,3582,-6457,1745152140816933353
903904,1765,-297,-3408,6276,3448,-6491,1745152140816933353
904096,1753,-283,-3461,6250,3356,-6465,1745152140816933353
904288,1745,-274,-3511,6244,3323,-6364,1745152140816933353
904480,1741,-273,-3559,6252,3329,-6318,1745152140816933353
904672,1742,-276,-3608,6291,3376,-6306,1745152140873485701
904864,1742,-282,-3656,6362,3415,-6363,1745152140873485701
905056,1737,-287,-3709,6457,3506,-6531,1745152140873485701
905248,1713,-299,-3765,6623,3517,-6901,1745152140873485701
905440,1669,-330,-3819,6832,3480,-7279,1745152140873485701
905632,1614,-376,-3861,7011,3406,-7333,1745152140873485701
905824,1561,-418,-3886,7021,3322,-7335,1745152140873485701
906016,1516,-453,-3911,6943,3205,-7384,1745152140873485701
906208,1481,-487,-3953,6750,3015,-7461,1745152140873485701
906400,1453,-515,-4004,6497,2828,-7628,1745152140873485701
906592,1429,-538,-4050,6225,2672,-7787,1745152140873485701
906784,1396,-557,-4084,6039,2496,-7844,1745152140873485701
906976,1350,-573,-4103,5994,2288,-7906,1745152140935015608
907168,1296,-597,-4112,6074,2060,-7929,1745152140935015608
907360,1238,-637,-4115,6145,1839,-7854,1745152140935015608
907552,1180,-681,-4115,6163,1671,-7805,1745152140935015608
907744,1126,-729,-4116,6062,1532,-7877,1745152140935015608
907936,1079,-781,-4116,5911,1374,-7919,1745152140935015608
908128,1045,-832,-4110,5733,1247,-8001,1745152140935015608
908320,1019,-879,-4099,5531,1136,-8176,1745152140935015608
908512,995,-913,-4082,5353,1065,-8318,1745152140935015608
908704,962,-935,-4059,5224,958,-8424,1745152140935015608
908896,910,-953,-4027,5146,776,-8419,1745152140935015608
909088,846,-971,-3984,5070,553,-8465,1745152140935015608
909280,786,-995,-3932,5022,296,-8587,1745152140995090424
909472,729,-1028,-3875,4941,103,-8582,1745152140995090424
909664,673,-1052,-3817,4756,6,-8592,1745152140995090424
909856,616,-1066,-3757,4611,18,-8594,1745152140995090424
910048,555,-1082,-3702,4515,-69,-8442,1745152140995090424
910240,493,-1105,-3656,4516,-243,-8235,1745152140995090424
910432,439,-1138,-3618,4490,-454,-8113,1745152140995090424
910624,395,-1176,-3581,4400,-645,-8005,1745152140995090424
910816,357,-1212,-3545,4228,-707,-7948,1745152140995090424
911008,313,-1242,-3515,4023,-722,-7912,1745152140995090424
911200,274,-1257,-3487,3793,-618,-8006,1745152140995090424
911392,250,-1262,-3450,3615,-388,-8072,1745152140995090424
911584,234,-1259,-3400,3509,-129,-8057,1745152141071927639
911776,227,-1249,-3347,3539,104,-8087,1745152141071927639
911968,222,-1245,-3293,3663,216,-7975,1745152141071927639
912160,214,-1249,-3243,3842,164,-8011,1745152141071927639
912352,200,-1274,-3196,3997,-15,-7999,1745152141071927639
912544,187,-1298,-3148,3977,-176,-7956,1745152141071927639
912736,176,-1310,-3104,3806,-223,-8073,1745152141071927639
912928,162,-1316,-3072,3578,-239,-8044,1745152141071927639
913120,154,-1315,-3047,3337,-207,-8010,1745152141071927639
913312,154,-1311,-3021,3141,-185,-7944,1745152141071927639
913504,163,-1297,-2988,2960,-149,-7937,1745152141071927639
913696,178,-1280,-2946,2912,-140,-8056,1745152141071927639
913888,186,-1270,-2896,2935,-199,-7916,1745152141108328035
914080,190,-1259,-2835,2929,-239,-7781,1745152141108328035
914272,189,-1250,-2773,2955,-267,-7565,1745152141108328035
914464,189,-1240,-2718,2838,-313,-7322,1745152141108328035
914656,200,-1220,-2670,2668,-327,-7327,1745152141108328035
914848,213,-1197,-2630,2487,-338,-7378,1745152141108328035
915040,221,-1165,-2585,2391,-312,-7512,1745152141108328035
915232,214,-1130,-2526,2372,-278,-7605,1745152141108328035
915424,195,-1103,-2450,2479,-289,-7593,1745152141108328035
915616,168,-1086,-2370,2567,-308,-7404,1745152141108328035
915808,142,-1058,-2295,2485,-318,-7330,1745152141108328035
916000,132,-1020,-2228,2305,-272,-7343,1745152141108328035
916192,142,-976,-2173,2117,-158,-7466,1745152141171600114
916384,160,-923,-2127,1991,-50,-7558,1745152141171600114
916576,186,-877,-2084,1971,-5,-7525,1745152141171600114
916768,230,-831,-2034,1917,11,-7559,1745152141171600114
916960,287,-778,-1978,1814,8,-7737,1745152141171600114
917152,340,-728,-1922,1822,-91,-7877,1745152141171600114
917344,368,-693,-1855,1908,-275,-7604,1745152141171600114
917536,390,-655,-1773,1909,-420,-7454,1745152141171600114
917728,414,-612,-1697,1779,-464,-7384,1745152141171600114
917920,446,-569,-1625,1666,-435,-7272,1745152141171600114
918112,478,-525,-1558,1591,-452,-7158,1745152141171600114
918304,507,-485,-1495,1577,-457,-7114,1745152141171600114
918496,531,-450,-1431,1605,-543,-7044,1745152141225522642
918688,546,-417,-1361,1609,-653,-7049,1745152141225522642
918880,552,-383,-1291,1539,-770,-7104,1745152141225522642
919072,551,-352,-1216,1505,-870,-7243,1745152141225522642
919264,536,-327,-1132,1477,-941,-7388,1745152141225522642
919456,506,-303,-1046,1519,-1005,-7463,1745152141225522642
919648,468,-280,-964,1544,-1024,-7402,1745152141225522642
919840,427,-252,-886,1539,-995,-7333,1745152141225522642
920032,390,-222,-814,1463,-917,-7349,1745152141225522642
920224,351,-189,-752,1412,-863,-7327,1745152141225522642
920416,306,-156,-692,1382,-890,-7290,1745152141225522642
920608,239,-133,-625,1398,-1073,-7215,1745152141225522642
920800,111,-130,-578,1330,-1327,-6377,1745152141286897758
920992,101,-98,-581,1308,-908,-7074,1745152141286897758
921184,109,-68,-566,1443,-325,-7160,1745152141286897758
921376,95,-1,-535,1629,56,-7561,1745152141286897758
921568,118,37,-510,1713,287,-8192,1745152141286897758
921760,172,67,-470,1613,400,-8434,1745152141286897758
921952,214,107,-401,1482,270,-8524,1745152141286897758
922144,239,158,-336,1307,-83,-8475,1745152141286897758
922336,255,216,-287,1004,-490,-8108,1745152141286897758
922528,268,278,-235,889,-773,-8336,1745152141286897758
922720,290,330,-159,1116,-837,-8328,1745152141286897758
922912,331,369,-70,1581,-515,-8152,1745152141286897758
923104,356,383,8,2014,7,-7936,1745152141342517094
923296,370,373,52,2270,354,-7588,1745152141342517094
923488,387,358,49,2284,479,-7223,1745152141342517094
923680,393,338,26,2188,296,-7148,1745152141342517094
923872,367,304,14,2014,-117,-7212,1745152141342517094
924064,317,267,41,1915,-635,-7368,1745152141342517094
924256,258,229,95,1902,-1115,-7549,1745152141342517094
924448,194,185,152,1933,-1429,-7717,1745152141342517094
924640,122,136,198,1894,-1563,-7876,1745152141342517094
924832,33,102,215,1844,-1636,-7941,1745152141342517094
925024,-45,73,216,1700,-1531,-7903,1745152141342517094
925216,-104,49,219,1531,-1392,-7868,1745152141342517094
925408,-142,36,208,1326,-1216,-7794,1745152141408954508
925600,-153,40,187,1119,-975,-7776,1745152141408954508
925792,-132,58,164,916,-691,-7771,1745152141408954508
925984,-86,94,145,756,-339,-7725,1745152141408954508
926176,-21,140,139,678,-2,-7698,1745152141408954508
926368,59,184,142,660,222,-7668,1745152141408954508
926560,145,222,151,739,289,-7626,1745152141408954508
926752,224,258,163,812,253,-7629,1745152141408954508
926944,290,291,179,851,165,-7686,1745152141408954508
927136,337,330,200,862,131,-7724,1745152141408954508
927328,362,378,226,870,176,-7808,1745152141408954508
927520,374,435,254,879,260,-7909,1745152141408954508
927712,371,484,286,1008,312,-7767,1745152141525469225
927904,352,522,325,1133,249,-7455,1745152141525469225
928096,320,564,368,1289,117,-7190,1745152141525469225
928288,277,600,407,1390,-36,-6900,1745152141525469225
928480,235,628,438,1443,-204,-6683,1745152141525469225
928672,198,648,460,1490,-348,-6621,1745152141525469225
928864,166,659,466,1522,-420,-6607,1745152141525469225
929056,139,662,459,1554,-460,-6630,1745152141525469225
929248,117,661,448,1580,-521,-6648,1745152141525469225
929440,101,664,437,1625,-586,-6638,1745152141525469225
929632,92,662,428,1684,-679,-6621,1745152141525469225
929824,89,656,414,1756,-718,-6669,1745152141525469225
930016,85,646,397,1812,-669,-6775,1745152141533593421
930208,74,633,375,1863,-528,-6834,1745152141533593421
930400,63,626,349,1873,-297,-6930,1745152141533593421
930592,62,624,322,1861,24,-7044,1745152141533593421
930784,70,633,295,1840,421,-7194,1745152141533593421
930976,83,650,276,1860,874,-7363,1745152141533593421
931168,92,676,272,1909,1227,-7549,1745152141533593421
931360,97,706,292,2006,1421,-7679,1745152141533593421
931552,114,726,334,2133,1471,-7812,1745152141533593421
931744,151,729,387,2244,1314,-7929,1745152141533593421
931936,202,717,443,2332,1051,-8032,1745152141533593421
932128,245,696,495,2373,737,-8117,1745152141533593421
932320,269,673,535,2359,367,-8136,1745152141580322317
932512,271,655,557,2300,39,-8155,1745152141580322317
932704,252,649,568,2191,-154,-8183,1745152141580322317
932896,210,648,578,2126,-287,-8233,1745152141580322317
933088,146,641,584,2158,-341,-8231,1745152141580322317
933280,79,616,580,2231,-321,-8334,1745152141580322317
933472,11,576,560,2416,-239,-8577,1745152141580322317
933664,-50,513,507,2692,-171,-8808,1745152141580322317
933856,-86,427,420,2996,-124,-8888,1745152141580322317
934048,-103,330,323,3224,-53,-8841,1745152141580322317
934240,-117,234,234,3339,44,-8851,1745152141580322317
934432,-140,142,180,3309,195,-8910,1745152141580322317
934624,-167,55,152,3079,490,-8871,1745152141640718797
934816,-173,4,129,2696,798,-8703,1745152141640718797
935008,-159,-16,105,2217,1121,-8568,1745152141640718797
935200,-113,-19,80,1761,1368,-8464,1745152141640718797
935392,-45,-1,59,1385,1453,-8381,1745152141640718797
935584,30,32,48,1149,1308,-8356,1745152141640718797
935776,75,75,57,1078,903,-8356,1745152141640718797
935968,84,94,83,1123,345,-8457,1745152141640718797
936160,70,88,114,1211,-260,-8564,1745152141640718797
936352,30,78,134,1300,-714,-8512,1745152141640718797
936544,-35,78,137,1351,-924,-8396,1745152141640718797
936736,-118,89,137,1349,-877,-8240,1745152141640718797
936928,-203,108,142,1338,-622,-8042,1745152141696868805
937120,-273,130,147,1319,-292,-7862,1745152141696868805
937312,-319,148,137,1304,57,-7756,1745152141696868805
937504,-322,161,123,1348,363,-7654,1745152141696868805
937696,-293,155,112,1426,537,-7543,1745152141696868805
937888,-243,140,103,1537,625,-7469,1745152141696868805
938080,-183,112,89,1656,632,-7488,1745152141696868805
938272,-132,76,72,1742,636,-7522,1745152141696868805
938464,-88,34,54,1707,633,-7498,1745152141696868805
938656,-49,-1,41,1604,619,-7507,1745152141696868805
938848,-12,-24,33,1429,618,-7536,1745152141696868805
939040,21,-30,32,1260,653,-7635,1745152141696868805
939232,47,-25,32,1137,643,-7759,1745152141751977104
939424,66,-14,31,1069,599,-7883,1745152141751977104
939616,81,2,35,1051,512,-8052,1745152141751977104
939808,91,20,43,1099,426,-8264,1745152141751977104
940000,85,38,51,1189,303,-8494,1745152141751977104
940192,66,48,57,1296,202,-8638,1745152141751977104
940384,37,54,63,1363,109,-8708,1745152141751977104
940576,2,59,70,1421,97,-8732,1745152141751977104
940768,-41,59,74,1414,125,-8721,1745152141751977104
940960,-81,60,74,1380,205,-8668,1745152141751977104
941152,-119,62,72,1345,328,-8545,1745152141751977104
941344,-145,63,67,1297,466,-8393,1745152141751977104
