timestamp,gyr_x,gyr_y,gyr_z,acc_x,acc_y,acc_z,pkt_time_ns
117859,-57,-4,5,2026,1897,-7875,1745176320342559027
118051,-146,14,5,2061,927,-7558,1745176320342559027
118243,-112,-22,-1,2140,1475,-7735,1745176320342559027
118435,-108,-17,5,1986,1528,-7643,1745176320342559027
118627,-122,-10,3,1951,1440,-7651,1745176320342559027
118819,-149,-12,-4,1935,1605,-7576,1745176320342559027
119011,-139,-9,-9,1916,1676,-7594,1745176320342559027
119203,-143,-12,-14,1909,1700,-7605,1745176320342559027
119395,-148,2,-17,1835,1820,-7611,1745176320342559027
119587,-141,15,-26,1813,1902,-7605,1745176320342559027
119779,-141,25,-35,1839,1824,-7563,1745176320342559027
119971,-133,31,-35,1983,1888,-7619,1745176320342559027
120163,-124,24,-27,2095,1974,-7708,1745176320404250339
120355,-113,22,-20,2158,1980,-7831,1745176320404250339
120547,-104,17,-19,2246,1973,-7970,1745176320404250339
120739,-90,5,-20,2391,2043,-8104,1745176320404250339
120931,-60,-11,-15,2489,2254,-8220,1745176320404250339
121123,-12,-28,-7,2492,2452,-8269,1745176320404250339
121315,62,-43,7,2475,2664,-8308,1745176320404250339
121507,155,-52,22,2448,2698,-8258,1745176320404250339
121699,252,-53,37,2327,2677,-8141,1745176320404250339
121891,354,-51,50,2203,2650,-7994,1745176320404250339
122083,449,-55,65,2223,2454,-7851,1745176320404250339
122275,518,-71,85,2245,2193,-7691,1745176320404250339
122467,556,-77,110,2034,1885,-7594,1745176320458151878
122659,577,-57,123,1659,1635,-7538,1745176320458151878
122851,586,-12,120,1349,1422,-7568,1745176320458151878
123043,588,38,107,1182,1240,-7579,1745176320458151878
123235,566,79,91,1002,195,-7338,1745176320458151878
123427,483,156,66,1298,1506,-8200,1745176320458151878
123619,565,140,75,1328,1849,-7439,1745176320458151878
123811,604,208,81,1486,1829,-7873,1745176320458151878
124003,662,209,74,1940,1997,-7741,1745176320458151878
124195,741,202,67,2257,2239,-7711,1745176320458151878
124387,863,177,73,2332,2791,-7827,1745176320458151878
124579,1050,168,88,2403,2599,-8094,1745176320458151878
124771,954,127,58,3161,-2707,-8185,1745176320516068953
124963,47,44,-51,2967,-9025,-7456,1745176320516068953
125155,-964,75,-68,755,-7336,-6768,1745176320516068953
125347,-1482,145,26,-8,-3689,-7573,1745176320516068953
125539,-1616,194,69,427,146,-7741,1745176320516068953
125731,-1523,193,27,1147,3372,-7322,1745176320516068953
125923,-1269,204,-36,2110,5276,-7186,1745176320516068953
126115,-932,221,-86,3294,5650,-7307,1745176320516068953
126307,-577,189,-106,4294,5014,-7574,1745176320516068953
126499,-276,86,-88,4632,4076,-7674,1745176320516068953
126691,-82,-37,-48,4035,3318,-7620,1745176320516068953
126883,13,-105,-21,2942,2746,-7589,1745176320516068953
127075,49,-112,-27,2011,2313,-7526,1745176320574194463
127267,63,-90,-62,1426,1998,-7464,1745176320574194463
127459,59,-57,-103,1189,1738,-7417,1745176320574194463
127651,34,-21,-122,1206,1575,-7431,1745176320574194463
127843,-2,16,-106,1460,1477,-7500,1745176320574194463
128035,-34,39,-62,1805,1471,-7610,1745176320574194463
128227,-60,44,-17,2083,1547,-7736,1745176320574194463
128419,-76,25,6,2249,1653,-7830,1745176320574194463
128611,-80,0,0,2229,1713,-7859,1745176320574194463
128803,-73,-15,-22,2075,1719,-7793,1745176320574194463
128995,-59,-19,-38,1913,1646,-7739,1745176320574194463
129187,-43,-18,-45,1838,1556,-7689,1745176320574194463
129379,-32,-16,-41,1822,1458,-7662,1745176320632728408
129571,-31,-14,-35,1888,1406,-7648,1745176320632728408
129763,-41,-15,-30,1942,1397,-7652,1745176320632728408
129955,-55,-20,-32,2001,1401,-7671,1745176320632728408
130147,-70,-27,-42,2049,1440,-7698,1745176320632728408
130339,-88,-32,-54,2063,1488,-7723,1745176320632728408
130531,-103,-35,-67,2060,1547,-7751,1745176320632728408
130723,-111,-37,-79,2039,1611,-7755,1745176320632728408
130915,-115,-37,-89,1990,1674,-7763,1745176320632728408
131107,-113,-32,-96,1966,1744,-7763,1745176320632728408
131299,-108,-25,-99,1973,1796,-7745,1745176320632728408
131491,-99,-20,-100,2018,1806,-7735,1745176320632728408
131683,-91,-17,-101,2053,1800,-7723,1745176320690950584
131875,-86,-14,-103,2073,1799,-7714,1745176320690950584
132067,-81,-12,-110,2071,1779,-7707,1745176320690950584
132259,-76,-9,-118,2065,1768,-7723,1745176320690950584
132451,-71,-4,-124,2065,1766,-7739,1745176320690950584
132643,-66,3,-126,2059,1756,-7760,1745176320690950584
132835,-61,9,-127,2088,1755,-7763,1745176320690950584
133027,-57,15,-128,2116,1748,-7741,1745176320690950584
133219,-54,24,-128,2129,1768,-7743,1745176320690950584
133411,-50,30,-128,2154,1776,-7736,1745176320690950584
133603,-44,36,-126,2134,1794,-7712,1745176320690950584
133795,-37,42,-123,2126,1799,-7703,1745176320690950584
133987,-30,47,-121,2115,1800,-7685,1745176320751236596
134179,-24,52,-119,2088,1812,-7686,1745176320751236596
134371,-20,56,-118,2083,1791,-7698,1745176320751236596
134563,-16,59,-115,2072,1801,-7704,1745176320751236596
134755,-13,62,-112,2053,1814,-7708,1745176320751236596
134947,-10,67,-111,2066,1823,-7706,1745176320751236596
135139,-9,70,-111,2068,1819,-7691,1745176320751236596
135331,-7,72,-111,2075,1814,-7681,1745176320751236596
135523,-6,72,-109,2073,1796,-7688,1745176320751236596
135715,-7,73,-106,2067,1782,-7703,1745176320751236596
135907,-8,75,-103,2063,1786,-7713,1745176320751236596
136099,-10,78,-102,2056,1814,-7715,1745176320751236596
136291,-10,82,-101,2073,1822,-7696,1745176320811684950
136483,-9,82,-100,2114,1824,-7680,1745176320811684950
136675,-10,81,-98,2140,1841,-7660,1745176320811684950
136867,-11,80,-93,2135,1855,-7647,1745176320811684950
137059,-12,79,-88,2130,1900,-7630,1745176320811684950
137251,-10,79,-82,2137,1943,-7630,1745176320811684950
137443,-6,80,-77,2120,1962,-7627,1745176320811684950
137635,0,80,-72,2119,1979,-7640,1745176320811684950
137827,7,79,-69,2119,1961,-7645,1745176320811684950
138019,14,78,-67,2126,1911,-7651,1745176320811684950
138211,19,77,-62,2118,1866,-7649,1745176320811684950
138403,20,76,-54,2127,1829,-7646,1745176320811684950
138595,19,74,-47,2124,1793,-7640,1745176320864568269
138787,15,73,-40,2128,1773,-7638,1745176320864568269
138979,10,70,-33,2148,1759,-7627,1745176320864568269
139171,4,66,-28,2144,1735,-7617,1745176320864568269
139363,-3,63,-25,2157,1725,-7627,1745176320864568269
139555,-11,62,-21,2178,1725,-7624,1745176320864568269
139747,-18,60,-19,2204,1750,-7631,1745176320864568269
139939,-25,56,-16,2221,1757,-7621,1745176320864568269
140131,-28,53,-12,2195,1792,-7609,1745176320864568269
140323,-31,50,-7,2201,1797,-7610,1745176320864568269
140515,-35,48,-3,2192,1842,-7626,1745176320864568269
140707,-38,47,-1,2181,1857,-7625,1745176320864568269
140899,-39,45,2,2184,1865,-7633,1745176320925247559
141091,-38,42,4,2167,1857,-7637,1745176320925247559
141283,-38,41,8,2168,1854,-7639,1745176320925247559
141475,-38,41,11,2168,1844,-7653,1745176320925247559
141667,-38,40,14,2143,1853,-7657,1745176320925247559
141859,-37,38,16,2127,1842,-7649,1745176320925247559
142051,-36,38,20,2115,1835,-7647,1745176320925247559
142243,-35,37,25,2131,1850,-7646,1745176320925247559
142435,-33,39,29,2128,1846,-7655,1745176320925247559
142627,-31,41,31,2127,1839,-7678,1745176320925247559
142819,-29,43,32,2146,1831,-7684,1745176320925247559
143011,-27,45,33,2148,1834,-7680,1745176320925247559
143203,-24,47,35,2151,1827,-7677,1745176320981424181
143395,-22,49,38,2153,1808,-7673,1745176320981424181
143587,-22,51,40,2134,1807,-7678,1745176320981424181
143779,-19,54,41,2134,1808,-7695,1745176320981424181
143971,-16,56,42,2131,1829,-7685,1745176320981424181
144163,-10,60,43,2141,1826,-7670,1745176320981424181
144355,-6,62,43,2153,1840,-7666,1745176320981424181
144547,-2,65,42,2153,1844,-7664,1745176320981424181
144739,3,68,42,2164,1852,-7660,1745176320981424181
144931,6,70,41,2165,1838,-7656,1745176320981424181
145123,8,72,40,2183,1809,-7652,1745176320981424181
145315,10,73,39,2170,1771,-7665,1745176320981424181
145507,11,74,37,2172,1757,-7683,1745176321057633381
145699,10,75,33,2165,1748,-7669,1745176321057633381
145891,8,76,30,2141,1731,-7682,1745176321057633381
146083,6,77,29,2146,1716,-7661,1745176321057633381
146275,3,79,28,2159,1709,-7664,1745176321057633381
146467,-2,82,25,2158,1699,-7659,1745176321057633381
146659,-7,84,23,2160,1695,-7666,1745176321057633381
146851,-14,86,18,2191,1704,-7664,1745176321057633381
147043,-21,88,16,2190,1733,-7663,1745176321057633381
147235,-26,89,14,2196,1752,-7642,1745176321057633381
147427,-30,90,12,2202,1785,-7654,1745176321057633381
147619,-29,90,9,2202,1806,-7653,1745176321057633381
147811,-24,92,7,2201,1811,-7654,1745176321098163739
148003,-20,96,2,2209,1806,-7656,1745176321098163739
148195,-17,99,-2,2231,1802,-7652,1745176321098163739
148387,-16,103,-6,2228,1768,-7655,1745176321098163739
148579,-17,105,-9,2257,1733,-7662,1745176321098163739
148771,-20,109,-11,2269,1733,-7661,1745176321098163739
148963,-22,111,-13,2264,1702,-7672,1745176321098163739
149155,-23,113,-17,2257,1684,-7673,1745176321098163739
149347,-23,115,-20,2263,1670,-7672,1745176321098163739
149539,-24,118,-24,2265,1656,-7674,1745176321098163739
149731,-28,120,-27,2283,1662,-7676,1745176321098163739
149923,-33,122,-30,2280,1681,-7645,1745176321098163739
150115,-37,123,-31,2292,1721,-7615,1745176321158838966
150307,-39,125,-33,2305,1784,-7592,1745176321158838966
150499,-37,126,-35,2312,1812,-7581,1745176321158838966
150691,-34,128,-38,2345,1844,-7592,1745176321158838966
150883,-32,129,-42,2365,1839,-7589,1745176321158838966
151075,-29,130,-46,2363,1839,-7582,1745176321158838966
151267,-27,131,-50,2373,1855,-7573,1745176321158838966
151459,-26,132,-51,2367,1855,-7568,1745176321158838966
151651,-26,131,-54,2379,1857,-7583,1745176321158838966
151843,-26,131,-57,2384,1853,-7574,1745176321158838966
152035,-25,132,-57,2388,1837,-7567,1745176321158838966
152227,-25,132,-60,2398,1815,-7568,1745176321158838966
152419,-26,131,-62,2407,1807,-7574,1745176321222833955
152611,-28,132,-63,2384,1782,-7568,1745176321222833955
152803,-31,133,-65,2382,1777,-7579,1745176321222833955
152995,-36,134,-68,2373,1738,-7596,1745176321222833955
153187,-42,135,-71,2385,1745,-7596,1745176321222833955
153379,-49,134,-75,2399,1748,-7599,1745176321222833955
153571,-55,133,-77,2387,1769,-7593,1745176321222833955
153763,-60,134,-79,2383,1776,-7586,1745176321222833955
153955,-63,133,-83,2388,1777,-7585,1745176321222833955
154147,-66,133,-86,2401,1812,-7585,1745176321222833955
154339,-68,134,-89,2410,1828,-7567,1745176321222833955
154531,-69,136,-91,2420,1860,-7563,1745176321222833955
154723,-68,138,-93,2439,1894,-7566,1745176321273820312
154915,-64,140,-96,2454,1928,-7567,1745176321273820312
155107,-58,143,-99,2464,1946,-7557,1745176321273820312
155299,-48,144,-101,2472,1955,-7568,1745176321273820312
155491,-39,145,-102,2473,1947,-7573,1745176321273820312
155683,-31,147,-102,2487,1952,-7576,1745176321273820312
155875,-21,148,-102,2498,1943,-7551,1745176321273820312
156067,-13,149,-101,2503,1917,-7564,1745176321273820312
156259,-7,150,-101,2488,1908,-7561,1745176321273820312
156451,-1,151,-99,2501,1877,-7558,1745176321273820312
156643,3,154,-98,2517,1876,-7593,1745176321273820312
156835,6,155,-98,2525,1864,-7584,1745176321273820312
157027,6,157,-98,2535,1855,-7583,1745176321332929928
157219,4,157,-95,2537,1845,-7567,1745176321332929928
157411,3,156,-90,2568,1849,-7562,1745176321332929928
157603,-1,154,-85,2562,1852,-7549,1745176321332929928
157795,-7,154,-79,2563,1858,-7530,1745176321332929928
157987,-12,150,-75,2567,1905,-7538,1745176321332929928
158179,-14,147,-73,2560,1955,-7486,1745176321332929928
158371,-14,146,-72,2556,1981,-7470,1745176321332929928
158563,-13,146,-67,2568,2008,-7472,1745176321332929928
158755,-11,143,-63,2583,2029,-7490,1745176321332929928
158947,-8,141,-63,2585,2056,-7486,1745176321332929928
159139,-4,140,-65,2590,2071,-7488,1745176321332929928
159331,-1,143,-64,2589,2066,-7505,1745176321390966065
159523,3,142,-64,2592,2046,-7496,1745176321390966065
159715,7,142,-62,2627,2017,-7480,1745176321390966065
159907,11,140,-59,2626,1984,-7490,1745176321390966065
160099,13,139,-57,2613,1941,-7523,1745176321390966065
160291,15,138,-55,2599,1921,-7552,1745176321390966065
160483,14,138,-56,2586,1874,-7562,1745176321390966065
160675,9,138,-55,2595,1826,-7576,1745176321390966065
160867,1,138,-53,2597,1771,-7576,1745176321390966065
161059,-7,137,-51,2588,1735,-7595,1745176321390966065
161251,-17,135,-48,2580,1696,-7615,1745176321390966065
161443,-26,136,-47,2565,1685,-7645,1745176321390966065
161635,-35,138,-47,2543,1654,-7669,1745176321452607429
161827,-47,140,-48,2578,1615,-7685,1745176321452607429
162019,-59,140,-47,2601,1582,-7685,1745176321452607429
162211,-73,141,-46,2613,1544,-7684,1745176321452607429
162403,-90,143,-45,2614,1539,-7694,1745176321452607429
162595,-107,146,-46,2620,1515,-7739,1745176321452607429
162787,-124,152,-47,2622,1497,-7775,1745176321452607429
162979,-141,160,-47,2657,1473,-7809,1745176321452607429
163171,-161,170,-49,2707,1443,-7833,1745176321452607429
163363,-184,182,-50,2722,1418,-7868,1745176321452607429
163555,-211,195,-50,2746,1429,-7961,1745176321452607429
163747,-234,209,-52,2763,1453,-8077,1745176321452607429
163939,-247,226,-59,2753,1455,-8209,1745176321507265315
164131,-248,245,-64,2784,1436,-8338,1745176321507265315
164323,-239,267,-69,2814,1386,-8478,1745176321507265315
164515,-223,293,-73,2835,1355,-8613,1745176321507265315
164707,-200,320,-75,2899,1280,-8835,1745176321507265315
164899,-187,347,-79,3027,1128,-9043,1745176321507265315
165091,-185,374,-83,3153,934,-9228,1745176321507265315
165283,-194,399,-89,3295,621,-9351,1745176321507265315
165475,-226,422,-91,3501,239,-9752,1745176321507265315
165667,-296,431,-92,3754,-76,-10445,1745176321507265315
165859,-392,429,-90,3894,-252,-10629,1745176321507265315
166051,-480,427,-84,4019,-338,-10790,1745176321507265315
166243,-541,417,-75,4229,-444,-11079,1745176321567770491
166435,-556,396,-69,4612,-450,-12012,1745176321567770491
166627,-485,374,-47,5344,-488,-13140,1745176321567770491
166819,-321,323,-31,5672,-937,-12706,1745176321567770491
167011,-138,272,18,5526,-1222,-12789,1745176321567770491
167203,42,226,86,5316,-1218,-12953,1745176321567770491
167395,167,195,124,5191,-1022,-12770,1745176321567770491
167587,267,214,134,5150,-595,-12458,1745176321567770491
167779,431,255,193,5266,60,-12501,1745176321567770491
167971,629,322,297,5637,1034,-12620,1745176321567770491
168163,934,348,377,6137,1272,-13596,1745176321567770491
168355,1441,253,453,6689,635,-13493,1745176321567770491
168547,2049,55,570,7038,-82,-13084,1745176321630888300
168739,2657,-178,738,7080,-358,-12127,1745176321630888300
168931,2958,-417,893,6881,-684,-11450,1745176321630888300
169123,2819,-503,986,6574,-1549,-11110,1745176321630888300
169315,2417,-492,1079,6224,-3026,-10314,1745176321630888300
169507,2005,-413,1293,6164,-4901,-9905,1745176321630888300
169699,1720,-370,1673,6476,-6852,-9725,1745176321630888300
169891,1513,-415,2161,6982,-8771,-9745,1745176321630888300
170083,1295,-533,2660,7493,-10568,-9957,1745176321630888300
170275,1043,-701,3090,7759,-11902,-10114,1745176321630888300
170467,752,-870,3412,7791,-12620,-10278,1745176321630888300
170659,432,-1007,3597,7539,-12482,-10558,1745176321630888300
170851,81,-1103,3641,7278,-11565,-10800,1745176321714522276
171043,-289,-1171,3563,7176,-10077,-11002,1745176321714522276
171235,-634,-1223,3425,7232,-8294,-11174,1745176321714522276
171427,-885,-1250,3311,7422,-6489,-11221,1745176321714522276
171619,-995,-1276,3275,7704,-4766,-11105,1745176321714522276
171811,-960,-1299,3335,8052,-3286,-10722,1745176321714522276
172003,-821,-1336,3459,8304,-2105,-10254,1745176321714522276
172195,-647,-1387,3616,8495,-1379,-9861,1745176321714522276
172387,-483,-1469,3754,8649,-1044,-9550,1745176321714522276
172579,-340,-1580,3841,8582,-954,-9161,1745176321714522276
172771,-218,-1671,3895,8172,-1003,-8843,1745176321714522276
172963,-123,-1707,3945,7644,-1146,-8594,1745176321714522276
173155,-60,-1698,3999,7168,-1335,-8351,1745176321738128466
173347,-29,-1655,4066,6825,-1491,-8171,1745176321738128466
173539,-24,-1597,4154,6625,-1565,-7892,1745176321738128466
173731,-46,-1537,4253,6647,-1526,-7553,1745176321738128466
173923,-100,-1479,4346,6783,-1395,-7189,1745176321738128466
174115,-172,-1423,4430,6983,-1229,-6874,1745176321738128466
174307,-237,-1361,4501,7091,-954,-6606,1745176321738128466
174499,-284,-1289,4557,7111,-523,-6337,1745176321738128466
174691,-316,-1215,4592,7120,-68,-6064,1745176321738128466
174883,-329,-1143,4603,7142,413,-5753,1745176321738128466
175075,-331,-1080,4590,7149,906,-5513,1745176321738128466
175267,-329,-1012,4562,7206,1374,-5403,1745176321738128466
175459,-324,-936,4537,7236,1815,-5277,1745176321801646324
175651,-311,-854,4525,7268,2207,-5188,1745176321801646324
175843,-289,-773,4528,7355,2498,-5020,1745176321801646324
176035,-255,-696,4544,7434,2755,-4735,1745176321801646324
176227,-210,-630,4563,7495,2842,-4430,1745176321801646324
176419,-159,-582,4572,7599,2820,-4262,1745176321801646324
176611,-104,-549,4574,7653,2742,-4149,1745176321801646324
176803,-50,-520,4565,7628,2656,-4030,1745176321801646324
176995,-3,-487,4547,7547,2607,-3814,1745176321801646324
177187,32,-451,4518,7503,2552,-3726,1745176321801646324
177379,49,-423,4480,7459,2437,-3772,1745176321801646324
177571,65,-402,4439,7312,2424,-3744,1745176321801646324
177763,86,-378,4393,7136,2547,-3803,1745176321859801001
177955,93,-344,4341,7002,2800,-3882,1745176321859801001
178147,78,-301,4282,6903,3074,-4020,1745176321859801001
178339,64,-266,4226,6796,3358,-3963,1745176321859801001
178531,57,-243,4179,6648,3617,-3936,1745176321859801001
178723,50,-224,4137,6460,3836,-3952,1745176321859801001
178915,34,-210,4100,6249,4002,-4027,1745176321859801001
179107,16,-196,4063,5956,4083,-4037,1745176321859801001
179299,-8,-180,4020,5718,4100,-4079,1745176321859801001
179491,-38,-167,3971,5484,3985,-4090,1745176321859801001
179683,-70,-158,3920,5225,3792,-3995,1745176321859801001
179875,-109,-145,3866,4986,3567,-4043,1745176321859801001
180067,-157,-127,3802,4781,3342,-3947,1745176321916733085
180259,-219,-106,3730,4621,3072,-3803,1745176321916733085
180451,-290,-93,3654,4465,2790,-3696,1745176321916733085
180643,-364,-90,3572,4298,2601,-3615,1745176321916733085
180835,-442,-97,3488,4077,2505,-3679,1745176321916733085
181027,-524,-107,3392,3860,2503,-3891,1745176321916733085
181219,-612,-122,3283,3617,2628,-4136,1745176321916733085
181411,-690,-138,3172,3343,2801,-4248,1745176321916733085
181603,-754,-154,3061,3065,3046,-4424,1745176321916733085
181795,-804,-164,2954,2806,3291,-4490,1745176321916733085
181987,-843,-177,2847,2591,3489,-4457,1745176321916733085
182179,-867,-192,2739,2365,3666,-4449,1745176321916733085
182371,-881,-209,2630,2132,3842,-4538,1745176321980691459
182563,-890,-225,2519,1873,3962,-4695,1745176321980691459
182755,-891,-235,2401,1627,4037,-4921,1745176321980691459
182947,-879,-243,2283,1335,4057,-5123,1745176321980691459
183139,-851,-239,2167,1071,4040,-5351,1745176321980691459
183331,-811,-228,2057,812,4006,-5584,1745176321980691459
183523,-765,-211,1954,595,3925,-5776,1745176321980691459
183715,-713,-188,1854,393,3871,-5888,1745176321980691459
183907,-654,-157,1764,226,3858,-6115,1745176321980691459
184099,-585,-123,1681,68,3848,-6283,1745176321980691459
184291,-505,-88,1602,-52,3871,-6433,1745176321980691459
184483,-413,-55,1519,-120,3898,-6583,1745176321980691459
184675,-308,-19,1438,-202,3932,-6666,1745176322043153544
184867,-192,23,1365,-216,3917,-6707,1745176322043153544
185059,-74,64,1294,-213,3784,-6743,1745176322043153544
185251,39,105,1217,-192,3572,-6795,1745176322043153544
185443,144,145,1142,-178,3316,-6801,1745176322043153544
185635,230,180,1072,-120,3021,-6872,1745176322043153544
185827,294,203,1005,-94,2759,-6989,1745176322043153544
186019,331,218,942,-61,2561,-7100,1745176322043153544
186211,343,225,886,17,2360,-7219,1745176322043153544
186403,339,229,836,63,2139,-7295,1745176322043153544
186595,324,236,791,72,1998,-7421,1745176322043153544
186787,306,250,755,110,1912,-7545,1745176322043153544
186979,287,259,722,173,1863,-7685,1745176322119960551
187171,260,242,676,467,1727,-7860,1745176322119960551
187363,224,209,610,512,1668,-7955,1745176322119960551
187555,197,170,554,721,1537,-8063,1745176322119960551
187747,154,117,449,787,1200,-8065,1745176322119960551
187939,50,62,280,512,1125,-8163,1745176322119960551
188131,-46,61,187,-122,1218,-8218,1745176322119960551
188323,-74,134,245,-432,1149,-8097,1745176322119960551
188515,-60,220,332,-286,1005,-8063,1745176322119960551
188707,-44,268,384,-117,1161,-8101,1745176322119960551
188899,-46,256,438,240,1201,-8126,1745176322119960551
189091,-55,234,475,611,1194,-8175,1745176322119960551
189283,-54,226,488,765,1213,-8162,1745176322170200665
189475,-43,220,489,784,1239,-8188,1745176322170200665
189667,-28,213,470,786,1188,-8294,1745176322170200665
189859,-10,199,413,749,1089,-8310,1745176322170200665
190051,15,169,337,615,970,-8321,1745176322170200665
190243,41,145,272,533,776,-8313,1745176322170200665
190435,53,124,235,471,615,-8271,1745176322170200665
190627,55,118,236,390,505,-8281,1745176322170200665
190819,59,119,258,335,490,-8323,1745176322170200665
191011,70,124,282,292,500,-8344,1745176322170200665
191203,79,123,288,304,517,-8335,1745176322170200665
191395,80,125,280,263,531,-8356,1745176322170200665
191587,76,133,264,267,516,-8425,1745176322225038445
191779,69,144,240,276,464,-8466,1745176322225038445
191971,63,153,214,324,399,-8502,1745176322225038445
192163,54,154,195,392,289,-8495,1745176322225038445
192355,42,153,183,420,223,-8543,1745176322225038445
192547,25,146,186,414,171,-8540,1745176322225038445
192739,10,145,198,421,183,-8539,1745176322225038445
192931,1,136,202,458,182,-8504,1745176322225038445
193123,-6,124,193,467,166,-8471,1745176322225038445
193315,-12,111,174,483,134,-8482,1745176322225038445
193507,-16,96,149,517,102,-8479,1745176322225038445
193699,-19,86,118,532,92,-8499,1745176322225038445
193891,-21,75,87,544,120,-8511,1745176322276858128
194083,-20,64,61,571,129,-8489,1745176322276858128
194275,-20,58,32,567,104,-8455,1745176322276858128
194467,-16,54,9,560,75,-8422,1745176322276858128
194659,-7,52,-6,581,46,-8406,1745176322276858128
194851,0,45,-19,603,13,-8377,1745176322276858128
195043,2,37,-28,613,-50,-8282,1745176322276858128
195235,0,29,-34,601,-104,-8248,1745176322276858128
195427,-5,21,-37,587,-172,-8260,1745176322276858128
195619,-10,14,-42,569,-188,-8261,1745176322276858128
195811,-18,5,-49,564,-172,-8249,1745176322276858128
196003,-28,0,-57,534,-152,-8258,1745176322276858128
196195,-34,-2,-62,525,-138,-8237,1745176322327439854
196387,-34,-1,-64,515,-162,-8231,1745176322327439854
196579,-29,4,-61,475,-176,-8258,1745176322327439854
196771,-23,12,-52,489,-217,-8263,1745176322327439854
196963,-15,22,-41,529,-230,-8302,1745176322327439854
197155,-8,29,-28,573,-246,-8286,1745176322327439854
197347,-1,36,-15,615,-267,-8277,1745176322327439854
197539,8,42,0,645,-276,-8290,1745176322327439854
197731,21,44,15,663,-288,-8288,1745176322327439854
197923,36,40,28,645,-299,-8298,1745176322327439854
198115,50,35,34,580,-311,-8295,1745176322327439854
198307,61,30,34,528,-298,-8288,1745176322327439854
198499,73,31,30,475,-275,-8286,1745176322384676050
198691,86,35,24,463,-272,-8283,1745176322384676050
198883,97,41,17,496,-319,-8248,1745176322384676050
199075,103,48,11,522,-376,-8242,1745176322384676050
199267,105,52,6,569,-479,-8258,1745176322384676050
199459,106,52,5,627,-547,-8252,1745176322384676050
199651,105,47,7,662,-565,-8233,1745176322384676050
199843,101,39,11,671,-534,-8227,1745176322384676050
200035,89,26,14,641,-476,-8211,1745176322384676050
200227,75,15,13,626,-419,-8230,1745176322384676050
200419,67,3,6,589,-397,-8241,1745176322384676050
200611,64,-5,-6,533,-368,-8248,1745176322384676050
200803,64,-5,-21,530,-340,-8301,1745176322479472892
200995,63,1,-35,534,-343,-8264,1745176322479472892
201187,60,10,-42,554,-364,-8229,1745176322479472892
201379,55,16,-42,609,-421,-8240,1745176322479472892
201571,49,16,-38,660,-476,-8227,1745176322479472892
201763,41,12,-35,694,-542,-8230,1745176322479472892
201955,34,1,-36,686,-568,-8247,1745176322479472892
202147,23,-9,-40,672,-599,-8256,1745176322479472892
202339,11,-18,-44,628,-620,-8244,1745176322479472892
202531,1,-24,-47,575,-600,-8228,1745176322479472892
202723,-4,-29,-48,527,-556,-8234,1745176322479472892
202915,-5,-30,-46,495,-491,-8218,1745176322479472892
203107,0,-29,-43,471,-393,-8210,1745176322502595181
203299,8,-25,-41,453,-363,-8179,1745176322502595181
203491,20,-20,-38,497,-344,-8176,1745176322502595181
203683,37,-15,-36,535,-360,-8156,1745176322502595181
203875,54,-11,-33,573,-370,-8142,1745176322502595181
204067,67,-9,-31,624,-380,-8136,1745176322502595181
204259,75,-9,-31,620,-431,-8103,1745176322502595181
204451,78,-9,-32,647,-521,-8072,1745176322502595181
204643,78,-11,-33,668,-586,-8065,1745176322502595181
204835,74,-13,-35,635,-639,-8042,1745176322502595181
205027,68,-17,-38,622,-659,-8056,1745176322502595181
205219,63,-22,-42,606,-641,-8081,1745176322502595181
205411,57,-26,-45,573,-614,-8084,1745176322560451736
205603,53,-28,-49,592,-612,-8122,1745176322560451736
205795,47,-29,-55,608,-628,-8147,1745176322560451736
205987,41,-31,-60,611,-650,-8143,1745176322560451736
206179,35,-34,-62,614,-678,-8165,1745176322560451736
206371,27,-39,-62,611,-675,-8162,1745176322560451736
206563,17,-45,-60,607,-651,-8154,1745176322560451736
206755,5,-50,-57,574,-649,-8126,1745176322560451736
206947,-4,-50,-53,539,-652,-8109,1745176322560451736
207139,-9,-49,-49,522,-676,-8086,1745176322560451736
207331,-12,-45,-44,507,-664,-8072,1745176322560451736
207523,-12,-41,-41,519,-660,-8102,1745176322560451736
207715,-11,-36,-38,524,-630,-8099,1745176322656383359
207907,-7,-32,-35,558,-618,-8073,1745176322656383359
208099,-1,-30,-34,591,-613,-8068,1745176322656383359
208291,6,-28,-32,610,-635,-8047,1745176322656383359
208483,12,-27,-30,628,-662,-8087,1745176322656383359
208675,17,-30,-29,605,-677,-8104,1745176322656383359
208867,21,-34,-24,572,-666,-8130,1745176322656383359
209059,23,-39,-21,556,-626,-8137,1745176322656383359
209251,25,-41,-18,518,-587,-8131,1745176322656383359
209443,25,-39,-15,499,-586,-8116,1745176322656383359
209635,25,-36,-14,481,-590,-8083,1745176322656383359
209827,27,-32,-15,504,-641,-8073,1745176322656383359
210019,28,-29,-14,515,-657,-8058,1745176322682937544
210211,25,-27,-12,540,-668,-8039,1745176322682937544
210403,20,-28,-10,569,-657,-8024,1745176322682937544
210595,12,-33,-10,579,-632,-8044,1745176322682937544
210787,3,-37,-12,559,-612,-8041,1745176322682937544
210979,-7,-42,-15,529,-594,-8052,1745176322682937544
211171,-13,-45,-19,492,-580,-8104,1745176322682937544
211363,-16,-47,-23,483,-587,-8115,1745176322682937544
211555,-17,-48,-26,463,-549,-8097,1745176322682937544
211747,-18,-49,-26,454,-521,-8078,1745176322682937544
211939,-20,-47,-28,431,-510,-8036,1745176322682937544
212131,-22,-44,-29,431,-521,-8017,1745176322682937544
212323,-18,-38,-30,448,-530,-8010,1745176322790754736
212515,-9,-32,-30,459,-508,-8039,1745176322790754736
212707,-3,-28,-28,490,-519,-8032,1745176322790754736
212899,-2,-25,-27,508,-541,-8029,1745176322790754736
213091,-5,-25,-27,519,-565,-8043,1745176322790754736
213283,-6,-25,-27,513,-595,-8046,1745176322790754736
213475,-6,-25,-27,499,-625,-8039,1745176322790754736
213667,-7,-26,-27,476,-626,-8056,1745176322790754736
213859,-9,-25,-28,472,-585,-8066,1745176322790754736
214051,-11,-25,-30,458,-540,-8068,1745176322790754736
214243,-12,-23,-31,449,-512,-8072,1745176322790754736
214435,-9,-22,-31,466,-514,-8031,1745176322790754736
214627,-5,-21,-32,484,-538,-8016,1745176322799416271
214819,0,-21,-31,501,-569,-7994,1745176322799416271
215011,2,-20,-29,513,-593,-7972,1745176322799416271
215203,2,-20,-28,525,-616,-7975,1745176322799416271
215395,-1,-20,-26,507,-626,-7987,1745176322799416271
215587,-3,-23,-25,487,-634,-7989,1745176322799416271
215779,-9,-23,-25,454,-653,-7998,1745176322799416271
215971,-18,-24,-28,453,-682,-7993,1745176322799416271
216163,-24,-22,-29,423,-709,-8008,1745176322799416271
216355,-26,-19,-30,415,-691,-8038,1745176322799416271
216547,-26,-17,-29,396,-665,-8060,1745176322799416271
216739,-27,-14,-29,412,-640,-8067,1745176322799416271
216931,-25,-10,-28,426,-604,-8052,1745176322858180162
217123,-20,-5,-25,459,-606,-8050,1745176322858180162
217315,-10,-2,-22,482,-580,-8052,1745176322858180162
217507,3,-2,-18,486,-561,-8036,1745176322858180162
217699,12,-4,-15,482,-559,-8037,1745176322858180162
217891,18,-5,-13,485,-572,-8025,1745176322858180162
218083,21,-8,-13,455,-573,-8026,1745176322858180162
218275,23,-9,-16,444,-615,-8026,1745176322858180162
218467,23,-9,-20,424,-677,-8036,1745176322858180162
218659,24,-10,-23,402,-705,-8048,1745176322858180162
218851,24,-9,-24,386,-720,-8066,1745176322858180162
219043,18,-7,-25,377,-721,-8076,1745176322858180162
219235,10,-4,-22,404,-728,-8078,1745176322924482056
219427,7,-2,-21,423,-696,-8066,1745176322924482056
219619,10,-2,-19,435,-661,-8060,1745176322924482056
219811,12,-1,-17,441,-625,-8053,1745176322924482056
220003,18,1,-17,483,-627,-8045,1745176322924482056
220195,23,3,-16,495,-640,-8034,1745176322924482056
220387,27,4,-17,498,-686,-8041,1745176322924482056
220579,27,2,-17,509,-709,-8053,1745176322924482056
220771,24,-1,-15,507,-726,-8055,1745176322924482056
220963,18,-6,-13,499,-730,-8079,1745176322924482056
221155,10,-9,-11,472,-735,-8058,1745176322924482056
221347,3,-10,-11,461,-740,-8023,1745176322924482056
221539,-5,-11,-10,441,-742,-8024,1745176323006041155
221731,-13,-10,-11,432,-717,-8030,1745176323006041155
221923,-18,-8,-10,424,-705,-8041,1745176323006041155
222115,-21,-7,-11,439,-655,-8034,1745176323006041155
222307,-23,-7,-13,463,-645,-8059,1745176323006041155
222499,-21,-7,-15,468,-626,-8078,1745176323006041155
222691,-15,-7,-16,471,-594,-8049,1745176323006041155
222883,-9,-6,-16,476,-597,-8040,1745176323006041155
223075,-2,-4,-16,490,-624,-8043,1745176323006041155
223267,2,-4,-17,482,-665,-8035,1745176323006041155
223459,8,-3,-17,475,-706,-8029,1745176323006041155
223651,12,-3,-15,460,-714,-8013,1745176323006041155
223843,12,-1,-12,431,-730,-8020,1745176323041713121
224035,9,0,-9,390,-725,-8008,1745176323041713121
224227,8,4,-5,378,-706,-8043,1745176323041713121
224419,8,12,-3,370,-699,-8066,1745176323041713121
224611,11,18,1,388,-664,-8078,1745176323041713121
224803,18,23,4,425,-643,-8099,1745176323041713121
224995,28,26,8,453,-619,-8097,1745176323041713121
225187,36,29,13,489,-602,-8086,1745176323041713121
225379,46,29,17,530,-601,-8085,1745176323041713121
225571,56,27,21,523,-603,-8102,1745176323041713121
225763,67,22,20,511,-570,-8074,1745176323041713121
225955,76,14,20,501,-584,-8035,1745176323041713121
226147,79,9,16,467,-601,-8034,1745176323098814630
226339,81,6,12,426,-636,-8045,1745176323098814630
226531,80,5,7,409,-652,-8074,1745176323098814630
226723,75,5,1,378,-666,-8064,1745176323098814630
226915,65,4,-2,372,-707,-8068,1745176323098814630
227107,50,8,-3,379,-735,-8074,1745176323098814630
227299,37,12,-1,396,-747,-8071,1745176323098814630
227491,26,14,4,419,-737,-8051,1745176323098814630
227683,15,16,8,462,-735,-8063,1745176323098814630
227875,5,17,11,477,-707,-8074,1745176323098814630
228067,-6,17,11,488,-702,-8080,1745176323098814630
228259,-13,17,10,519,-698,-8086,1745176323098814630
228451,-15,15,10,508,-695,-8086,1745176323172481249
228643,-14,13,10,522,-679,-8092,1745176323172481249
228835,-12,11,10,495,-671,-8076,1745176323172481249
229027,-12,8,11,482,-638,-8072,1745176323172481249
229219,-12,8,10,466,-623,-8080,1745176323172481249
229411,-10,8,9,440,-606,-8075,1745176323172481249
229603,-6,8,6,425,-579,-8081,1745176323172481249
229795,-1,10,3,429,-570,-8097,1745176323172481249
229987,4,11,-1,418,-571,-8078,1745176323172481249
230179,11,13,-3,402,-584,-8066,1745176323172481249
230371,15,16,-4,417,-594,-8063,1745176323172481249
230563,18,19,-3,426,-600,-8035,1745176323172481249
230755,19,24,-3,455,-610,-8033,1745176323211580319
230947,22,24,-3,489,-636,-8032,1745176323211580319
231139,22,22,-5,509,-646,-8052,1745176323211580319
231331,21,20,-7,515,-671,-8063,1745176323211580319
231523,18,18,-9,498,-658,-8056,1745176323211580319
231715,14,15,-10,507,-680,-8063,1745176323211580319
231907,9,13,-12,484,-682,-8070,1745176323211580319
232099,7,12,-13,470,-673,-8072,1745176323211580319
232291,4,13,-14,438,-671,-8056,1745176323211580319
232483,1,14,-15,445,-692,-8068,1745176323211580319
232675,-3,16,-14,449,-709,-8063,1745176323211580319
232867,-4,18,-13,462,-726,-8068,1745176323211580319
233059,-4,18,-12,470,-714,-8071,1745176323454967991
233251,-4,18,-10,480,-687,-8069,1745176323454967991
233443,-4,16,-8,476,-650,-8065,1745176323454967991
233635,-4,16,-8,459,-611,-8054,1745176323454967991
233827,-1,17,-9,457,-618,-8037,1745176323454967991
234019,3,20,-10,465,-628,-8035,1745176323454967991
234211,9,21,-12,477,-631,-8070,1745176323454967991
234403,11,21,-13,478,-635,-8065,1745176323454967991
234595,10,21,-15,493,-647,-8079,1745176323454967991
234787,9,20,-17,497,-682,-8082,1745176323454967991
234979,8,21,-20,492,-711,-8070,1745176323454967991
235171,6,23,-21,496,-761,-8079,1745176323454967991
235363,3,23,-20,489,-795,-8093,1745176323493427484
235555,0,23,-18,490,-808,-8099,1745176323493427484
235747,-3,19,-15,467,-796,-8105,1745176323493427484
235939,-6,18,-10,427,-763,-8123,1745176323493427484
236131,-6,18,-8,430,-707,-8134,1745176323493427484
236323,-6,21,-5,442,-680,-8117,1745176323493427484
236515,-2,25,-3,459,-692,-8101,1745176323493427484
236707,4,29,-1,483,-698,-8106,1745176323493427484
236899,10,31,3,499,-712,-8104,1745176323493427484
237091,13,31,8,530,-704,-8115,1745176323493427484
237283,14,29,14,537,-700,-8100,1745176323493427484
237475,15,27,19,560,-691,-8078,1745176323493427484
237667,12,27,21,583,-706,-8072,1745176323559130529
237859,8,26,22,579,-717,-8079,1745176323559130529
238051,5,25,19,565,-723,-8111,1745176323559130529
238243,2,21,13,585,-722,-8123,1745176323559130529
238435,-2,16,8,548,-694,-8117,1745176323559130529
238627,-8,10,3,507,-681,-8135,1745176323559130529
238819,-12,6,-2,471,-682,-8133,1745176323559130529
239011,-14,6,-4,442,-685,-8130,1745176323559130529
239203,-12,9,-5,421,-676,-8117,1745176323559130529
239395,-8,14,-6,439,-676,-8125,1745176323559130529
239587,-4,19,-5,454,-657,-8125,1745176323559130529
239779,0,22,-4,484,-667,-8131,1745176323559130529
239971,2,23,-3,499,-670,-8126,1745176323567372694
240163,2,24,-2,519,-703,-8127,1745176323567372694
240355,-1,24,0,529,-715,-8118,1745176323567372694
240547,-5,24,2,547,-716,-8100,1745176323567372694
240739,-10,21,4,557,-740,-8115,1745176323567372694
240931,-13,18,4,564,-736,-8133,1745176323567372694
241123,-18,13,3,544,-722,-8120,1745176323567372694
241315,-25,10,1,542,-742,-8128,1745176323567372694
241507,-31,7,0,539,-769,-8142,1745176323567372694
241699,-36,5,0,529,-771,-8156,1745176323567372694
241891,-37,3,2,503,-738,-8169,1745176323567372694
242083,-38,3,7,499,-687,-8180,1745176323567372694
242275,-38,4,10,486,-639,-8163,1745176323721081810
242467,-37,5,11,506,-651,-8137,1745176323721081810
242659,-31,7,12,508,-659,-8114,1745176323721081810
242851,-24,8,13,522,-679,-8107,1745176323721081810
243043,-17,9,13,519,-687,-8123,1745176323721081810
243235,-15,10,13,520,-650,-8138,1745176323721081810
243427,-15,11,13,527,-645,-8129,1745176323721081810
243619,-16,11,12,530,-636,-8136,1745176323721081810
243811,-12,11,11,518,-631,-8124,1745176323721081810
244003,-6,10,10,504,-610,-8143,1745176323721081810
244195,-1,9,7,489,-614,-8142,1745176323721081810
244387,1,9,4,498,-617,-8126,1745176323721081810
244579,1,10,1,493,-638,-8122,1745176323729615795
244771,3,10,-2,509,-650,-8115,1745176323729615795
244963,7,11,-4,535,-657,-8115,1745176323729615795
245155,10,12,-5,536,-657,-8099,1745176323729615795
245347,10,12,-4,562,-691,-8103,1745176323729615795
245539,7,9,-5,568,-729,-8106,1745176323729615795
245731,4,5,-6,550,-734,-8133,1745176323729615795
245923,-1,0,-5,535,-743,-8142,1745176323729615795
246115,-6,-6,-6,501,-727,-8149,1745176323729615795
246307,-11,-8,-6,480,-712,-8153,1745176323729615795
246499,-15,-7,-6,448,-673,-8139,1745176323729615795
246691,-17,-3,-6,459,-651,-8130,1745176323729615795
246883,-15,0,-6,477,-673,-8138,1745176323737774679
247075,-8,4,-5,492,-678,-8145,1745176323737774679
247267,-2,5,-4,514,-682,-8133,1745176323737774679
247459,2,7,-1,551,-668,-8151,1745176323737774679
247651,4,8,1,550,-667,-8128,1745176323737774679
247843,6,6,3,546,-670,-8125,1745176323737774679
248035,10,2,5,540,-670,-8101,1745176323737774679
248227,12,-1,5,527,-678,-8088,1745176323737774679
248419,11,-1,5,524,-682,-8077,1745176323737774679
248611,7,-1,4,508,-692,-8076,1745176323737774679
248803,1,-1,1,509,-698,-8076,1745176323737774679
248995,-4,-1,-1,507,-706,-8070,1745176323737774679
249187,-7,-2,-1,502,-724,-8063,1745176323745979291
249379,-13,-3,1,503,-702,-8075,1745176323745979291
249571,-17,-3,2,510,-681,-8076,1745176323745979291
249763,-19,-1,3,497,-655,-8067,1745176323745979291
249955,-16,2,5,523,-658,-8056,1745176323745979291
250147,-10,4,5,511,-647,-8048,1745176323745979291
250339,-3,4,4,520,-644,-8039,1745176323745979291
250531,1,5,3,521,-672,-8003,1745176323745979291
250723,3,5,3,519,-708,-8029,1745176323745979291
250915,3,6,4,522,-725,-8035,1745176323745979291
251107,3,6,6,506,-717,-8043,1745176323745979291
251299,2,5,9,495,-675,-8068,1745176323745979291
251491,2,4,10,488,-624,-8092,1745176323799283856
251683,3,5,9,465,-601,-8097,1745176323799283856
251875,6,7,8,454,-609,-8084,1745176323799283856
252067,11,10,7,481,-622,-8068,1745176323799283856
252259,16,14,6,494,-636,-8081,1745176323799283856
252451,19,16,6,522,-634,-8071,1745176323799283856
252643,19,16,6,545,-644,-8063,1745176323799283856
252835,17,16,6,564,-684,-8031,1745176323799283856
253027,13,14,4,556,-721,-8018,1745176323799283856
253219,8,12,3,568,-744,-8003,1745176323799283856
253411,1,10,2,551,-748,-8018,1745176323799283856
253603,-7,9,0,531,-742,-8034,1745176323799283856
253795,-15,6,-3,503,-730,-8055,1745176323896532760
253987,-22,3,-6,474,-700,-8052,1745176323896532760
254179,-28,2,-8,459,-677,-8049,1745176323896532760
254371,-32,4,-8,449,-681,-8046,1745176323896532760
254563,-30,8,-6,453,-685,-8046,1745176323896532760
254755,-25,10,-4,474,-684,-8052,1745176323896532760
254947,-19,11,-1,474,-664,-8052,1745176323896532760
255139,-13,12,2,492,-655,-8038,1745176323896532760
255331,-8,14,6,502,-634,-8035,1745176323896532760
255523,-4,16,9,508,-642,-8025,1745176323896532760
255715,1,17,9,531,-645,-8013,1745176323896532760
255907,5,18,9,515,-681,-8019,1745176323896532760
256099,8,19,9,531,-684,-8019,1745176323905040286
256291,8,18,9,527,-682,-8033,1745176323905040286
256483,6,17,8,527,-660,-8024,1745176323905040286
256675,3,14,6,527,-647,-8013,1745176323905040286
256867,1,13,3,511,-637,-8006,1745176323905040286
257059,1,13,1,497,-650,-8001,1745176323905040286
257251,1,14,-1,504,-671,-8001,1745176323905040286
257443,0,15,-3,498,-700,-8015,1745176323905040286
257635,-1,18,-5,494,-736,-8024,1745176323905040286
257827,-1,21,-4,499,-741,-8055,1745176323905040286
258019,-2,24,-4,524,-735,-8075,1745176323905040286
258211,-1,25,-3,525,-727,-8083,1745176323905040286
258403,-1,24,-2,540,-711,-8100,1745176323913476355
258595,2,23,0,527,-693,-8091,1745176323913476355
258787,4,21,3,534,-665,-8079,1745176323913476355
258979,6,20,5,532,-660,-8068,1745176323913476355
259171,7,22,6,515,-672,-8060,1745176323913476355
259363,10,24,8,503,-717,-8057,1745176323913476355
259555,12,26,12,506,-743,-8069,1745176323913476355
259747,11,27,14,511,-746,-8083,1745176323913476355
259939,7,26,15,493,-714,-8092,1745176323913476355
260131,2,25,14,486,-699,-8094,1745176323913476355
260323,-4,24,13,500,-694,-8117,1745176323913476355
260515,-7,23,7,502,-690,-8118,1745176323913476355
260707,-7,22,3,529,-696,-8115,1745176323992180584
260899,-9,20,-1,533,-691,-8122,1745176323992180584
261091,-11,17,-4,544,-707,-8130,1745176323992180584
261283,-11,14,-6,527,-695,-8118,1745176323992180584
261475,-13,11,-6,530,-698,-8112,1745176323992180584
261667,-14,9,-5,528,-684,-8136,1745176323992180584
261859,-13,11,-5,516,-673,-8135,1745176323992180584
262051,-10,13,-5,507,-659,-8136,1745176323992180584
262243,-7,14,-5,534,-654,-8123,1745176323992180584
262435,-7,16,-5,515,-689,-8113,1745176323992180584
262627,-8,17,-4,529,-695,-8131,1745176323992180584
262819,-8,19,-4,545,-727,-8137,1745176323992180584
263011,-7,22,-3,561,-740,-8162,1745176324025525331
263203,-7,24,0,578,-734,-8153,1745176324025525331
263395,-8,25,2,604,-745,-8138,1745176324025525331
263587,-8,22,5,609,-711,-8143,1745176324025525331
263779,-5,19,7,601,-687,-8136,1745176324025525331
263971,-1,14,7,591,-672,-8129,1745176324025525331
264163,2,9,6,566,-665,-8125,1745176324025525331
264355,4,7,4,529,-674,-8117,1745176324025525331
264547,5,7,2,530,-703,-8106,1745176324025525331
264739,5,8,2,511,-725,-8113,1745176324025525331
264931,4,10,3,520,-736,-8125,1745176324025525331
265123,-1,11,4,546,-738,-8136,1745176324025525331
265315,-7,12,5,547,-718,-8123,1745176324119238850
265507,-10,11,6,542,-712,-8114,1745176324119238850
265699,-12,10,5,533,-706,-8127,1745176324119238850
265891,-14,12,2,529,-712,-8118,1745176324119238850
266083,-15,12,1,536,-734,-8136,1745176324119238850
266275,-16,10,-1,535,-716,-8151,1745176324119238850
266467,-17,8,-1,527,-695,-8159,1745176324119238850
266659,-17,6,0,536,-671,-8149,1745176324119238850
266851,-16,6,0,530,-639,-8148,1745176324119238850
267043,-13,7,-1,540,-665,-8155,1745176324119238850
267235,-7,8,0,558,-674,-8133,1745176324119238850
267427,-2,7,0,556,-686,-8137,1745176324119238850
267619,0,6,1,580,-684,-8133,1745176324145846107
267811,-1,5,3,557,-708,-8116,1745176324145846107
268003,-5,3,5,556,-728,-8076,1745176324145846107
268195,-11,1,7,531,-739,-8068,1745176324145846107
268387,-15,1,7,538,-723,-8051,1745176324145846107
268579,-19,1,6,520,-714,-8056,1745176324145846107
268771,-21,1,4,532,-675,-8092,1745176324145846107
268963,-22,3,2,539,-650,-8090,1745176324145846107
269155,-18,3,0,545,-611,-8081,1745176324145846107
269347,-11,3,-1,553,-580,-8074,1745176324145846107
269539,-5,2,-2,549,-584,-8092,1745176324145846107
269731,-1,0,-3,535,-588,-8088,1745176324145846107
269923,4,0,-4,517,-615,-8077,1745176324197909642
270115,7,1,-3,504,-636,-8075,1745176324197909642
270307,5,2,-4,481,-664,-8063,1745176324197909642
270499,1,3,-6,490,-674,-8076,1745176324197909642
270691,-3,6,-8,522,-691,-8067,1745176324197909642
270883,-6,10,-8,542,-709,-8048,1745176324197909642
271075,-10,12,-6,564,-707,-8045,1745176324197909642
271267,-14,12,-4,588,-668,-8039,1745176324197909642
271459,-16,8,-3,598,-640,-8024,1745176324197909642
271651,-17,3,-4,596,-624,-8003,1745176324197909642
271843,-14,0,-7,558,-614,-8014,1745176324197909642
272035,-11,-3,-9,517,-628,-8022,1745176324197909642
272227,-7,-2,-12,488,-650,-8017,1745176324264218568
272419,-3,0,-13,454,-652,-8023,1745176324264218568
272611,-1,5,-12,460,-655,-8027,1745176324264218568
272803,0,10,-11,467,-621,-8038,1745176324264218568
272995,1,13,-10,495,-606,-8035,1745176324264218568
273187,3,16,-11,529,-628,-8030,1745176324264218568
273379,5,18,-12,563,-627,-8017,1745176324264218568
273571,9,19,-12,590,-658,-8013,1745176324264218568
273763,11,19,-12,608,-652,-8003,1745176324264218568
273955,10,16,-10,595,-660,-7979,1745176324264218568
274147,5,11,-9,599,-655,-7983,1745176324264218568
274339,0,10,-11,577,-670,-7977,1745176324264218568
274531,-5,10,-13,547,-685,-7992,1745176324316239863
274723,-9,11,-16,544,-679,-8003,1745176324316239863
274915,-14,11,-18,545,-678,-8007,1745176324316239863
275107,-19,12,-20,553,-671,-8029,1745176324316239863
275299,-20,12,-21,559,-655,-8029,1745176324316239863
275491,-19,10,-21,540,-609,-8037,1745176324316239863
275683,-16,10,-20,516,-576,-8024,1745176324316239863
275875,-14,12,-22,518,-592,-8023,1745176324316239863
276067,-12,15,-22,506,-630,-7996,1745176324316239863
276259,-5,19,-22,523,-671,-7987,1745176324316239863
276451,2,23,-19,529,-679,-7968,1745176324316239863
276643,5,24,-18,529,-658,-7976,1745176324316239863
276835,5,24,-16,521,-633,-7976,1745176324394878364
277027,5,25,-14,529,-632,-7973,1745176324394878364
277219,6,25,-14,543,-648,-7943,1745176324394878364
277411,8,27,-13,556,-647,-7955,1745176324394878364
277603,10,29,-13,567,-660,-7947,1745176324394878364
277795,10,31,-12,588,-663,-7924,1745176324394878364
277987,7,35,-12,611,-704,-7929,1745176324394878364
278179,5,39,-13,664,-790,-7895,1745176324394878364
278371,4,42,-12,699,-888,-7860,1745176324394878364
278563,3,45,-9,718,-967,-7827,1745176324394878364
278755,-4,46,-5,732,-997,-7848,1745176324394878364
278947,-10,46,1,732,-997,-7860,1745176324394878364
279139,-14,45,7,683,-985,-7858,1745176324437368913
279331,-11,43,12,653,-943,-7857,1745176324437368913
279523,-7,44,16,600,-938,-7854,1745176324437368913
279715,-4,48,20,543,-933,-7891,1745176324437368913
279907,0,54,25,508,-923,-7913,1745176324437368913
280099,7,60,30,471,-915,-7933,1745176324437368913
280291,14,67,40,463,-901,-7960,1745176324437368913
280483,22,78,51,468,-884,-7974,1745176324437368913
280675,28,90,62,520,-862,-7977,1745176324437368913
280867,35,99,74,552,-869,-7992,1745176324437368913
281059,45,106,84,606,-873,-8021,1745176324437368913
281251,56,108,90,672,-859,-8023,1745176324437368913
281443,64,107,93,711,-848,-8031,1745176324515749551
281635,67,103,95,718,-868,-8055,1745176324515749551
281827,65,95,93,724,-870,-8040,1745176324515749551
282019,59,89,88,702,-865,-8044,1745176324515749551
282211,51,83,85,683,-883,-8058,1745176324515749551
282403,40,79,79,650,-868,-8095,1745176324515749551
282595,29,74,73,620,-828,-8122,1745176324515749551
282787,18,70,67,599,-815,-8122,1745176324515749551
282979,9,68,62,590,-784,-8124,1745176324515749551
283171,3,68,58,602,-792,-8131,1745176324515749551
283363,-2,68,55,620,-762,-8124,1745176324515749551
283555,-5,67,53,633,-751,-8104,1745176324515749551
283747,-9,66,52,650,-745,-8102,1745176324603323959
283939,-10,66,52,657,-730,-8095,1745176324603323959
284131,-8,67,51,681,-725,-8099,1745176324603323959
284323,-4,67,52,702,-729,-8104,1745176324603323959
284515,-1,67,54,701,-722,-8104,1745176324603323959
284707,-1,67,55,717,-720,-8105,1745176324603323959
284899,0,67,58,715,-707,-8122,1745176324603323959
285091,-1,66,59,711,-691,-8153,1745176324603323959
285283,1,66,60,695,-662,-8169,1745176324603323959
285475,4,66,60,680,-633,-8183,1745176324603323959
285667,12,67,61,663,-595,-8202,1745176324603323959
285859,22,68,62,677,-575,-8180,1745176324603323959
286051,32,70,63,669,-584,-8193,1745176324611894402
286243,43,70,62,690,-579,-8203,1745176324611894402
286435,52,70,61,716,-577,-8195,1745176324611894402
286627,58,68,59,724,-596,-8199,1745176324611894402
286819,61,63,56,718,-592,-8208,1745176324611894402
287011,58,60,51,705,-603,-8208,1745176324611894402
287203,53,57,47,700,-628,-8216,1745176324611894402
287395,48,55,42,698,-635,-8201,1745176324611894402
287587,41,52,40,683,-647,-8175,1745176324611894402
287779,30,50,37,694,-683,-8197,1745176324611894402
287971,20,46,35,710,-690,-8199,1745176324611894402
288163,12,42,34,682,-677,-8214,1745176324611894402
288355,5,38,31,700,-630,-8215,1745176324688946667
288547,-1,35,29,700,-584,-8199,1745176324688946667
288739,-4,34,26,712,-515,-8183,1745176324688946667
288931,-4,33,23,737,-486,-8201,1745176324688946667
289123,0,32,19,741,-501,-8184,1745176324688946667
289315,5,31,14,768,-517,-8185,1745176324688946667
289507,6,26,10,748,-551,-8170,1745176324688946667
289699,4,22,6,741,-583,-8166,1745176324688946667
289891,-1,18,5,698,-585,-8133,1745176324688946667
290083,-10,16,4,659,-554,-8112,1745176324688946667
290275,-18,15,3,624,-512,-8098,1745176324688946667
290467,-24,15,0,593,-462,-8082,1745176324688946667
290659,-24,17,-5,593,-399,-8075,1745176324729566296
290851,-21,18,-10,605,-331,-8069,1745176324729566296
291043,-16,20,-15,623,-292,-8052,1745176324729566296
291235,-13,20,-21,644,-233,-8043,1745176324729566296
291427,-9,18,-29,652,-222,-8033,1745176324729566296
291619,-6,13,-37,658,-196,-8036,1745176324729566296
291811,-3,7,-46,638,-143,-8029,1745176324729566296
292003,-2,5,-57,628,-101,-8009,1745176324729566296
292195,1,3,-72,606,-30,-8038,1745176324729566296
292387,7,-1,-90,620,60,-8028,1745176324729566296
292579,12,-8,-110,594,152,-8061,1745176324729566296
292771,14,-16,-135,596,269,-8085,1745176324729566296
292963,11,-23,-164,599,356,-8102,1745176324790643811
293155,9,-30,-197,613,442,-8138,1745176324790643811
293347,14,-40,-232,606,544,-8190,1745176324790643811
293539,30,-56,-269,587,717,-8240,1745176324790643811
293731,51,-75,-311,543,928,-8299,1745176324790643811
293923,74,-96,-356,488,1161,-8293,1745176324790643811
294115,99,-113,-405,438,1381,-8285,1745176324790643811
294307,131,-130,-459,413,1581,-8292,1745176324790643811
294499,177,-145,-519,370,1790,-8301,1745176324790643811
294691,234,-160,-585,349,2012,-8280,1745176324790643811
294883,290,-173,-653,374,2220,-8200,1745176324790643811
295075,336,-184,-725,388,2357,-8063,1745176324790643811
295267,371,-193,-799,398,2435,-7980,1745176324845911900
295459,399,-203,-879,422,2490,-7916,1745176324845911900
295651,420,-213,-963,442,2534,-7873,1745176324845911900
295843,433,-224,-1050,485,2546,-7826,1745176324845911900
296035,432,-232,-1136,529,2608,-7808,1745176324845911900
296227,419,-238,-1222,593,2683,-7771,1745176324845911900
296419,394,-247,-1309,652,2763,-7696,1745176324845911900
296611,362,-259,-1397,733,2839,-7569,1745176324845911900
296803,325,-273,-1493,827,2919,-7451,1745176324845911900
296995,282,-285,-1596,942,3034,-7347,1745176324845911900
297187,237,-292,-1701,1014,3128,-7255,1745176324845911900
297379,190,-295,-1808,1158,3242,-7186,1745176324845911900
297571,144,-300,-1916,1256,3409,-7103,1745176324913168212
297763,96,-305,-2024,1407,3606,-6941,1745176324913168212
297955,47,-318,-2137,1573,3864,-6873,1745176324913168212
298147,0,-328,-2255,1749,4094,-6874,1745176324913168212
298339,-36,-340,-2386,1967,4295,-6828,1745176324913168212
298531,-50,-351,-2520,2143,4508,-6753,1745176324913168212
298723,-44,-359,-2647,2288,4692,-6642,1745176324913168212
298915,-18,-361,-2762,2456,4836,-6555,1745176324913168212
299107,15,-370,-2878,2731,4922,-6513,1745176324913168212
299299,47,-374,-3006,2970,5061,-6472,1745176324913168212
299491,67,-371,-3132,3208,5174,-6336,1745176324913168212
299683,77,-372,-3259,3459,5287,-6129,1745176324913168212
299875,73,-370,-3383,3688,5355,-5843,1745176324962435002
300067,53,-365,-3502,3910,5392,-5570,1745176324962435002
300259,18,-348,-3616,4153,5446,-5348,1745176324962435002
300451,-20,-313,-3733,4448,5566,-5266,1745176324962435002
300643,-58,-262,-3851,4765,5742,-5151,1745176324962435002
300835,-90,-195,-3969,5098,5874,-5052,1745176324962435002
301027,-113,-128,-4084,5548,5929,-4927,1745176324962435002
301219,-120,-77,-4197,6057,5879,-4827,1745176324962435002
301411,-115,-51,-4307,6590,5785,-4774,1745176324962435002
301603,-106,-51,-4411,7192,5666,-4735,1745176324962435002
301795,-101,-69,-4513,7765,5590,-4593,1745176324962435002
301987,-109,-96,-4619,8227,5467,-4419,1745176324962435002
302179,-109,-119,-4723,8465,5385,-4283,1745176325021427171
302371,-84,-147,-4825,8484,5339,-4106,1745176325021427171
302563,-36,-176,-4936,8279,5258,-3993,1745176325021427171
302755,27,-186,-5059,7914,5128,-3959,1745176325021427171
302947,104,-173,-5178,7476,4836,-3973,1745176325021427171
303139,193,-134,-5283,7054,4392,-4029,1745176325021427171
303331,290,-74,-5361,6668,3900,-4169,1745176325021427171
303523,393,-7,-5407,6296,3420,-4400,1745176325021427171
303715,501,59,-5430,5983,2955,-4722,1745176325021427171
303907,619,114,-5441,5739,2554,-5128,1745176325021427171
304099,749,164,-5441,5512,2288,-5404,1745176325021427171
304291,890,213,-5431,5356,2079,-5542,1745176325021427171
304483,1045,255,-5401,5276,1873,-5658,1745176325089049939
304675,1211,292,-5354,5241,1708,-5695,1745176325089049939
304867,1380,323,-5295,5312,1548,-5662,1745176325089049939
305059,1537,350,-5232,5454,1322,-5713,1745176325089049939
305251,1677,373,-5169,5635,1117,-5863,1745176325089049939
305443,1808,392,-5098,5839,907,-6017,1745176325089049939
305635,1937,399,-5016,6108,670,-6064,1745176325089049939
305827,2062,392,-4915,6411,346,-6134,1745176325089049939
306019,2180,371,-4798,6725,-81,-6306,1745176325089049939
306211,2286,333,-4664,7022,-653,-6590,1745176325089049939
306403,2376,277,-4525,7341,-1384,-6894,1745176325089049939
306595,2445,196,-4382,7590,-2271,-7048,1745176325089049939
306787,2479,95,-4233,7719,-3271,-7109,1745176325137674234
306979,2466,-20,-4083,7782,-4355,-7051,1745176325137674234
307171,2402,-132,-3948,7685,-5415,-7005,1745176325137674234
307363,2297,-223,-3831,7490,-6350,-6971,1745176325137674234
307555,2154,-302,-3727,7266,-7233,-7028,1745176325137674234
307747,1980,-381,-3642,7029,-8004,-7072,1745176325137674234
307939,1775,-448,-3576,6765,-8624,-7151,1745176325137674234
308131,1544,-508,-3537,6703,-9193,-7224,1745176325137674234
308323,1271,-601,-3578,6239,-9429,-7585,1745176325137674234
308515,957,-623,-3704,5722,-9717,-8059,1745176325137674234
308707,664,-570,-3793,5374,-9883,-8345,1745176325137674234
308899,405,-493,-3733,5087,-9712,-8513,1745176325137674234
309091,182,-522,-3626,4919,-9569,-8769,1745176325198079933
309283,0,-562,-3547,4747,-9432,-8748,1745176325198079933
309475,-172,-501,-3360,4609,-9374,-8856,1745176325198079933
309667,-235,-459,-3062,4963,-9246,-8785,1745176325198079933
309859,-286,-482,-2777,5351,-9047,-8625,1745176325198079933
310051,-419,-531,-2578,5317,-8676,-8379,1745176325198079933
310243,-556,-594,-2440,4868,-8354,-8184,1745176325198079933
310435,-651,-598,-2323,4553,-8287,-8214,1745176325198079933
310627,-706,-584,-2229,4399,-8200,-8431,1745176325198079933
310819,-738,-557,-2135,4278,-8057,-8663,1745176325198079933
311011,-764,-527,-2020,4220,-7778,-8856,1745176325198079933
311203,-789,-500,-1894,4211,-7456,-8966,1745176325198079933
311395,-803,-483,-1785,4182,-7103,-9007,1745176325254836445
311587,-835,-446,-1656,4264,-6847,-9083,1745176325254836445
311779,-858,-417,-1508,4248,-6555,-9112,1745176325254836445
311971,-869,-404,-1392,4127,-6238,-9119,1745176325254836445
312163,-872,-396,-1307,3925,-5950,-9133,1745176325254836445
312355,-875,-388,-1254,3684,-5716,-9080,1745176325254836445
312547,-885,-376,-1220,3470,-5494,-9118,1745176325254836445
312739,-901,-349,-1185,3235,-5221,-9097,1745176325254836445
312931,-915,-308,-1125,3054,-4901,-9090,1745176325254836445
313123,-925,-257,-1043,2966,-4507,-9124,1745176325254836445
313315,-930,-200,-950,2971,-4096,-9250,1745176325254836445
313507,-923,-148,-853,3086,-3685,-9391,1745176325254836445
313699,-900,-110,-766,3249,-3326,-9531,1745176325321201464
313891,-854,-76,-681,3442,-2975,-9586,1745176325321201464
314083,-800,-56,-600,3664,-2699,-9581,1745176325321201464
314275,-745,-53,-532,3790,-2469,-9557,1745176325321201464
314467,-684,-60,-478,3794,-2312,-9592,1745176325321201464
314659,-611,-67,-435,3679,-2135,-9618,1745176325321201464
314851,-542,-77,-394,3501,-2012,-9572,1745176325321201464
315043,-497,-95,-355,3302,-1968,-9485,1745176325321201464
315235,-476,-118,-314,3087,-1992,-9338,1745176325321201464
315427,-474,-137,-268,2803,-2005,-9146,1745176325321201464
315619,-481,-149,-215,2512,-1929,-8963,1745176325321201464
315811,-493,-155,-164,2239,-1760,-8842,1745176325321201464
316003,-511,-156,-125,2004,-1516,-8716,1745176325371657930
316195,-531,-151,-100,1863,-1289,-8532,1745176325371657930
316387,-550,-137,-86,1800,-1097,-8446,1745176325371657930
316579,-564,-119,-83,1842,-983,-8438,1745176325371657930
316771,-576,-108,-86,1926,-934,-8476,1745176325371657930
316963,-582,-99,-85,2010,-933,-8549,1745176325371657930
317155,-579,-94,-74,2048,-910,-8658,1745176325371657930
317347,-568,-86,-59,2063,-856,-8808,1745176325371657930
317539,-551,-79,-47,2037,-770,-8994,1745176325371657930
317731,-532,-70,-43,1972,-657,-9099,1745176325371657930
317923,-512,-56,-40,1891,-559,-9154,1745176325371657930
318115,-485,-42,-33,1862,-435,-9152,1745176325371657930
318307,-445,-28,-24,1813,-345,-9105,1745176325431879411
318499,-398,-19,-12,1794,-241,-9015,1745176325431879411
318691,-352,-14,-1,1796,-159,-8883,1745176325431879411
318883,-313,-15,7,1776,-124,-8705,1745176325431879411
319075,-283,-20,17,1719,-159,-8550,1745176325431879411
319267,-259,-28,30,1634,-215,-8396,1745176325431879411
319459,-237,-34,46,1515,-251,-8244,1745176325431879411
319651,-221,-32,71,1433,-258,-8127,1745176325431879411
319843,-207,-29,98,1359,-229,-8054,1745176325431879411
320035,-197,-24,122,1319,-187,-8060,1745176325431879411
320227,-189,-13,136,1299,-97,-8121,1745176325431879411
320419,-182,3,141,1332,-9,-8188,1745176325431879411
320611,-178,24,141,1429,35,-8267,1745176325498669687
320803,-175,40,139,1552,48,-8326,1745176325498669687
320995,-174,50,138,1675,60,-8372,1745176325498669687
321187,-172,58,138,1743,55,-8379,1745176325498669687
321379,-169,65,139,1752,86,-8355,1745176325498669687
321571,-163,69,142,1737,95,-8293,1745176325498669687
321763,-157,72,140,1677,125,-8233,1745176325498669687
321955,-154,76,135,1618,133,-8160,1745176325498669687
322147,-154,80,128,1553,160,-8068,1745176325498669687
322339,-158,88,123,1499,181,-7996,1745176325498669687
322531,-164,93,120,1458,195,-7934,1745176325498669687
322723,-170,97,114,1438,214,-7872,1745176325498669687
322915,-175,100,107,1403,261,-7866,1745176325552526590
323107,-179,104,98,1373,317,-7916,1745176325552526590
323299,-181,109,88,1370,410,-7919,1745176325552526590
323491,-180,117,79,1373,480,-7935,1745176325552526590
323683,-172,123,72,1439,537,-7979,1745176325552526590
323875,-162,127,64,1496,556,-8049,1745176325552526590
324067,-154,127,56,1558,587,-8109,1745176325552526590
324259,-146,125,51,1602,604,-8173,1745176325552526590
324451,-137,122,49,1593,664,-8219,1745176325552526590
324643,-124,121,50,1549,713,-8239,1745176325552526590
324835,-113,122,50,1513,781,-8228,1745176325552526590
325027,-103,125,48,1490,797,-8213,1745176325552526590
325219,-95,127,45,1467,791,-8214,1745176325605912769
325411,-88,130,44,1455,759,-8201,1745176325605912769
325603,-85,129,43,1460,715,-8169,1745176325605912769
325795,-87,129,45,1453,669,-8119,1745176325605912769
325987,-93,126,45,1436,645,-8092,1745176325605912769
326179,-102,123,41,1402,615,-8086,1745176325605912769
326371,-109,119,35,1370,643,-8075,1745176325605912769
326563,-116,117,28,1336,668,-8065,1745176325605912769
326755,-122,118,19,1307,690,-8040,1745176325605912769
326947,-129,120,12,1302,704,-8015,1745176325605912769
327139,-132,122,7,1312,714,-7974,1745176325605912769
327331,-132,126,3,1350,743,-7948,1745176325605912769
327523,-127,129,2,1384,817,-8000,1745176325668232252
327715,-119,122,-2,1443,836,-8073,1745176325668232252
327907,-103,107,-8,1521,832,-8185,1745176325668232252
328099,-79,90,-10,1598,821,-8259,1745176325668232252
328291,-52,74,-8,1644,794,-8278,1745176325668232252
328483,-34,60,-8,1635,719,-8325,1745176325668232252
328675,-31,43,-12,1599,633,-8345,1745176325668232252
328867,-41,31,-20,1527,555,-8341,1745176325668232252
329059,-53,25,-28,1456,523,-8318,1745176325668232252
329251,-65,24,-31,1376,521,-8279,1745176325668232252
329443,-78,28,-30,1332,496,-8262,1745176325668232252
329635,-90,30,-27,1331,483,-8200,1745176325668232252
329827,-97,33,-22,1340,458,-8139,1745176325728386963
330019,-99,35,-16,1397,450,-8123,1745176325728386963
330211,-105,30,-9,1501,361,-8074,1745176325728386963
330403,-121,13,-2,1632,264,-8172,1745176325728386963
330595,-152,-11,3,1717,189,-8370,1745176325728386963
330787,-200,-32,4,1688,176,-8412,1745176325728386963
330979,-244,-46,8,1602,249,-8342,1745176325728386963
331171,-264,-53,13,1518,359,-8263,1745176325728386963
331363,-259,-53,15,1407,506,-8183,1745176325728386963
331555,-240,-45,18,1393,609,-8141,1745176325728386963
331747,-215,-39,21,1424,641,-8103,1745176325728386963
331939,-197,-39,23,1516,622,-8106,1745176325728386963
332131,-187,-45,22,1604,582,-8119,1745176325790523323
332323,-186,-54,19,1651,575,-8131,1745176325790523323
332515,-189,-59,19,1622,596,-8113,1745176325790523323
332707,-192,-62,21,1580,672,-8088,1745176325790523323
332899,-190,-63,24,1534,745,-8045,1745176325790523323
333091,-185,-63,25,1480,798,-8001,1745176325790523323
333283,-175,-60,23,1488,828,-7977,1745176325790523323
333475,-165,-56,22,1473,841,-7992,1745176325790523323
333667,-157,-53,20,1467,826,-7997,1745176325790523323
333859,-149,-52,17,1503,825,-7987,1745176325790523323
334051,-144,-52,18,1505,787,-7969,1745176325790523323
334243,-140,-52,19,1519,745,-7979,1745176325790523323
334435,-135,-53,21,1520,719,-7986,1745176325839942038
334627,-130,-55,22,1503,681,-7985,1745176325839942038
334819,-124,-56,20,1472,655,-7977,1745176325839942038
335011,-121,-54,19,1446,642,-7982,1745176325839942038
335203,-118,-50,18,1415,635,-7974,1745176325839942038
335395,-119,-44,19,1408,622,-7952,1745176325839942038
335587,-120,-37,21,1402,618,-7982,1745176325839942038
335779,-119,-30,23,1413,649,-8034,1745176325839942038
335971,-118,-23,23,1425,684,-8040,1745176325839942038
336163,-119,-17,22,1431,735,-8062,1745176325839942038
336355,-121,-10,19,1462,745,-8068,1745176325839942038
336547,-122,-7,16,1481,781,-8073,1745176325839942038
336739,-119,-5,14,1479,803,-8095,1745176325907619753
336931,-112,-5,12,1476,814,-8124,1745176325907619753
337123,-103,-3,9,1471,830,-8148,1745176325907619753
337315,-92,-2,5,1450,849,-8174,1745176325907619753
337507,-82,2,1,1443,861,-8221,1745176325907619753
337699,-69,8,-2,1445,883,-8264,1745176325907619753
337891,-56,12,-5,1436,909,-8285,1745176325907619753
338083,-44,16,-7,1444,931,-8293,1745176325907619753
338275,-31,18,-9,1473,936,-8297,1745176325907619753
338467,-18,21,-11,1478,934,-8293,1745176325907619753
338659,-7,23,-13,1493,923,-8288,1745176325907619753
338851,1,25,-15,1493,928,-8286,1745176325907619753
339043,8,28,-17,1476,922,-8263,1745176325962360867
339235,14,31,-16,1465,911,-8242,1745176325962360867
339427,18,34,-16,1468,910,-8225,1745176325962360867
339619,20,38,-17,1495,890,-8199,1745176325962360867
339811,21,42,-18,1499,864,-8174,1745176325962360867
340003,20,43,-20,1507,838,-8133,1745176325962360867
340195,16,46,-22,1506,838,-8108,1745176325962360867
340387,12,48,-22,1513,816,-8075,1745176325962360867
340579,11,47,-23,1522,800,-8035,1745176325962360867
340771,10,46,-24,1532,795,-7984,1745176325962360867
340963,9,44,-24,1521,767,-7940,1745176325962360867
341155,8,44,-25,1504,766,-7913,1745176325962360867
341347,6,44,-27,1489,764,-7886,1745176326015106792
341539,2,44,-29,1486,774,-7876,1745176326015106792
341731,-3,43,-32,1484,774,-7847,1745176326015106792
341923,-8,43,-33,1486,787,-7829,1745176326015106792
342115,-14,43,-34,1489,805,-7801,1745176326015106792
342307,-20,43,-35,1490,799,-7807,1745176326015106792
342499,-24,42,-35,1486,834,-7830,1745176326015106792
342691,-28,41,-36,1481,882,-7836,1745176326015106792
342883,-30,42,-36,1471,931,-7840,1745176326015106792
343075,-32,43,-37,1477,985,-7850,1745176326015106792
343267,-31,42,-37,1511,997,-7858,1745176326015106792
343459,-29,40,-39,1534,1012,-7852,1745176326015106792
343651,-23,38,-38,1567,1006,-7876,1745176326075708322
343843,-14,43,-31,1689,973,-7899,1745176326075708322
344035,13,72,0,1838,992,-7971,1745176326075708322
344227,16,82,31,1849,1051,-8017,1745176326075708322
344419,12,57,42,1818,1070,-7982,1745176326075708322
344611,27,30,38,1751,1058,-7969,1745176326075708322
344803,41,24,31,1651,1027,-7962,1745176326075708322
344995,46,27,29,1605,948,-7964,1745176326075708322
345187,50,27,29,1590,875,-7970,1745176326075708322
345379,52,25,30,1605,835,-7968,1745176326075708322
345571,49,22,35,1596,769,-7953,1745176326075708322
345763,41,22,41,1608,743,-7921,1745176326075708322
345955,34,24,45,1616,746,-7918,1745176326138289521
346147,29,21,48,1633,767,-7908,1745176326138289521
346339,22,16,50,1637,792,-7896,1745176326138289521
346531,15,14,51,1639,808,-7884,1745176326138289521
346723,12,14,52,1629,822,-7884,1745176326138289521
346915,8,13,52,1641,833,-7917,1745176326138289521
347107,6,9,49,1638,840,-7941,1745176326138289521
347299,6,3,47,1649,844,-7957,1745176326138289521
347491,7,-4,41,1630,845,-7996,1745176326138289521
347683,3,-9,36,1613,857,-7992,1745176326138289521
347875,1,-12,31,1572,846,-8005,1745176326138289521
348067,-2,-14,29,1557,827,-7990,1745176326138289521
348259,-4,-15,25,1534,800,-7986,1745176326190325139
348451,-7,-14,23,1528,787,-7975,1745176326190325139
348643,-10,-14,22,1509,785,-7982,1745176326190325139
348835,-16,-11,23,1530,775,-7982,1745176326190325139
349027,-18,-10,24,1542,790,-7974,1745176326190325139
349219,-19,-13,25,1546,792,-7969,1745176326190325139
349411,-26,-14,27,1573,775,-7945,1745176326190325139
349603,-28,-16,27,1570,749,-7939,1745176326190325139
349795,-32,-20,30,1580,741,-7936,1745176326190325139
349987,-39,-24,31,1569,716,-7937,1745176326190325139
350179,-42,-25,34,1561,728,-7951,1745176326190325139
350371,-46,-27,36,1542,723,-7962,1745176326190325139
350563,-52,-25,38,1525,726,-7973,1745176326250810368
350755,-56,-27,40,1529,720,-7983,1745176326250810368
350947,-63,-27,43,1536,729,-7988,1745176326250810368
351139,-69,-26,46,1540,744,-8010,1745176326250810368
351331,-74,-28,47,1533,768,-8013,1745176326250810368
351523,-76,-27,46,1543,793,-8023,1745176326250810368
351715,-71,-28,45,1534,865,-8006,1745176326250810368
351907,-69,-28,42,1533,905,-7987,1745176326250810368
352099,-67,-28,39,1518,927,-7975,1745176326250810368
352291,-65,-30,36,1524,920,-7969,1745176326250810368
352483,-61,-28,33,1518,883,-7968,1745176326250810368
352675,-53,-31,31,1512,899,-7954,1745176326250810368
352867,-49,-30,29,1496,895,-7955,1745176326316981170
353059,-48,-31,25,1481,884,-7949,1745176326316981170
353251,-50,-30,20,1490,836,-7933,1745176326316981170
353443,-46,-29,19,1488,844,-7957,1745176326316981170
353635,-40,-31,21,1500,825,-7974,1745176326316981170
353827,-40,-32,23,1498,826,-7963,1745176326316981170
354019,-43,-31,22,1473,797,-7968,1745176326316981170
354211,-49,-29,18,1449,768,-7960,1745176326316981170
354403,-51,-26,16,1451,777,-7959,1745176326316981170
354595,-53,-24,17,1466,765,-7982,1745176326316981170
354787,-57,-20,19,1488,783,-7975,1745176326316981170
354979,-56,-19,22,1491,797,-7984,1745176326316981170
355171,-58,-15,23,1483,813,-7993,1745176326372205301
355363,-61,-15,20,1505,816,-7992,1745176326372205301
355555,-59,-14,17,1507,800,-8004,1745176326372205301
355747,-60,-12,15,1492,804,-7999,1745176326372205301
355939,-63,-11,13,1488,790,-8008,1745176326372205301
356131,-65,-10,12,1497,795,-7996,1745176326372205301
356323,-67,-8,11,1475,789,-7989,1745176326372205301
356515,-67,-3,10,1463,805,-7991,1745176326372205301
356707,-70,-3,9,1456,820,-7992,1745176326372205301
356899,-75,0,7,1468,834,-7968,1745176326372205301
357091,-70,1,8,1478,854,-7962,1745176326372205301
357283,-71,1,10,1493,852,-7949,1745176326372205301
357475,-74,0,11,1502,847,-7959,1745176326423564050
357667,-74,0,14,1514,848,-7966,1745176326423564050
357859,-77,-4,16,1511,845,-7962,1745176326423564050
358051,-79,-6,17,1506,851,-7955,1745176326423564050
358243,-82,-9,19,1507,850,-7943,1745176326423564050
358435,-87,-11,21,1482,855,-7916,1745176326423564050
358627,-92,-13,26,1472,861,-7907,1745176326423564050
358819,-93,-13,31,1486,893,-7933,1745176326423564050
359011,-95,-16,36,1482,914,-7923,1745176326423564050
359203,-100,-17,40,1520,939,-7915,1745176326423564050
359395,-96,-20,42,1520,972,-7939,1745176326423564050
359587,-95,-24,45,1550,983,-7927,1745176326423564050
359779,-95,-30,45,1543,992,-7924,1745176326482095859
359971,-94,-31,46,1527,967,-7943,1745176326482095859
360163,-91,-34,45,1506,965,-7937,1745176326482095859
360355,-87,-34,44,1498,990,-7946,1745176326482095859
360547,-85,-37,43,1484,980,-7946,1745176326482095859
360739,-85,-35,41,1463,975,-7930,1745176326482095859
360931,-83,-32,43,1508,966,-7967,1745176326482095859
361123,-77,-34,42,1487,981,-7974,1745176326482095859
361315,-82,-31,41,1518,950,-7987,1745176326482095859
361507,-83,-31,40,1489,967,-7974,1745176326482095859
361699,-79,-26,42,1525,996,-7995,1745176326482095859
361891,-76,-31,39,1493,1045,-7969,1745176326482095859
362083,-77,-28,37,1476,1058,-7971,1745176326544427790
362275,-66,-27,34,1471,1100,-7966,1745176326544427790
362467,-56,-24,29,1526,1126,-7992,1745176326544427790
362659,-31,-22,19,1564,1203,-8033,1745176326544427790
362851,-22,-31,9,1547,1245,-7967,1745176326544427790
363043,-17,-35,1,1513,1209,-7925,1745176326544427790
363235,-1,-36,-1,1463,1173,-7925,1745176326544427790
363427,7,-37,-2,1437,1103,-7896,1745176326544427790
363619,-33,-59,-1,957,908,-7585,1745176326544427790
363811,-41,5,28,1485,665,-8014,1745176326544427790
364003,53,-5,27,1510,978,-8170,1745176326544427790
364195,-2,-11,19,1678,1070,-8045,1745176326544427790
364387,-8,-28,9,1716,1097,-7977,1745176326599671504
364579,9,-37,0,1514,1107,-7917,1745176326599671504
364771,-63,-70,-12,1036,872,-7609,1745176326599671504
364963,-46,-2,4,1457,645,-8063,1745176326599671504
365155,46,-20,12,1405,932,-8135,1745176326599671504
365347,-22,-15,9,1579,969,-8017,1745176326599671504
365539,-24,-28,6,1563,1041,-7983,1745176326599671504
365731,-80,-44,0,1076,936,-7681,1745176326599671504
365923,-74,9,11,1510,783,-8052,1745176326599671504
366115,27,-14,13,1449,1092,-8095,1745176326599671504
366307,-27,-4,2,1580,1119,-7993,1745176326599671504
366499,-24,-19,-7,1506,1152,-7944,1745176326599671504
366691,-78,-30,-16,1178,1015,-7685,1745176326659359032
366883,-45,14,-7,1529,913,-8054,1745176326659359032
367075,44,-14,1,1453,1180,-8065,1745176326659359032
367267,-7,-7,-10,1565,1172,-7967,1745176326659359032
367459,10,-22,-17,1553,1177,-7957,1745176326659359032
367651,28,-24,-24,1415,1143,-7908,1745176326659359032
367843,-30,-41,-39,1035,941,-7703,1745176326659359032
368035,-39,19,-28,1377,767,-7990,1745176326659359032
368227,68,-5,-7,1360,997,-8103,1745176326659359032
368419,22,0,-6,1476,1036,-8041,1745176326659359032
368611,14,-6,-8,1507,1057,-8012,1745176326659359032
368803,29,-8,-11,1377,1075,-7969,1745176326659359032
368995,23,-10,-19,1362,987,-7973,1745176326726491648
369187,29,-7,-23,1321,932,-7992,1745176326726491648
369379,23,2,-20,1289,884,-7991,1745176326726491648
369571,16,9,-14,1313,864,-7989,1745176326726491648
369763,11,16,-7,1323,885,-7988,1745176326726491648
369955,5,23,-2,1354,901,-7992,1745176326726491648
370147,-1,27,-1,1387,927,-7994,1745176326726491648
370339,-6,31,-3,1426,911,-7974,1745176326726491648
370531,-65,17,-16,1070,805,-7737,1745176326726491648
370723,-102,74,-2,1508,628,-8040,1745176326726491648
370915,13,46,14,1523,965,-8111,1745176326726491648
371107,-38,48,8,1632,1081,-7988,1745176326726491648
371299,-47,34,0,1682,1135,-7969,1745176326785907615
371491,-22,25,-7,1534,1177,-7922,1745176326785907615
371683,-24,16,-19,1505,1117,-7904,1745176326785907615
371875,-10,14,-27,1429,1072,-7909,1745176326785907615
372067,-4,18,-26,1375,1044,-7918,1745176326785907615
372259,-2,20,-22,1372,1006,-7936,1745176326785907615
372451,2,22,-16,1392,1021,-7954,1745176326785907615
372643,3,26,-11,1401,1017,-7976,1745176326785907615
372835,4,28,-12,1420,1021,-7991,1745176326785907615
373027,5,30,-15,1435,990,-7983,1745176326785907615
373219,4,32,-18,1464,945,-7980,1745176326785907615
373411,2,32,-20,1475,912,-7996,1745176326785907615
373603,-5,32,-22,1452,877,-7969,1745176326832653282
373795,-12,32,-23,1452,873,-7945,1745176326832653282
373987,-18,31,-23,1479,886,-7960,1745176326832653282
374179,-25,31,-21,1469,903,-7942,1745176326832653282
374371,-31,29,-20,1487,953,-7933,1745176326832653282
374563,-34,27,-20,1488,999,-7931,1745176326832653282
374755,-34,25,-21,1484,1043,-7932,1745176326832653282
374947,-32,22,-23,1487,1098,-7923,1745176326832653282
375139,-26,20,-24,1474,1142,-7912,1745176326832653282
375331,-17,20,-26,1469,1181,-7927,1745176326832653282
375523,-5,21,-28,1457,1213,-7929,1745176326832653282
375715,6,21,-28,1443,1218,-7912,1745176326832653282
375907,16,23,-28,1447,1198,-7916,1745176326893599184
376099,27,24,-26,1460,1161,-7919,1745176326893599184
376291,37,24,-23,1459,1130,-7919,1745176326893599184
376483,43,23,-20,1477,1079,-7909,1745176326893599184
376675,48,22,-20,1495,1039,-7925,1745176326893599184
376867,51,21,-20,1499,993,-7938,1745176326893599184
377059,50,19,-19,1486,955,-7936,1745176326893599184
377251,48,18,-19,1487,923,-7957,1745176326893599184
377443,44,17,-20,1488,903,-7968,1745176326893599184
377635,39,15,-22,1478,902,-7950,1745176326893599184
377827,34,15,-24,1476,862,-7953,1745176326893599184
378019,28,14,-24,1483,840,-7964,1745176326893599184
378211,19,13,-25,1477,832,-7961,1745176326955524347
378403,11,11,-24,1475,848,-7957,1745176326955524347
378595,3,11,-24,1461,874,-7970,1745176326955524347
378787,-3,10,-24,1451,893,-7976,1745176326955524347
378979,-7,11,-24,1420,919,-7976,1745176326955524347
379171,-10,12,-23,1414,978,-7978,1745176326955524347
379363,-46,1,-15,1021,850,-7659,1745176326955524347
379555,-68,54,15,1490,683,-8167,1745176326955524347
379747,5,35,0,1448,942,-8122,1745176326955524347
379939,-41,37,-11,1601,1062,-7999,1745176326955524347
380131,-43,31,-12,1610,1141,-7935,1745176326955524347
380323,-25,25,-13,1477,1190,-7936,1745176326955524347
380515,-24,14,-18,1476,1115,-7930,1745176327009248648
380707,-10,18,-19,1407,1087,-7934,1745176327009248648
380899,-6,24,-14,1382,1059,-7922,1745176327009248648
381091,-3,26,-7,1408,1037,-7937,1745176327009248648
381283,3,30,-2,1446,1037,-7962,1745176327009248648
381475,4,34,1,1461,1036,-7945,1745176327009248648
381667,5,34,0,1486,1001,-7919,1745176327009248648
381859,6,33,-3,1538,960,-7864,1745176327009248648
382051,6,27,-2,1605,951,-7891,1745176327009248648
382243,6,15,0,1688,948,-7927,1745176327009248648
382435,-1,2,3,1688,924,-7915,1745176327009248648
382627,-6,-11,4,1628,925,-7899,1745176327009248648
382819,-7,-19,1,1525,910,-7930,1745176327069528774
383011,-10,-19,-7,1424,891,-7939,1745176327069528774
383203,-12,-13,-11,1386,947,-7908,1745176327069528774
383395,-9,-9,-12,1442,978,-7928,1745176327069528774
383587,-8,-10,-10,1520,983,-7934,1745176327069528774
383779,-12,-13,-10,1522,952,-7904,1745176327069528774
383971,-14,-12,-9,1428,968,-7873,1745176327069528774
384163,-8,-6,-10,1291,1053,-7852,1745176327069528774
384355,4,4,-11,1238,1149,-7791,1745176327069528774
384547,-26,0,18,805,1083,-7510,1745176327069528774
384739,14,68,46,1474,971,-8192,1745176327069528774
384931,73,51,21,1599,1189,-8117,1745176327069528774
385123,35,46,8,1792,1287,-7991,1745176327135859366
385315,50,29,5,1735,1219,-7937,1745176327135859366
385507,59,15,3,1600,1097,-7938,1745176327135859366
385699,59,0,0,1509,924,-7939,1745176327135859366
385891,60,7,2,1355,844,-7948,1745176327135859366
386083,52,18,10,1290,857,-7960,1745176327135859366
386275,48,27,16,1321,855,-7962,1745176327135859366
386467,42,35,21,1448,826,-8003,1745176327135859366
386659,28,33,26,1600,791,-8000,1745176327135859366
386851,15,22,32,1665,805,-7971,1745176327135859366
387043,3,10,35,1665,859,-7935,1745176327135859366
387235,-1,1,34,1585,925,-7956,1745176327135859366
387427,-5,-4,27,1537,923,-7985,1745176327184366475
387619,-9,-7,21,1519,893,-7971,1745176327184366475
387811,-19,-9,20,1514,842,-7952,1745176327184366475
388003,-26,-11,23,1512,837,-7962,1745176327184366475
388195,-47,-20,20,1044,838,-7819,1745176327184366475
388387,-174,-8,50,1387,649,-7749,1745176327184366475
388579,-49,39,46,1583,642,-8306,1745176327184366475
388771,-21,16,46,1570,1190,-8082,1745176327184366475
388963,-73,20,22,1661,1288,-7891,1745176327184366475
389155,-34,22,6,1518,1227,-7968,1745176327184366475
389347,-27,19,-9,1488,1128,-7921,1745176327184366475
389539,-16,19,-15,1459,1020,-7944,1745176327184366475
389731,-9,26,-11,1409,1031,-7946,1745176327244758997
389923,-8,25,-3,1490,1051,-7925,1745176327244758997
390115,-1,25,0,1504,1078,-7921,1745176327244758997
390307,7,27,-3,1503,1113,-7923,1745176327244758997
390499,14,28,-9,1508,1101,-7914,1745176327244758997
390691,20,27,-14,1538,1014,-7926,1745176327244758997
390883,25,27,-16,1521,976,-7939,1745176327244758997
391075,27,29,-17,1461,946,-7951,1745176327244758997
391267,27,34,-17,1405,962,-7941,1745176327244758997
391459,31,44,-19,1371,987,-7948,1745176327244758997
391651,36,53,-22,1383,1003,-7933,1745176327244758997
391843,27,51,-27,1088,983,-7792,1745176327244758997
392035,-68,71,2,1556,735,-7788,1745176327303181119
392227,38,86,-4,1733,669,-8210,1745176327303181119
392419,43,58,4,1777,1065,-8025,1745176327303181119
392611,-2,42,-6,1810,1098,-7890,1745176327303181119
392803,22,31,-12,1675,1045,-7925,1745176327303181119
392995,18,13,-21,1639,956,-7902,1745176327303181119
393187,18,4,-24,1540,885,-7923,1745176327303181119
393379,13,9,-20,1404,844,-7947,1745176327303181119
393571,6,15,-15,1350,818,-7962,1745176327303181119
393763,0,25,-9,1385,819,-7960,1745176327303181119
393955,-7,34,-4,1421,881,-7943,1745176327303181119
394147,-10,38,1,1479,936,-7936,1745176327303181119
394339,-12,37,3,1544,976,-7938,1745176327366594550
394531,-12,35,0,1581,996,-7945,1745176327366594550
394723,-12,30,-2,1625,946,-7932,1745176327366594550
394915,-14,21,1,1634,914,-7934,1745176327366594550
395107,-19,12,4,1615,885,-7937,1745176327366594550
395299,-25,5,5,1614,862,-7938,1745176327366594550
395491,-31,-2,6,1596,856,-7932,1745176327366594550
395683,-34,-6,3,1558,904,-7920,1745176327366594550
395875,-36,-7,-1,1558,964,-7922,1745176327366594550
396067,-78,-26,-9,1005,1017,-7686,1745176327366594550
396259,-167,18,17,1718,663,-7890,1745176327366594550
396451,-6,10,9,1676,892,-8144,1745176327366594550
396643,-26,4,10,1683,1314,-7971,1745176327418846417
396835,-46,-2,-8,1672,1197,-7902,1745176327418846417
397027,-12,-4,-18,1560,1093,-7930,1745176327418846417
397219,-16,-12,-22,1570,946,-7882,1745176327418846417
397411,-15,-17,-17,1540,867,-7891,1745176327418846417
397603,-15,-18,-5,1520,946,-7896,1745176327418846417
397795,-19,-23,3,1562,990,-7914,1745176327418846417
397987,-79,-48,3,1140,999,-7692,1745176327418846417
398179,-124,-1,23,1861,564,-8022,1745176327418846417
398371,4,-37,23,1689,1001,-8070,1745176327418846417
398563,-33,-37,15,1640,1335,-7953,1745176327418846417
398755,-30,-43,-6,1603,1190,-7955,1745176327418846417
398947,-8,-37,-21,1443,1051,-7982,1745176327478381237
399139,-14,-36,-24,1397,906,-7971,1745176327478381237
399331,-13,-26,-19,1355,886,-8010,1745176327478381237
399523,-16,-14,-11,1349,950,-7998,1745176327478381237
399715,-56,-17,-15,1005,1043,-7853,1745176327478381237
399907,-146,30,-13,1534,822,-7866,1745176327478381237
400099,-8,24,1,1564,913,-8137,1745176327478381237
400291,-6,21,17,1566,1289,-7980,1745176327478381237
400483,-32,15,6,1611,1138,-7949,1745176327478381237
400675,-9,15,-1,1523,1016,-7977,1745176327478381237
400867,-14,15,-3,1466,974,-7926,1745176327478381237
401059,-12,16,2,1434,1009,-7924,1745176327478381237
401251,-10,20,9,1425,1043,-7944,1745176327542461850
401443,-11,24,12,1469,1015,-7961,1745176327542461850
401635,-10,26,11,1513,980,-7961,1745176327542461850
401827,-12,28,11,1509,969,-7961,1745176327542461850
402019,-13,27,11,1522,1009,-7950,1745176327542461850
402211,-11,26,9,1530,1034,-7956,1745176327542461850
402403,-8,25,6,1541,1055,-7950,1745176327542461850
402595,-4,23,3,1556,1065,-7943,1745176327542461850
402787,-1,21,2,1557,1055,-7938,1745176327542461850
402979,1,20,1,1545,1031,-7930,1745176327542461850
403171,2,19,1,1529,1005,-7949,1745176327542461850
403363,2,20,-1,1524,984,-7955,1745176327542461850
403555,1,22,-5,1512,946,-7956,1745176327596142662
403747,-2,26,-10,1481,929,-7977,1745176327596142662
403939,-5,31,-15,1485,917,-7974,1745176327596142662
404131,-9,35,-19,1510,931,-7955,1745176327596142662
404323,-11,39,-22,1516,938,-7964,1745176327596142662
404515,-13,42,-26,1510,953,-7971,1745176327596142662
404707,-16,47,-31,1483,965,-7963,1745176327596142662
404899,-18,55,-37,1457,954,-7949,1745176327596142662
405091,-20,60,-42,1480,939,-7941,1745176327596142662
405283,-23,60,-41,1592,946,-7927,1745176327596142662
405475,-28,52,-35,1649,981,-7912,1745176327596142662
405667,-30,44,-32,1612,1033,-7907,1745176327596142662
405859,-31,37,-35,1580,1027,-7916,1745176327651789810
406051,-28,31,-36,1578,1070,-7912,1745176327651789810
406243,-21,25,-34,1519,1150,-7883,1745176327651789810
406435,-13,26,-34,1471,1192,-7859,1745176327651789810
406627,-5,24,-34,1567,1137,-7880,1745176327651789810
406819,-1,17,-29,1630,1051,-7902,1745176327651789810
407011,1,11,-22,1583,1050,-7894,1745176327651789810
407203,3,6,-18,1553,1081,-7886,1745176327651789810
407395,6,3,-15,1532,1106,-7861,1745176327651789810
407587,10,3,-11,1534,1070,-7872,1745176327651789810
407779,12,2,-8,1561,986,-7888,1745176327651789810
407971,6,-1,-2,1596,915,-7899,1745176327651789810
410275,51,36,51,1539,934,-8033,1745176335870130985
729379,-176,85,6,1971,1215,-7695,1745176335870130985
729571,-10,10,-6,1972,1009,-7939,1745176335870130985
729763,-11,13,6,2003,1062,-7796,1745176335870130985
729955,14,6,12,1938,1081,-7834,1745176335870130985
730147,-16,-5,15,1921,1117,-7819,1745176335870130985
730339,-13,7,8,1927,1171,-7811,1745176335870130985
730531,-7,-8,4,1959,1134,-7806,1745176335870130985
730723,-25,-7,1,1938,1102,-7840,1745176335870130985
730915,-26,1,-6,1906,1118,-7865,1745176335870130985
731107,-35,-6,-10,1894,1121,-7844,1745176335870130985
731299,-34,0,-4,1930,1104,-7844,1745176335870130985
731491,-25,-1,2,1952,1118,-7846,1745176335926340524
731683,-31,-5,4,1963,1095,-7873,1745176335926340524
731875,-33,-1,2,1948,1105,-7884,1745176335926340524
732067,-33,-3,1,1951,1206,-7907,1745176335926340524
732259,-27,-2,-1,1978,1166,-7939,1745176335926340524
732451,-29,0,-6,2004,1006,-7926,1745176335926340524
732643,-37,-3,-13,1987,993,-7940,1745176335926340524
732835,-31,-3,-16,1997,1122,-7970,1745176335926340524
733027,-22,-3,-13,2010,1151,-7984,1745176335926340524
733219,-16,-7,-8,2018,1226,-7925,1745176335926340524
733411,1,-9,-6,2001,1310,-7884,1745176335926340524
733603,28,-6,-7,1904,1432,-7855,1745176335926340524
733795,59,1,-9,1846,1452,-7866,1745176335987005647
733987,90,10,-8,1834,1364,-7855,1745176335987005647
734179,55,13,-12,1818,782,-7968,1745176335987005647
734371,82,25,6,1937,1672,-7701,1745176335987005647
734563,139,7,13,1789,1235,-7731,1745176335987005647
734755,141,19,25,1854,1085,-7882,1745176335987005647
734947,145,22,28,1783,1273,-7966,1745176335987005647
735139,158,33,29,1847,1396,-7884,1745176335987005647
735331,164,34,22,1925,1300,-7803,1745176335987005647
735523,166,33,17,1933,1241,-7795,1745176335987005647
735715,168,27,17,1861,1236,-7777,1745176335987005647
735907,168,32,18,1781,1227,-7774,1745176335987005647
736099,160,40,13,1735,1139,-7735,1745176336045248344
736291,145,47,3,1778,988,-7691,1745176336045248344
736483,116,45,-11,1917,703,-7673,1745176336045248344
736675,66,30,-24,1828,367,-7491,1745176336045248344
736867,1,77,-31,979,260,-7531,1745176336045248344
737059,-42,133,-28,1480,649,-8026,1745176336045248344
737251,-58,127,-21,2158,1108,-7914,1745176336045248344
737443,-68,82,-18,2548,1458,-7814,1745176336045248344
737635,-60,39,-19,2634,1612,-7700,1745176336045248344
737827,-25,14,-18,2485,1642,-7694,1745176336045248344
738019,25,-6,-12,2254,1509,-7746,1745176336045248344
738211,62,-24,-6,2023,1273,-7740,1745176336045248344
738403,75,-29,2,1849,1039,-7873,1745176336106119298
738595,72,-25,12,1743,961,-7823,1745176336106119298
738787,57,-11,23,1723,995,-7809,1745176336106119298
738979,41,-1,31,1817,1064,-7796,1745176336106119298
739171,31,0,32,1921,1096,-7758,1745176336106119298
739363,27,-7,31,1982,1115,-7822,1745176336106119298
739555,30,-16,34,1975,1165,-7845,1745176336106119298
739747,30,-19,41,1926,1222,-7802,1745176336106119298
739939,30,-19,52,1926,1221,-7787,1745176336106119298
740131,32,-21,64,1912,1249,-7802,1745176336106119298
740323,37,-24,75,1932,1289,-7784,1745176336106119298
740515,41,-26,82,1935,1291,-7788,1745176336106119298
740707,45,-29,86,1934,1305,-7783,1745176336169883820
740899,50,-32,85,1933,1256,-7796,1745176336169883820
741091,55,-35,81,1941,1195,-7816,1745176336169883820
741283,57,-38,77,1968,1080,-7817,1745176336169883820
741475,57,-39,77,1948,943,-7821,1745176336169883820
741667,54,-41,86,1944,818,-7844,1745176336169883820
741859,41,-44,95,1936,737,-7865,1745176336169883820
742051,18,-49,101,1918,721,-7891,1745176336169883820
742243,-9,-51,101,1886,725,-7877,1745176336169883820
742435,-25,-50,98,1869,770,-7832,1745176336169883820
742627,-29,-46,90,1876,801,-7861,1745176336169883820
742819,-37,-45,81,1919,780,-7912,1745176336169883820
743011,-49,-49,77,1931,743,-7909,1745176336219825863
743203,-56,-51,75,1936,716,-7901,1745176336219825863
743395,-57,-49,69,1923,730,-7900,1745176336219825863
743587,-58,-45,58,1925,744,-7873,1745176336219825863
743779,-62,-41,43,1925,757,-7844,1745176336219825863
743971,-67,-39,29,1922,757,-7886,1745176336219825863
744163,-71,-41,19,1900,784,-7911,1745176336219825863
744355,-75,-41,10,1875,836,-7869,1745176336219825863
744547,-77,-36,2,1869,872,-7843,1745176336219825863
744739,-77,-32,-8,1870,934,-7844,1745176336219825863
744931,-70,-27,-18,1875,982,-7856,1745176336219825863
745123,-63,-24,-28,1911,1024,-7830,1745176336219825863
745315,-57,-23,-38,1940,1039,-7809,1745176336279595265
745507,-53,-24,-46,1956,1030,-7821,1745176336279595265
745699,-52,-27,-53,1944,1019,-7836,1745176336279595265
745891,-52,-29,-58,1928,995,-7847,1745176336279595265
746083,-54,-30,-62,1889,968,-7844,1745176336279595265
746275,-59,-31,-64,1871,939,-7839,1745176336279595265
746467,-66,-30,-66,1841,926,-7852,1745176336279595265
746659,-72,-28,-68,1834,926,-7864,1745176336279595265
746851,-81,-26,-67,1820,937,-7864,1745176336279595265
747043,-87,-25,-67,1837,951,-7883,1745176336279595265
747235,-92,-25,-66,1846,987,-7884,1745176336279595265
747427,-96,-25,-69,1829,1020,-7858,1745176336279595265
747619,-98,-24,-71,1830,1039,-7840,1745176336341155016
747811,-98,-25,-72,1832,1079,-7860,1745176336341155016
748003,-97,-26,-73,1839,1106,-7869,1745176336341155016
748195,-96,-26,-73,1841,1108,-7885,1745176336341155016
748387,-93,-27,-73,1854,1127,-7835,1745176336341155016
748579,-93,-28,-71,1846,1126,-7840,1745176336341155016
748771,-92,-28,-70,1848,1125,-7827,1745176336341155016
748963,-91,-30,-67,1844,1126,-7822,1745176336341155016
749155,-92,-30,-64,1831,1131,-7858,1745176336341155016
749347,-92,-31,-60,1842,1154,-7822,1745176336341155016
749539,-92,-30,-58,1842,1189,-7838,1745176336341155016
749731,-91,-31,-56,1844,1210,-7810,1745176336341155016
749923,-88,-29,-53,1837,1219,-7813,1745176336412943787
750115,-85,-30,-51,1845,1239,-7828,1745176336412943787
750307,-80,-30,-46,1859,1257,-7833,1745176336412943787
750499,-74,-18,-32,1924,1244,-7842,1745176336412943787
750691,-72,-9,-17,1889,1281,-7842,1745176336412943787
750883,-72,-19,-12,1868,1282,-7812,1745176336412943787
751075,-63,-27,-10,1868,1270,-7806,1745176336412943787
751267,-56,-22,-10,1853,1280,-7851,1745176336412943787
751459,-53,-22,-10,1831,1263,-7839,1745176336412943787
751651,-50,-24,-8,1836,1228,-7816,1745176336412943787
751843,-47,-24,-7,1842,1209,-7829,1745176336412943787
752035,-50,-25,-3,1861,1188,-7826,1745176336412943787
752227,-47,-24,-2,1878,1210,-7881,1745176336454144244
752419,-47,-29,-2,1809,1210,-7795,1745176336454144244
752611,-55,-28,1,1854,1200,-7846,1745176336454144244
752803,-36,-27,-1,1855,1249,-7869,1745176336454144244
752995,-34,-30,-4,1854,1291,-7851,1745176336454144244
753187,-48,-38,-8,1719,1237,-7718,1745176336454144244
753379,-46,-22,0,1860,1156,-7915,1745176336454144244
753571,-13,-29,-1,1816,1271,-7928,1745176336454144244
753763,-27,-30,-5,1827,1262,-7838,1745176336454144244
753955,-25,-29,-5,1798,1253,-7871,1745176336454144244
754147,-21,-33,-5,1630,1240,-7777,1745176336454144244
754339,-51,-26,4,1747,1097,-7828,1745176336454144244
754531,-11,-15,9,1767,1175,-7952,1745176336513145476
754723,-16,-18,13,1764,1235,-7872,1745176336513145476
754915,-30,-16,11,1831,1235,-7840,1745176336513145476
755107,-17,-13,14,1804,1285,-7853,1745176336513145476
755299,-16,-15,12,1798,1291,-7849,1745176336513145476
755491,-11,-14,10,1803,1269,-7863,1745176336513145476
755683,-7,-10,9,1776,1260,-7875,1745176336513145476
755875,-5,-8,7,1772,1254,-7848,1745176336513145476
756067,-3,-3,6,1760,1238,-7842,1745176336513145476
756259,-2,-1,6,1782,1220,-7842,1745176336513145476
756451,-1,1,7,1802,1209,-7844,1745176336513145476
756643,-1,2,6,1805,1187,-7844,1745176336513145476
756835,-3,4,5,1798,1187,-7849,1745176336583241554
757027,-4,4,4,1796,1181,-7874,1745176336583241554
757219,-5,7,2,1778,1179,-7861,1745176336583241554
757411,-6,9,0,1782,1187,-7854,1745176336583241554
757603,-7,10,-1,1764,1180,-7864,1745176336583241554
757795,-8,13,-2,1785,1161,-7862,1745176336583241554
757987,-9,15,-4,1806,1182,-7868,1745176336583241554
758179,-10,16,-4,1788,1183,-7874,1745176336583241554
758371,-11,18,-6,1765,1228,-7865,1745176336583241554
758563,-9,21,-9,1762,1243,-7861,1745176336583241554
758755,-5,24,-10,1757,1232,-7860,1745176336583241554
758947,-3,27,-13,1738,1244,-7849,1745176336583241554
759139,-2,30,-13,1754,1229,-7846,1745176336628064009
759331,0,33,-9,1768,1224,-7850,1745176336628064009
759523,2,34,-7,1775,1218,-7859,1745176336628064009
759715,1,34,-5,1782,1210,-7838,1745176336628064009
759907,2,35,-4,1787,1207,-7831,1745176336628064009
760099,4,34,-3,1783,1190,-7834,1745176336628064009
760291,3,34,-3,1785,1170,-7851,1745176336628064009
760483,1,35,-3,1784,1146,-7865,1745176336628064009
760675,-2,36,-2,1784,1114,-7877,1745176336628064009
760867,-7,36,-2,1792,1126,-7862,1745176336628064009
761059,-12,37,0,1797,1124,-7862,1745176336628064009
761251,-16,37,1,1800,1134,-7854,1745176336628064009
761443,-21,37,2,1807,1141,-7839,1745176336688354604
761635,-26,36,1,1820,1157,-7843,1745176336688354604
761827,-28,37,2,1824,1191,-7826,1745176336688354604
762019,-27,36,7,1832,1207,-7834,1745176336688354604
762211,-27,35,10,1826,1215,-7838,1745176336688354604
762403,-28,34,11,1827,1219,-7820,1745176336688354604
762595,-28,33,14,1831,1236,-7817,1745176336688354604
762787,-27,32,15,1838,1244,-7818,1745176336688354604
762979,-25,30,17,1858,1246,-7827,1745176336688354604
763171,-24,28,19,1837,1238,-7831,1745176336688354604
763363,-21,27,21,1817,1241,-7834,1745176336688354604
763555,-19,25,23,1830,1231,-7843,1745176336688354604
763747,-17,25,25,1830,1231,-7823,1745176336746525792
763939,-12,23,27,1841,1239,-7829,1745176336746525792
764131,-8,21,29,1856,1218,-7848,1745176336746525792
764323,-7,21,21,1866,1259,-7853,1745176336746525792
764515,-5,15,20,1848,1252,-7806,1745176336746525792
764707,3,14,24,1821,1232,-7830,1745176336746525792
764899,6,15,23,1823,1209,-7854,1745176336746525792
765091,6,16,23,1826,1181,-7840,1745176336746525792
765283,6,17,22,1843,1185,-7828,1745176336746525792
765475,5,19,22,1848,1188,-7825,1745176336746525792
765667,3,19,23,1867,1200,-7823,1745176336746525792
765859,2,18,23,1893,1214,-7834,1745176336746525792
766051,0,17,21,1904,1226,-7840,1745176336816749629
766243,-2,15,18,1899,1217,-7818,1745176336816749629
766435,-3,13,13,1892,1232,-7791,1745176336816749629
766627,-2,12,12,1886,1229,-7796,1745176336816749629
766819,1,11,11,1886,1233,-7837,1745176336816749629
767011,2,8,10,1888,1228,-7855,1745176336816749629
767203,1,7,6,1884,1236,-7823,1745176336816749629
767395,1,5,2,1867,1234,-7810,1745176336816749629
767587,5,3,2,1861,1226,-7802,1745176336816749629
767779,9,2,2,1837,1209,-7829,1745176336816749629
767971,11,2,5,1833,1213,-7855,1745176336816749629
768163,11,2,5,1842,1198,-7852,1745176336816749629
768355,10,3,5,1839,1186,-7855,1745176336868957642
768547,10,3,5,1838,1171,-7837,1745176336868957642
768739,10,3,7,1836,1170,-7816,1745176336868957642
768931,9,4,9,1834,1163,-7828,1745176336868957642
769123,9,5,13,1847,1187,-7844,1745176336868957642
769315,7,5,14,1859,1186,-7852,1745176336868957642
769507,4,5,14,1862,1176,-7831,1745176336868957642
769699,3,6,14,1866,1175,-7837,1745176336868957642
769891,3,5,15,1859,1176,-7843,1745176336868957642
770083,1,4,15,1863,1179,-7850,1745176336868957642
770275,0,4,15,1839,1196,-7838,1745176336868957642
770467,0,4,15,1826,1203,-7834,1745176336868957642
770659,1,4,15,1818,1208,-7828,1745176336924171929
770851,1,4,16,1840,1201,-7846,1745176336924171929
771043,1,5,18,1824,1202,-7845,1745176336924171929
771235,1,4,18,1836,1202,-7842,1745176336924171929
771427,2,4,18,1828,1198,-7838,1745176336924171929
771619,1,5,18,1832,1207,-7822,1745176336924171929
771811,1,5,18,1821,1196,-7847,1745176336924171929
772003,2,5,18,1833,1191,-7847,1745176336924171929
772195,1,6,19,1833,1178,-7839,1745176336924171929
772387,1,7,18,1861,1176,-7840,1745176336924171929
772579,1,6,19,1839,1152,-7848,1745176336924171929
772771,1,7,20,1854,1159,-7829,1745176336924171929
772963,-2,9,21,1851,1159,-7867,1745176336993118122
773155,-2,9,21,1845,1164,-7863,1745176336993118122
773347,-2,12,21,1837,1178,-7838,1745176336993118122
773539,-1,14,21,1870,1167,-7818,1745176336993118122
773731,0,14,21,1874,1166,-7838,1745176336993118122
773923,2,14,23,1868,1181,-7865,1745176336993118122
774115,5,14,21,1860,1201,-7834,1745176336993118122
774307,7,16,19,1865,1204,-7836,1745176336993118122
774499,8,17,18,1854,1199,-7822,1745176336993118122
774691,10,17,16,1864,1167,-7840,1745176336993118122
774883,11,18,17,1864,1158,-7842,1745176336993118122
775075,11,18,15,1835,1154,-7847,1745176336993118122
775267,10,20,13,1839,1149,-7833,1745176337039586448
775459,8,21,9,1835,1120,-7834,1745176337039586448
775651,5,22,8,1856,1103,-7851,1745176337039586448
775843,5,23,7,1848,1130,-7863,1745176337039586448
776035,4,24,3,1832,1119,-7854,1745176337039586448
776227,3,27,0,1841,1121,-7835,1745176337039586448
776419,1,28,-2,1867,1126,-7844,1745176337039586448
776611,-3,28,-2,1855,1112,-7864,1745176337039586448
776803,-3,28,-2,1841,1131,-7851,1745176337039586448
776995,-4,30,-1,1851,1157,-7830,1745176337039586448
777187,-5,31,-3,1863,1162,-7831,1745176337039586448
777379,-4,31,-5,1875,1166,-7831,1745176337039586448
777571,-4,32,-4,1881,1173,-7836,1745176337105229025
777763,-2,31,-4,1874,1183,-7838,1745176337105229025
777955,0,33,-4,1879,1201,-7840,1745176337105229025
778147,0,33,-5,1867,1196,-7846,1745176337105229025
778339,2,32,-5,1870,1190,-7829,1745176337105229025
778531,3,32,-4,1872,1177,-7842,1745176337105229025
778723,4,32,-2,1878,1172,-7847,1745176337105229025
778915,6,32,-2,1869,1172,-7823,1745176337105229025
779107,7,32,-3,1877,1173,-7830,1745176337105229025
779299,7,32,-3,1872,1152,-7823,1745176337105229025
779491,6,31,-2,1884,1142,-7820,1745176337105229025
779683,5,31,0,1883,1140,-7832,1745176337105229025
779875,4,31,0,1878,1144,-7835,1745176337155459712
780067,2,30,0,1875,1146,-7821,1745176337155459712
780259,0,29,2,1890,1136,-7814,1745176337155459712
780451,-2,28,3,1903,1127,-7828,1745176337155459712
780643,-3,27,4,1900,1150,-7824,1745176337155459712
780835,-4,28,5,1905,1153,-7810,1745176337155459712
781027,-7,28,6,1912,1152,-7814,1745176337155459712
781219,-8,27,8,1912,1173,-7841,1745176337155459712
781411,-6,25,9,1902,1191,-7823,1745176337155459712
781603,-5,26,9,1914,1199,-7805,1745176337155459712
781795,-4,25,8,1910,1185,-7830,1745176337155459712
781987,-1,24,8,1929,1194,-7813,1745176337155459712
782179,2,23,8,1924,1196,-7809,1745176337216395510
782371,5,23,8,1912,1196,-7835,1745176337216395510
782563,9,22,7,1906,1186,-7853,1745176337216395510
782755,13,24,7,1901,1189,-7827,1745176337216395510
782947,15,25,8,1897,1184,-7870,1745176337216395510
783139,19,26,6,1876,1185,-7847,1745176337216395510
783331,23,29,6,1884,1171,-7859,1745176337216395510
783523,24,30,6,1902,1145,-7863,1745176337216395510
783715,24,31,7,1897,1117,-7855,1745176337216395510
783907,21,33,10,1893,1097,-7831,1745176337216395510
784099,16,34,13,1917,1074,-7823,1745176337216395510
784291,11,36,15,1919,1076,-7826,1745176337216395510
784483,5,39,18,1933,1097,-7830,1745176337273366083
784675,1,42,20,1933,1109,-7833,1745176337273366083
784867,-4,45,21,1940,1149,-7826,1745176337273366083
785059,-9,48,22,1948,1158,-7816,1745176337273366083
785251,-11,49,23,1967,1185,-7830,1745176337273366083
785443,-10,51,25,1946,1221,-7830,1745176337273366083
785635,-6,54,26,1955,1255,-7807,1745176337273366083
785827,0,56,24,1941,1264,-7820,1745176337273366083
786019,5,57,22,1936,1240,-7805,1745176337273366083
786211,9,59,19,1941,1223,-7801,1745176337273366083
786403,12,59,18,1947,1202,-7802,1745176337273366083
786595,14,60,16,1947,1157,-7809,1745176337273366083
786787,15,60,13,1945,1113,-7815,1745176337331962319
786979,14,62,9,1933,1075,-7830,1745176337331962319
787171,10,64,2,1924,1024,-7831,1745176337331962319
787363,4,67,-4,1918,970,-7849,1745176337331962319
787555,-3,67,-10,1922,930,-7850,1745176337331962319
787747,-12,69,-15,1901,889,-7848,1745176337331962319
787939,-21,71,-21,1893,880,-7843,1745176337331962319
788131,-29,73,-27,1865,875,-7855,1745176337331962319
788323,-35,75,-34,1863,881,-7867,1745176337331962319
788515,-42,78,-40,1847,909,-7881,1745176337331962319
788707,-49,80,-47,1873,909,-7873,1745176337331962319
788899,-58,81,-52,1877,935,-7854,1745176337331962319
789091,-65,83,-56,1873,967,-7848,1745176337402034960
789283,-70,84,-61,1873,1013,-7828,1745176337402034960
789475,-74,83,-66,1894,1028,-7813,1745176337402034960
789667,-79,83,-71,1918,1041,-7821,1745176337402034960
789859,-85,82,-77,1919,1053,-7822,1745176337402034960
790051,-89,80,-83,1935,1051,-7811,1745176337402034960
790243,-94,79,-89,1925,1061,-7805,1745176337402034960
790435,-99,76,-95,1938,1064,-7803,1745176337402034960
790627,-104,75,-100,1939,1083,-7820,1745176337402034960
790819,-106,73,-103,1956,1119,-7822,1745176337402034960
791011,-107,72,-106,1969,1169,-7816,1745176337402034960
791203,-106,71,-109,1999,1200,-7814,1745176337402034960
791395,-103,68,-109,2038,1217,-7763,1745176337451156178
791587,-98,64,-109,2057,1236,-7767,1745176337451156178
791779,-95,58,-106,2090,1230,-7760,1745176337451156178
791971,-92,53,-105,2099,1247,-7750,1745176337451156178
792163,-90,50,-103,2091,1249,-7733,1745176337451156178
792355,-88,46,-101,2094,1261,-7714,1745176337451156178
792547,-89,43,-100,2099,1274,-7730,1745176337451156178
792739,-89,38,-97,2119,1281,-7734,1745176337451156178
792931,-91,33,-93,2136,1299,-7718,1745176337451156178
793123,-92,29,-91,2134,1321,-7730,1745176337451156178
793315,-92,24,-87,2108,1341,-7719,1745176337451156178
793507,-90,19,-83,2112,1368,-7737,1745176337451156178
793699,-87,15,-80,2093,1374,-7731,1745176337505078550
793891,-84,12,-76,2079,1401,-7730,1745176337505078550
794083,-80,9,-72,2073,1417,-7749,1745176337505078550
794275,-76,4,-67,2076,1424,-7742,1745176337505078550
794467,-73,3,-60,2066,1426,-7736,1745176337505078550
794659,-73,17,-42,2110,1411,-7720,1745176337505078550
794851,-75,17,-28,2071,1459,-7768,1745176337505078550
795043,-73,0,-22,2075,1489,-7730,1745176337505078550
795235,-65,-5,-20,2034,1497,-7732,1745176337505078550
795427,-59,-3,-15,2015,1479,-7731,1745176337505078550
795619,-51,-8,-10,2009,1459,-7736,1745176337505078550
795811,-43,-11,-7,2031,1420,-7755,1745176337505078550
796003,-39,-14,0,2038,1383,-7773,1745176337565557633
796195,-36,-16,5,2068,1371,-7775,1745176337565557633
796387,-29,-22,9,2058,1386,-7767,1745176337565557633
796579,-28,-26,11,2019,1384,-7741,1745176337565557633
796771,-41,-30,13,1997,1328,-7693,1745176337565557633
796963,-26,-21,20,2071,1339,-7814,1745176337565557633
797155,-9,-30,24,2051,1410,-7802,1745176337565557633
797347,-17,-33,22,2065,1411,-7777,1745176337565557633
797539,-24,-40,19,1943,1368,-7727,1745176337565557633
797731,-49,-31,18,2037,1266,-7716,1745176337565557633
797923,-2,-35,29,2066,1328,-7833,1745176337565557633
798115,1,-40,35,2051,1406,-7759,1745176337565557633
798307,-9,-44,31,2067,1400,-7771,1745176337623823246
798499,-24,-51,20,1877,1357,-7726,1745176337623823246
798691,-52,-36,13,2005,1231,-7727,1745176337623823246
798883,-1,-40,30,2004,1335,-7821,1745176337623823246
799075,9,-44,43,2019,1409,-7814,1745176337623823246
799267,1,-49,40,1989,1422,-7808,1745176337623823246
799459,-31,-51,20,1871,1361,-7744,1745176337623823246
799651,-50,-34,9,1976,1250,-7768,1745176337623823246
799843,-6,-38,26,1997,1343,-7809,1745176337623823246
800035,10,-42,46,2001,1416,-7783,1745176337623823246
800227,9,-48,47,2010,1390,-7810,1745176337623823246
800419,-20,-45,23,1962,1332,-7797,1745176337623823246
800611,-35,-35,7,1985,1244,-7778,1745176337743182729
800803,-10,-38,18,1981,1304,-7781,1745176337743182729
800995,0,-43,33,1978,1336,-7777,1745176337743182729
801187,-8,-47,34,1954,1351,-7797,1745176337743182729
801379,-19,-43,22,1961,1324,-7789,1745176337743182729
801571,-21,-39,15,1941,1317,-7789,1745176337743182729
801763,-14,-38,18,1948,1333,-7789,1745176337743182729
801955,-9,-40,23,1926,1331,-7778,1745176337743182729
802147,-10,-40,25,1933,1319,-7814,1745176337743182729
802339,-14,-39,21,1930,1320,-7787,1745176337743182729
802531,-15,-36,20,1933,1303,-7789,1745176337743182729
802723,-7,-34,22,1944,1321,-7832,1745176337743182729
802915,-3,-36,25,1924,1325,-7787,1745176337751629162
803107,-6,-34,24,1928,1290,-7809,1745176337751629162
803299,-9,-33,21,1934,1264,-7803,1745176337751629162
803491,-8,-30,20,1936,1269,-7770,1745176337751629162
803683,-8,-30,22,1944,1252,-7815,1745176337751629162
803875,-9,-29,23,1932,1281,-7821,1745176337751629162
804067,-14,-27,23,1912,1266,-7804,1745176337751629162
804259,-19,-26,21,1915,1265,-7841,1745176337751629162
804451,-22,-22,19,1910,1272,-7840,1745176337751629162
804643,-27,-20,18,1897,1295,-7822,1745176337751629162
804835,-30,-16,19,1911,1304,-7811,1745176337751629162
805027,-26,-13,20,1895,1339,-7812,1745176337751629162
805219,-18,-9,22,1921,1363,-7811,1745176337796766198
805411,-10,-6,23,1900,1378,-7809,1745176337796766198
805603,-6,-4,22,1920,1376,-7833,1745176337796766198
805795,-4,-2,18,1918,1352,-7833,1745176337796766198
805987,-6,2,12,1917,1317,-7830,1745176337796766198
806179,-18,8,1,1875,1292,-7814,1745176337796766198
806371,-19,14,-3,1897,1288,-7824,1745176337796766198
806563,-7,17,1,1901,1320,-7832,1745176337796766198
806755,-1,18,4,1909,1340,-7824,1745176337796766198
806947,-2,22,2,1916,1329,-7782,1745176337796766198
807139,1,26,-2,1929,1303,-7804,1745176337796766198
807331,4,29,-5,1943,1300,-7829,1745176337796766198
807523,0,31,-9,1936,1290,-7838,1745176337856673932
807715,-7,35,-19,1913,1310,-7789,1745176337856673932
807907,-4,35,-17,1896,1311,-7787,1745176337856673932
808099,1,38,-14,1897,1300,-7816,1745176337856673932
808291,-2,42,-16,1926,1284,-7857,1745176337856673932
808483,-3,44,-22,1929,1302,-7817,1745176337856673932
808675,-7,45,-24,1930,1283,-7791,1745176337856673932
808867,-8,48,-25,1948,1277,-7799,1745176337856673932
809059,-9,48,-25,1926,1284,-7808,1745176337856673932
809251,-12,48,-26,1937,1278,-7792,1745176337856673932
809443,-17,51,-28,1914,1262,-7806,1745176337856673932
809635,-18,53,-29,1953,1265,-7817,1745176337856673932
809827,-19,52,-29,1930,1291,-7807,1745176337917444418
810019,-25,55,-30,1965,1311,-7795,1745176337917444418
810211,-24,56,-30,1968,1316,-7802,1745176337917444418
810403,-20,55,-30,1987,1346,-7796,1745176337917444418
810595,-20,55,-30,1972,1357,-7781,1745176337917444418
810787,-19,55,-30,1977,1360,-7764,1745176337917444418
810979,-11,54,-30,1992,1360,-7772,1745176337917444418
811171,-9,54,-31,1989,1349,-7774,1745176337917444418
811363,-9,54,-30,2006,1334,-7769,1745176337917444418
811555,-9,54,-30,2009,1307,-7799,1745176337917444418
811747,-8,52,-29,2011,1311,-7772,1745176337917444418
811939,-10,51,-29,2006,1303,-7758,1745176337917444418
812131,-12,49,-27,2016,1304,-7793,1745176337972344385
812323,-11,47,-26,2019,1340,-7782,1745176337972344385
812515,-7,46,-24,2010,1379,-7765,1745176337972344385
812707,-3,45,-22,2019,1391,-7768,1745176337972344385
812899,2,42,-21,2019,1403,-7756,1745176337972344385
813091,7,39,-20,2036,1414,-7721,1745176337972344385
813283,10,35,-18,2034,1408,-7743,1745176337972344385
813475,13,30,-15,2045,1421,-7765,1745176337972344385
813667,18,26,-12,2045,1422,-7742,1745176337972344385
813859,21,22,-9,2027,1396,-7746,1745176337972344385
814051,23,18,-7,2030,1377,-7770,1745176337972344385
814243,24,14,-6,2027,1364,-7753,1745176337972344385
814435,24,12,-2,2020,1347,-7721,1745176338032823052
814627,21,8,2,2010,1319,-7747,1745176338032823052
814819,18,6,5,2016,1311,-7760,1745176338032823052
815011,16,4,9,2000,1303,-7769,1745176338032823052
815203,12,5,14,2017,1278,-7789,1745176338032823052
815395,10,5,17,2021,1276,-7802,1745176338032823052
815587,10,3,17,1998,1289,-7816,1745176338032823052
815779,10,3,17,1991,1297,-7787,1745176338032823052
815971,9,5,17,1982,1293,-7774,1745176338032823052
816163,7,5,18,1975,1273,-7793,1745176338032823052
816355,5,4,21,1988,1295,-7782,1745176338032823052
816547,0,5,23,1975,1281,-7766,1745176338032823052
816739,-5,6,24,1965,1312,-7808,1745176338092545110
816931,-7,8,25,1970,1321,-7785,1745176338092545110
817123,-8,11,26,1980,1339,-7810,1745176338092545110
817315,-8,13,26,2009,1340,-7801,1745176338092545110
817507,-7,15,26,2022,1339,-7808,1745176338092545110
817699,-7,18,26,2016,1344,-7790,1745176338092545110
817891,-7,21,26,2012,1337,-7802,1745176338092545110
818083,-7,24,26,2009,1341,-7795,1745176338092545110
818275,-7,28,25,2012,1327,-7794,1745176338092545110
818467,-6,30,23,2019,1308,-7767,1745176338092545110
818659,-7,32,22,2013,1311,-7774,1745176338092545110
818851,-8,34,22,2007,1314,-7767,1745176338092545110
819043,-7,37,21,2006,1326,-7784,1745176338149133343
819235,-5,40,23,2003,1353,-7770,1745176338149133343
819427,-3,42,21,2008,1355,-7756,1745176338149133343
819619,-1,43,21,2026,1338,-7756,1745176338149133343
819811,-2,44,21,2042,1334,-7753,1745176338149133343
820003,-2,46,23,2041,1333,-7750,1745176338149133343
820195,-2,48,24,2040,1352,-7761,1745176338149133343
820387,-1,51,25,2029,1363,-7769,1745176338149133343
820579,2,54,26,2021,1369,-7779,1745176338149133343
820771,7,56,25,2025,1372,-7786,1745176338149133343
820963,13,57,22,2018,1383,-7791,1745176338149133343
821155,20,58,20,2004,1372,-7785,1745176338149133343
821347,26,60,19,1998,1355,-7794,1745176338206066313
821539,29,63,19,1982,1338,-7784,1745176338206066313
821731,31,64,20,1988,1334,-7791,1745176338206066313
821923,34,66,20,1954,1337,-7800,1745176338206066313
822115,36,68,19,1946,1331,-7787,1745176338206066313
822307,38,72,17,1958,1320,-7818,1745176338206066313
822499,40,75,15,1979,1291,-7802,1745176338206066313
822691,42,77,14,1998,1267,-7803,1745176338206066313
822883,40,77,12,2011,1225,-7817,1745176338206066313
823075,38,77,9,2012,1188,-7812,1745176338206066313
823267,33,78,7,2013,1161,-7827,1745176338206066313
823459,31,79,5,2023,1156,-7820,1745176338206066313
823651,27,82,1,2044,1153,-7792,1745176338325034914
823843,21,83,-2,2046,1147,-7802,1745176338325034914
824035,15,82,-4,2093,1136,-7772,1745176338325034914
824227,8,82,-5,2105,1149,-7770,1745176338325034914
824419,1,80,-7,2106,1167,-7768,1745176338325034914
824611,-6,79,-8,2104,1196,-7764,1745176338325034914
824803,-10,79,-8,2108,1197,-7771,1745176338325034914
824995,-13,79,-9,2105,1233,-7753,1745176338325034914
825187,-15,81,-10,2111,1254,-7770,1745176338325034914
825379,-14,81,-9,2124,1279,-7772,1745176338325034914
825571,-13,81,-9,2133,1300,-7764,1745176338325034914
825763,-11,80,-9,2145,1314,-7772,1745176338325034914
825955,-7,79,-10,2147,1341,-7753,1745176338333668012
826147,-2,78,-10,2154,1350,-7769,1745176338333668012
826339,3,80,-10,2134,1350,-7738,1745176338333668012
826531,8,80,-8,2155,1367,-7748,1745176338333668012
826723,13,79,-7,2162,1359,-7775,1745176338333668012
826915,20,77,-6,2163,1363,-7753,1745176338333668012
827107,27,80,-6,2154,1370,-7768,1745176338333668012
827299,34,83,-7,2160,1339,-7796,1745176338333668012
827491,40,88,-9,2158,1312,-7783,1745176338333668012
827683,43,93,-11,2173,1286,-7783,1745176338333668012
827875,44,95,-12,2172,1258,-7789,1745176338333668012
828067,44,97,-14,2169,1226,-7774,1745176338333668012
828259,42,101,-17,2168,1175,-7818,1745176338388121056
828451,39,106,-20,2143,1129,-7835,1745176338388121056
828643,36,112,-24,2121,1085,-7820,1745176338388121056
828835,30,120,-29,2127,1041,-7847,1745176338388121056
829027,21,128,-33,2120,1024,-7847,1745176338388121056
829219,11,137,-37,2135,991,-7884,1745176338388121056
829411,2,144,-40,2126,977,-7863,1745176338388121056
829603,-9,153,-44,2131,951,-7892,1745176338388121056
829795,-21,161,-48,2103,902,-7918,1745176338388121056
829987,-34,169,-54,2119,855,-7955,1745176338388121056
830179,-43,178,-57,2117,808,-7966,1745176338388121056
830371,-45,183,-58,2097,831,-8017,1745176338388121056
830563,-50,191,-63,2071,874,-8034,1745176338440182976
830755,-55,203,-71,2054,901,-7969,1745176338440182976
830947,-54,213,-77,2078,917,-7941,1745176338440182976
831139,-53,221,-78,2125,915,-7949,1745176338440182976
831331,-53,227,-75,2186,979,-7964,1745176338440182976
831523,-52,234,-73,2206,1075,-7983,1745176338440182976
831715,-46,244,-75,2213,1182,-8027,1745176338440182976
831907,-33,255,-80,2220,1265,-8055,1745176338440182976
832099,-14,266,-88,2238,1282,-8096,1745176338440182976
832291,11,276,-96,2273,1250,-8143,1745176338440182976
832483,39,285,-102,2322,1171,-8186,1745176338440182976
832675,61,294,-106,2379,1047,-8208,1745176338440182976
832867,74,302,-105,2431,928,-8268,1745176338502091682
833059,78,310,-104,2453,830,-8302,1745176338502091682
833251,68,320,-109,2451,733,-8354,1745176338502091682
833443,50,331,-120,2540,595,-8557,1745176338502091682
833635,28,333,-132,2707,442,-8956,1745176338502091682
833827,9,324,-140,2795,228,-8919,1745176338502091682
834019,1,317,-144,2818,69,-9088,1745176338502091682
834211,3,308,-146,2870,27,-9286,1745176338502091682
834403,12,300,-153,2886,50,-9498,1745176338502091682
834595,36,286,-160,2905,-9,-9476,1745176338502091682
834787,79,273,-165,3036,-161,-9841,1745176338502091682
834979,162,256,-165,3465,-340,-11109,1745176338502091682
835171,316,210,-148,3720,-820,-10166,1745176338566767341
835363,493,186,-88,3527,-1124,-9908,1745176338566767341
835555,703,194,-4,3403,-834,-9847,1745176338566767341
835747,898,214,62,3882,-362,-9873,1745176338566767341
835939,1141,248,199,4776,-131,-10127,1745176338566767341
836131,1449,126,314,5370,-1151,-10666,1745176338566767341
836323,1737,-26,401,5231,-2283,-10662,1745176338566767341
836515,2002,-123,472,4478,-2557,-10780,1745176338566767341
836707,2207,-172,498,3991,-2307,-10641,1745176338566767341
836899,2271,-148,494,3979,-2339,-10773,1745176338566767341
837091,2219,-139,533,4473,-3231,-10900,1745176338566767341
837283,2092,-175,709,5163,-4966,-10554,1745176338566767341
837475,1941,-238,1055,5797,-7035,-10131,1745176338615126430
837667,1760,-303,1493,6140,-9026,-9751,1745176338615126430
837859,1523,-335,1908,5936,-10570,-9477,1745176338615126430
838051,1244,-339,2222,5331,-11450,-9293,1745176338615126430
838243,916,-321,2398,4718,-11688,-9172,1745176338615126430
838435,562,-316,2473,4478,-11443,-9185,1745176338615126430
838627,221,-344,2489,4718,-10695,-9359,1745176338615126430
838819,-109,-395,2484,5158,-9600,-9529,1745176338615126430
839011,-385,-477,2502,5707,-8465,-9626,1745176338615126430
839203,-557,-526,2576,6284,-7358,-9679,1745176338615126430
839395,-645,-585,2698,6678,-6365,-9702,1745176338615126430
839587,-652,-655,2821,6858,-5462,-9685,1745176338615126430
839779,-601,-741,2925,6865,-4768,-9633,1745176338680733748
839971,-523,-833,3012,6765,-4428,-9530,1745176338680733748
840163,-439,-920,3079,6490,-4353,-9378,1745176338680733748
840355,-359,-975,3152,6106,-4415,-9182,1745176338680733748
840547,-301,-998,3248,5774,-4507,-8986,1745176338680733748
840739,-279,-990,3365,5521,-4570,-8707,1745176338680733748
840931,-296,-967,3493,5357,-4544,-8507,1745176338680733748
841123,-346,-935,3611,5347,-4436,-8363,1745176338680733748
841315,-412,-898,3700,5369,-4212,-8196,1745176338680733748
841507,-477,-857,3766,5410,-3909,-8015,1745176338680733748
841699,-531,-812,3818,5441,-3519,-7841,1745176338680733748
841891,-578,-766,3858,5539,-3101,-7684,1745176338680733748
842083,-620,-722,3887,5624,-2663,-7540,1745176338737233388
842275,-654,-681,3904,5664,-2249,-7427,1745176338737233388
842467,-680,-646,3914,5710,-1898,-7345,1745176338737233388
842659,-692,-612,3932,5723,-1617,-7183,1745176338737233388
842851,-683,-578,3960,5652,-1375,-7075,1745176338737233388
843043,-655,-538,3999,5623,-1144,-7034,1745176338737233388
843235,-616,-492,4038,5618,-907,-6951,1745176338737233388
843427,-577,-442,4075,5613,-676,-6961,1745176338737233388
843619,-531,-394,4104,5668,-478,-6972,1745176338737233388
843811,-473,-350,4118,5688,-242,-6929,1745176338737233388
844003,-408,-305,4120,5692,-2,-6920,1745176338737233388
844195,-338,-260,4121,5700,182,-6864,1745176338737233388
844387,-267,-215,4117,5737,329,-6844,1745176338790589150
844579,-200,-165,4117,5757,471,-6841,1745176338790589150
844771,-135,-115,4116,5739,601,-6796,1745176338790589150
844963,-71,-54,4115,5704,789,-6830,1745176338790589150
845155,-12,14,4115,5690,972,-6863,1745176338790589150
845347,37,83,4113,5736,1123,-6863,1745176338790589150
845539,86,154,4116,5793,1234,-6736,1745176338790589150
845731,124,221,4126,5958,1249,-6550,1745176338790589150
845923,136,275,4142,6171,1152,-6297,1745176338790589150
846115,120,312,4160,6275,943,-6145,1745176338790589150
846307,84,341,4174,6248,818,-6076,1745176338790589150
846499,39,382,4179,6122,780,-6066,1745176338790589150
846691,-14,434,4174,6042,845,-6094,1745176338864481080
846883,-67,483,4161,6102,956,-6055,1745176338864481080
847075,-113,517,4141,6215,1103,-5951,1745176338864481080
847267,-158,531,4115,6338,1239,-5821,1745176338864481080
847459,-202,532,4079,6420,1371,-5798,1745176338864481080
847651,-246,530,4036,6352,1558,-5810,1745176338864481080
847843,-287,533,3992,6242,1788,-5923,1745176338864481080
848035,-322,541,3946,6178,1988,-6127,1745176338864481080
848227,-338,549,3902,6086,2164,-6272,1745176338864481080
848419,-337,552,3857,6009,2302,-6413,1745176338864481080
848611,-326,552,3810,5947,2373,-6510,1745176338864481080
848803,-314,544,3758,5853,2382,-6614,1745176338864481080
848995,-295,542,3705,5719,2425,-6596,1745176338913127510
849187,-271,551,3654,5560,2481,-6543,1745176338913127510
849379,-251,567,3602,5395,2521,-6514,1745176338913127510
849571,-237,579,3547,5298,2465,-6460,1745176338913127510
849763,-224,576,3484,5179,2370,-6425,1745176338913127510
849955,-209,564,3415,5025,2225,-6416,1745176338913127510
850147,-197,543,3339,4852,2076,-6358,1745176338913127510
850339,-197,520,3260,4724,1925,-6302,1745176338913127510
850531,-205,491,3190,4548,1819,-6212,1745176338913127510
850723,-216,457,3121,4423,1777,-6140,1745176338913127510
850915,-240,421,3044,4242,1835,-6150,1745176338913127510
851107,-273,383,2959,4043,1882,-6101,1745176338913127510
851299,-303,344,2869,3809,1965,-6057,1745176338988144950
851491,-332,306,2775,3572,2027,-6058,1745176338988144950
851683,-364,265,2677,3318,2065,-6093,1745176338988144950
851875,-396,227,2579,3108,2067,-6160,1745176338988144950
852067,-428,194,2479,2900,2080,-6249,1745176338988144950
852259,-460,165,2382,2702,2064,-6351,1745176338988144950
852451,-490,142,2288,2529,2065,-6477,1745176338988144950
852643,-522,124,2197,2344,2059,-6599,1745176338988144950
852835,-551,112,2111,2211,2041,-6708,1745176338988144950
853027,-572,104,2026,2086,1997,-6817,1745176338988144950
853219,-588,94,1945,2011,1936,-6855,1745176338988144950
853411,-598,82,1864,1949,1903,-6869,1745176338988144950
853603,-603,67,1784,1852,1906,-6845,1745176339037906266
853795,-605,52,1706,1721,1972,-6874,1745176339037906266
853987,-603,40,1629,1598,2040,-6827,1745176339037906266
854179,-592,30,1552,1468,2070,-6803,1745176339037906266
854371,-567,24,1477,1337,2032,-6836,1745176339037906266
854563,-532,21,1408,1227,1953,-6896,1745176339037906266
854755,-493,18,1344,1126,1852,-6921,1745176339037906266
854947,-459,18,1288,1055,1704,-6954,1745176339037906266
855139,-429,23,1238,1015,1597,-7006,1745176339037906266
855331,-398,30,1190,979,1611,-7043,1745176339037906266
855523,-368,40,1137,978,1672,-7102,1745176339037906266
855715,-338,47,1080,1025,1711,-7193,1745176339037906266
855907,-304,34,1014,1092,1728,-7276,1745176339087560656
856099,-270,11,934,1122,1696,-7273,1745176339087560656
856291,-245,-12,840,1057,1620,-7375,1745176339087560656
856483,-235,-31,747,982,1489,-7422,1745176339087560656
856675,-226,-37,683,930,1378,-7455,1745176339087560656
856867,-215,-26,651,772,1342,-7504,1745176339087560656
857059,-197,-2,649,597,1358,-7525,1745176339087560656
857251,-181,24,663,567,1297,-7499,1745176339087560656
857443,-168,45,671,697,1184,-7519,1745176339087560656
857635,-160,55,652,773,1112,-7595,1745176339087560656
857827,-156,61,620,787,1084,-7631,1745176339087560656
858019,-153,62,591,794,1062,-7656,1745176339087560656
858211,-149,64,569,809,1056,-7679,1745176339147901407
858403,-141,63,552,807,1047,-7638,1745176339147901407
858595,-125,61,539,803,1020,-7723,1745176339147901407
858787,-107,55,516,817,979,-7786,1745176339147901407
858979,-90,52,485,784,906,-7737,1745176339147901407
859171,-78,52,455,783,767,-7662,1745176339147901407
859363,-72,55,431,807,621,-7592,1745176339147901407
859555,-71,60,410,816,522,-7596,1745176339147901407
859747,-71,58,389,793,493,-7634,1745176339147901407
859939,-72,54,364,749,527,-7660,1745176339147901407
860131,-75,47,341,688,584,-7701,1745176339147901407
860323,-76,43,317,681,605,-7750,1745176339147901407
860515,-71,42,291,656,572,-7779,1745176339206086240
860707,-62,43,264,656,502,-7842,1745176339206086240
860899,-52,45,239,675,422,-7866,1745176339206086240
861091,-48,45,216,694,349,-7885,1745176339206086240
861283,-52,43,196,705,286,-7924,1745176339206086240
861475,-59,39,177,724,256,-7951,1745176339206086240
861667,-65,38,157,717,227,-7919,1745176339206086240
861859,-72,36,140,721,202,-7941,1745176339206086240
862051,-78,36,126,734,192,-7944,1745176339206086240
862243,-80,35,112,719,151,-7941,1745176339206086240
862435,-76,33,99,737,104,-7981,1745176339206086240
862627,-69,30,87,742,75,-7976,1745176339206086240
862819,-62,26,74,745,45,-7934,1745176339274283534
863011,-60,23,62,718,45,-7936,1745176339274283534
863203,-60,21,52,699,23,-7951,1745176339274283534
863395,-56,18,43,695,-32,-7938,1745176339274283534
863587,-43,18,35,693,-69,-7948,1745176339274283534
863779,-26,16,32,688,-67,-7921,1745176339274283534
863971,-14,17,33,677,-48,-7915,1745176339274283534
864163,-7,17,36,689,-44,-7886,1745176339274283534
864355,-1,15,35,685,-84,-7899,1745176339274283534
864547,6,15,29,709,-164,-7910,1745176339274283534
864739,11,17,18,737,-232,-7977,1745176339274283534
864931,15,19,7,757,-287,-7997,1745176339274283534
865123,15,18,-3,763,-342,-8012,1745176339323854435
865315,12,15,-10,788,-402,-8018,1745176339323854435
865507,7,13,-14,777,-438,-8039,1745176339323854435
865699,1,14,-16,760,-441,-8052,1745176339323854435
865891,-4,14,-18,752,-438,-8030,1745176339323854435
866083,-6,14,-21,737,-424,-8036,1745176339323854435
866275,-5,16,-24,737,-384,-7998,1745176339323854435
866467,-3,21,-27,735,-366,-7988,1745176339323854435
866659,0,27,-29,753,-404,-7998,1745176339323854435
866851,7,34,-30,782,-466,-7966,1745176339323854435
867043,18,38,-30,809,-540,-7969,1745176339323854435
867235,26,38,-28,800,-543,-7989,1745176339323854435
867427,29,35,-25,782,-542,-7959,1745176339380425064
867619,26,34,-26,765,-552,-7942,1745176339380425064
867811,23,35,-28,763,-572,-7962,1745176339380425064
868003,24,39,-29,778,-605,-7973,1745176339380425064
868195,32,43,-32,800,-606,-7997,1745176339380425064
868387,38,45,-34,817,-589,-8000,1745176339380425064
868579,42,45,-35,849,-572,-8042,1745176339380425064
868771,46,43,-36,872,-558,-8054,1745176339380425064
868963,51,39,-36,899,-551,-8062,1745176339380425064
869155,56,35,-38,906,-547,-8063,1745176339380425064
869347,59,30,-42,903,-587,-8062,1745176339380425064
869539,61,26,-47,880,-617,-8060,1745176339380425064
869731,63,22,-50,851,-660,-8069,1745176339448736159
869923,63,18,-56,811,-678,-8071,1745176339448736159
870115,58,17,-62,804,-723,-8070,1745176339448736159
870307,52,18,-66,799,-722,-8100,1745176339448736159
870499,47,20,-70,829,-744,-8106,1745176339448736159
870691,45,22,-74,831,-745,-8105,1745176339448736159
870883,42,22,-76,845,-752,-8108,1745176339448736159
871075,40,22,-77,864,-776,-8093,1745176339448736159
871267,39,21,-76,873,-813,-8040,1745176339448736159
871459,37,21,-74,868,-873,-8032,1745176339448736159
871651,35,21,-72,884,-952,-8052,1745176339448736159
871843,34,21,-69,879,-966,-8044,1745176339448736159
