timestamp,gyr_x,gyr_y,gyr_z,acc_x,acc_y,acc_z,pkt_time_ns
66977,-54,-142,20,1080,1756,-7749,1745188227885930074
67169,-294,-182,17,1040,2213,-7900,1745188227885930074
67361,-269,-141,26,995,2598,-7939,1745188227885930074
67553,-245,-144,18,988,2657,-8039,1745188227885930074
67745,-233,-115,-12,832,2660,-8011,1745188227885930074
67937,-216,-92,-36,793,2558,-7995,1745188227885930074
68129,-213,-94,-42,887,2445,-7981,1745188227885930074
68321,-212,-84,-31,886,2490,-7871,1745188227885930074
68513,-208,-88,-22,813,2685,-7668,1745188227885930074
68705,-197,-114,-22,1126,2868,-7521,1745188227885930074
68897,-190,-184,-20,2006,2471,-7488,1745188227885930074
69089,-231,-286,3,2371,1925,-7514,1745188227885930074
69281,-301,-361,35,2125,1763,-7560,1745188227941572118
69473,-367,-400,61,1741,1891,-7652,1745188227941572118
69665,-414,-411,73,1255,2362,-7684,1745188227941572118
69857,-442,-405,81,746,2936,-7728,1745188227941572118
70049,-436,-365,91,269,3448,-7818,1745188227941572118
70241,-391,-296,100,-74,3737,-7942,1745188227941572118
70433,-313,-210,97,-270,4074,-8088,1745188227941572118
70625,-192,-107,88,-529,4423,-8194,1745188227941572118
70817,-11,28,74,-815,4702,-8354,1745188227941572118
71009,192,178,50,-910,4593,-8510,1745188227941572118
71201,374,310,14,-673,4157,-8637,1745188227941572118
71393,515,409,-22,-452,3818,-7989,1745188227941572118
71585,539,517,-66,-1302,3023,-9374,1745188227997498378
71777,734,617,-88,-503,4546,-7923,1745188227997498378
71969,929,651,-69,-222,4550,-7887,1745188227997498378
72161,1036,655,-82,211,1611,-7296,1745188227997498378
72353,778,537,-159,1313,-875,-7321,1745188227997498378
72545,491,401,-157,2162,-1068,-7178,1745188227997498378
72737,236,297,-26,2691,-644,-7191,1745188227997498378
72929,24,210,120,2912,206,-7336,1745188227997498378
73121,-138,145,189,2850,1196,-7420,1745188227997498378
73313,-241,84,160,2459,2001,-7432,1745188227997498378
73505,-241,37,73,1847,2647,-7471,1745188227997498378
73697,-169,23,-10,1280,3094,-7529,1745188227997498378
73889,-85,36,-59,904,3307,-7554,1745188228056195237
74081,-5,62,-66,747,3273,-7542,1745188228056195237
74273,52,87,-44,789,3060,-7459,1745188228056195237
74465,90,106,-15,986,2790,-7333,1745188228056195237
74657,108,117,3,1273,2552,-7220,1745188228056195237
74849,103,112,0,1499,2379,-7128,1745188228056195237
75041,79,96,-10,1632,2294,-7073,1745188228056195237
75233,47,72,-16,1620,2249,-7062,1745188228056195237
75425,18,45,-11,1506,2262,-7060,1745188228056195237
75617,-4,24,-6,1290,2326,-7104,1745188228056195237
75809,-19,10,-1,1071,2409,-7186,1745188228056195237
76001,-20,7,4,904,2457,-7257,1745188228056195237
76193,-9,8,5,802,2480,-7355,1745188228116700518
76385,6,9,3,819,2462,-7474,1745188228116700518
76577,18,12,-1,883,2433,-7529,1745188228116700518
76769,21,12,-6,1014,2446,-7604,1745188228116700518
76961,12,6,-7,1161,2443,-7677,1745188228116700518
77153,-9,-3,-6,1278,2469,-7697,1745188228116700518
77345,-34,-16,-4,1326,2473,-7696,1745188228116700518
77537,-54,-31,-3,1317,2464,-7669,1745188228116700518
77729,-71,-45,0,1252,2480,-7645,1745188228116700518
77921,-85,-56,5,1152,2519,-7614,1745188228116700518
78113,-96,-61,9,1064,2563,-7591,1745188228116700518
78305,-102,-62,11,1020,2584,-7558,1745188228116700518
78497,-107,-60,11,987,2584,-7543,1745188228181068472
78689,-109,-58,8,1000,2591,-7583,1745188228181068472
78881,-105,-55,2,1029,2569,-7629,1745188228181068472
79073,-100,-51,-1,1072,2518,-7661,1745188228181068472
79265,-92,-49,-2,1140,2449,-7711,1745188228181068472
79457,-84,-48,-1,1166,2406,-7737,1745188228181068472
79649,-79,-48,0,1173,2385,-7793,1745188228181068472
79841,-74,-47,2,1163,2396,-7814,1745188228181068472
80033,-64,-46,5,1142,2401,-7835,1745188228181068472
80225,-50,-43,8,1085,2425,-7860,1745188228181068472
80417,-38,-40,8,1025,2474,-7866,1745188228181068472
80609,-30,-35,6,949,2498,-7880,1745188228181068472
80801,-24,-28,4,930,2534,-7899,1745188228231628427
80993,-16,-20,4,913,2541,-7928,1745188228231628427
81185,-7,-12,4,922,2568,-7942,1745188228231628427
81377,-4,-4,6,950,2584,-7945,1745188228231628427
81569,-6,2,7,982,2572,-7933,1745188228231628427
81761,-9,6,10,1003,2598,-7927,1745188228231628427
81953,-10,10,13,996,2618,-7878,1745188228231628427
82145,-7,13,14,979,2638,-7834,1745188228231628427
82337,-2,16,14,965,2641,-7786,1745188228231628427
82529,3,21,15,927,2623,-7758,1745188228231628427
82721,9,26,16,894,2580,-7753,1745188228231628427
82913,17,33,16,897,2495,-7738,1745188228231628427
83105,27,39,15,948,2379,-7718,1745188228296885174
83297,35,46,15,980,2331,-7708,1745188228296885174
83489,41,52,14,1052,2282,-7681,1745188228296885174
83681,43,55,14,1107,2271,-7679,1745188228296885174
83873,43,57,13,1142,2278,-7665,1745188228296885174
84065,44,59,12,1177,2333,-7645,1745188228296885174
84257,42,60,11,1162,2382,-7624,1745188228296885174
84449,37,62,8,1155,2455,-7595,1745188228296885174
84641,32,64,7,1141,2499,-7582,1745188228296885174
84833,30,66,5,1121,2558,-7590,1745188228296885174
85025,31,69,6,1119,2595,-7606,1745188228296885174
85217,34,73,8,1115,2639,-7616,1745188228296885174
85409,38,75,10,1163,2643,-7645,1745188228350934420
85601,39,75,12,1183,2626,-7623,1745188228350934420
85793,40,76,14,1198,2606,-7608,1745188228350934420
85985,41,76,14,1215,2600,-7601,1745188228350934420
86177,38,75,14,1212,2572,-7630,1745188228350934420
86369,32,75,16,1222,2541,-7626,1745188228350934420
86561,24,72,19,1207,2502,-7603,1745188228350934420
86753,18,71,21,1198,2480,-7608,1745188228350934420
86945,13,71,22,1164,2469,-7603,1745188228350934420
87137,9,70,25,1172,2475,-7621,1745188228350934420
87329,5,68,31,1157,2433,-7629,1745188228350934420
87521,-1,65,37,1151,2433,-7644,1745188228350934420
87713,-10,62,42,1139,2430,-7652,1745188228431962169
87905,-19,61,44,1110,2452,-7670,1745188228431962169
88097,-31,60,45,1122,2487,-7682,1745188228431962169
88289,-43,60,47,1104,2531,-7671,1745188228431962169
88481,-52,60,48,1112,2561,-7667,1745188228431962169
88673,-55,62,49,1095,2588,-7644,1745188228431962169
88865,-52,63,50,1085,2622,-7639,1745188228431962169
89057,-45,67,51,1091,2643,-7675,1745188228431962169
89249,-34,72,51,1114,2629,-7705,1745188228431962169
89441,-20,76,53,1138,2582,-7734,1745188228431962169
89633,-3,80,54,1187,2550,-7754,1745188228431962169
89825,13,83,54,1225,2522,-7765,1745188228431962169
90017,23,85,54,1250,2482,-7803,1745188228462099030
90209,27,85,54,1260,2430,-7830,1745188228462099030
90401,28,83,56,1251,2385,-7855,1745188228462099030
90593,30,80,57,1212,2355,-7848,1745188228462099030
90785,30,78,61,1175,2342,-7844,1745188228462099030
90977,28,78,64,1145,2329,-7821,1745188228462099030
91169,25,78,66,1152,2341,-7785,1745188228462099030
91361,20,78,65,1148,2367,-7719,1745188228462099030
91553,17,80,62,1132,2386,-7681,1745188228462099030
91745,13,83,60,1108,2409,-7682,1745188228462099030
91937,10,86,60,1084,2418,-7719,1745188228462099030
92129,10,90,62,1110,2413,-7756,1745188228462099030
92321,14,92,63,1127,2374,-7791,1745188228525391889
92513,18,96,60,1171,2371,-7791,1745188228525391889
92705,19,98,58,1230,2358,-7792,1745188228525391889
92897,18,100,57,1296,2360,-7766,1745188228525391889
93089,17,98,57,1358,2383,-7718,1745188228525391889
93281,15,96,57,1389,2398,-7677,1745188228525391889
93473,13,93,59,1400,2422,-7639,1745188228525391889
93665,10,90,62,1411,2430,-7591,1745188228525391889
93857,3,88,64,1436,2407,-7556,1745188228525391889
94049,-7,86,64,1421,2388,-7495,1745188228525391889
94241,-22,81,63,1428,2360,-7458,1745188228525391889
94433,-38,77,61,1402,2349,-7419,1745188228525391889
94625,-56,73,61,1362,2306,-7399,1745188228582433139
94817,-75,68,63,1323,2302,-7393,1745188228582433139
95009,-93,66,64,1303,2295,-7404,1745188228582433139
95201,-111,65,65,1287,2295,-7433,1745188228582433139
95393,-130,65,67,1292,2287,-7475,1745188228582433139
95585,-151,65,68,1313,2268,-7526,1745188228582433139
95777,-169,60,69,1343,2268,-7568,1745188228582433139
95969,-184,55,70,1341,2290,-7605,1745188228582433139
96161,-202,49,71,1357,2298,-7658,1745188228582433139
96353,-222,43,74,1352,2324,-7682,1745188228582433139
96545,-240,38,78,1357,2370,-7682,1745188228582433139
96737,-251,32,80,1341,2406,-7703,1745188228582433139
96929,-255,26,79,1330,2454,-7727,1745188228637635655
97121,-251,20,78,1323,2482,-7725,1745188228637635655
97313,-238,17,78,1308,2482,-7744,1745188228637635655
97505,-219,14,79,1284,2491,-7775,1745188228637635655
97697,-195,14,78,1297,2463,-7837,1745188228637635655
97889,-168,14,75,1284,2433,-7876,1745188228637635655
98081,-143,14,74,1302,2387,-7922,1745188228637635655
98273,-118,14,72,1323,2349,-7959,1745188228637635655
98465,-96,13,69,1372,2342,-7977,1745188228637635655
98657,-78,13,66,1432,2321,-7971,1745188228637635655
98849,-63,12,62,1480,2318,-7946,1745188228637635655
99041,-50,10,60,1501,2343,-7926,1745188228637635655
99233,-42,8,57,1514,2367,-7927,1745188228704263692
99425,-40,6,55,1514,2396,-7888,1745188228704263692
99617,-36,5,55,1489,2425,-7869,1745188228704263692
99809,-32,6,56,1473,2455,-7862,1745188228704263692
100001,-31,7,56,1462,2487,-7856,1745188228704263692
100193,-31,12,58,1469,2538,-7821,1745188228704263692
100385,-31,17,59,1467,2600,-7807,1745188228704263692
100577,-32,22,60,1456,2676,-7816,1745188228704263692
100769,-34,27,60,1498,2763,-7812,1745188228704263692
100961,-35,34,58,1512,2851,-7838,1745188228704263692
101153,-36,42,58,1542,2929,-7873,1745188228704263692
101345,-36,49,59,1578,2948,-7941,1745188228704263692
101537,-41,53,60,1629,2944,-8254,1745188228757092845
101729,-53,52,59,1699,2917,-8481,1745188228757092845
101921,-55,54,60,1755,2948,-8361,1745188228757092845
102113,-48,53,60,1771,3039,-8193,1745188228757092845
102305,-35,55,53,1785,3111,-8036,1745188228757092845
102497,-23,61,38,1745,3091,-7925,1745188228757092845
102689,-23,72,18,1698,3052,-7863,1745188228757092845
102881,-34,86,-2,1630,2951,-7849,1745188228757092845
103073,-41,101,-14,1586,2751,-7849,1745188228757092845
103265,-37,120,-22,1549,2504,-7867,1745188228757092845
103457,-21,145,-28,1548,2227,-7946,1745188228757092845
103649,8,169,-38,1623,2100,-8088,1745188228757092845
103841,51,198,-53,1742,2131,-8090,1745188228827720742
104033,100,232,-79,1888,2277,-8151,1745188228827720742
104225,164,263,-114,2094,2444,-8323,1745188228827720742
104417,250,293,-154,2343,2636,-8447,1745188228827720742
104609,357,314,-201,2581,2879,-8528,1745188228827720742
104801,477,327,-251,2776,3136,-8578,1745188228827720742
104993,607,333,-295,2923,3377,-8526,1745188228827720742
105185,733,335,-328,3016,3550,-8467,1745188228827720742
105377,847,337,-346,3049,3617,-8392,1745188228827720742
105569,952,341,-349,3056,3622,-8406,1745188228827720742
105761,1049,350,-337,3096,3514,-8371,1745188228827720742
105953,1149,374,-316,3177,3368,-8176,1745188228827720742
106145,1261,392,-297,3272,3275,-8072,1745188228874521668
106337,1355,390,-299,3301,3250,-7999,1745188228874521668
106529,1419,384,-324,3287,3192,-8002,1745188228874521668
106721,1474,388,-352,3252,3055,-7972,1745188228874521668
106913,1504,391,-364,3260,2940,-8019,1745188228874521668
107105,1496,384,-376,3234,2752,-8101,1745188228874521668
107297,1470,369,-386,3161,2486,-8201,1745188228874521668
107489,1429,353,-387,3085,2196,-8362,1745188228874521668
107681,1380,338,-380,3061,1908,-8615,1745188228874521668
107873,1324,326,-369,3048,1652,-8803,1745188228874521668
108065,1264,315,-363,3094,1437,-8981,1745188228874521668
108257,1206,305,-361,3126,1272,-9119,1745188228874521668
108449,1155,297,-366,3197,1165,-9283,1745188228934863878
108641,1114,284,-372,3277,1075,-9471,1745188228934863878
108833,1082,267,-375,3373,955,-9573,1745188228934863878
109025,1064,248,-369,3467,799,-9640,1745188228934863878
109217,1055,229,-354,3550,617,-9763,1745188228934863878
109409,1049,209,-332,3642,430,-9804,1745188228934863878
109601,1045,185,-301,3714,204,-9851,1745188228934863878
109793,1040,157,-268,3787,4,-9956,1745188228934863878
109985,1030,130,-236,3860,-177,-10125,1745188228934863878
110177,1012,103,-206,3942,-374,-10310,1745188228934863878
110369,995,79,-179,4046,-524,-10407,1745188228934863878
110561,980,56,-153,4173,-642,-10463,1745188228934863878
110753,970,33,-126,4294,-730,-10489,1745188228996091912
110945,960,10,-96,4416,-801,-10506,1745188228996091912
111137,942,-17,-65,4528,-935,-10496,1745188228996091912
111329,910,-47,-32,4618,-1123,-10427,1745188228996091912
111521,863,-81,6,4685,-1357,-10329,1745188228996091912
111713,805,-113,54,4733,-1624,-10182,1745188228996091912
111905,744,-140,114,4769,-1925,-10038,1745188228996091912
112097,684,-162,185,4826,-2217,-9891,1745188228996091912
112289,624,-181,256,4927,-2445,-9759,1745188228996091912
112481,559,-198,323,5022,-2540,-9571,1745188228996091912
112673,484,-210,378,5095,-2540,-9387,1745188228996091912
112865,389,-217,418,5123,-2537,-9200,1745188228996091912
113057,270,-221,455,5147,-2616,-8888,1745188229049339342
113249,138,-226,498,5232,-2765,-8357,1745188229049339342
113441,20,-239,548,5342,-2764,-7833,1745188229049339342
113633,-84,-247,600,5467,-2508,-7345,1745188229049339342
113825,-177,-246,649,5565,-2141,-6951,1745188229049339342
114017,-256,-240,690,5561,-1662,-6428,1745188229049339342
114209,-288,-221,727,5509,-1337,-6393,1745188229049339342
114401,-293,-233,770,5429,-1243,-6479,1745188229049339342
114593,-249,-245,821,5286,-1240,-6517,1745188229049339342
114785,-164,-274,891,5099,-1391,-6769,1745188229049339342
114977,-53,-304,981,4892,-1640,-7125,1745188229049339342
115169,58,-331,1086,4684,-2024,-7431,1745188229049339342
115361,149,-347,1197,4487,-2449,-7627,1745188229107379958
115553,218,-355,1306,4346,-2874,-7801,1745188229107379958
115745,255,-355,1411,4219,-3271,-7992,1745188229107379958
115937,258,-343,1508,4173,-3565,-8195,1745188229107379958
116129,227,-326,1597,4167,-3776,-8270,1745188229107379958
116321,170,-303,1679,4247,-3841,-8286,1745188229107379958
116513,99,-278,1759,4350,-3805,-8280,1745188229107379958
116705,24,-258,1838,4531,-3651,-8272,1745188229107379958
116897,-45,-245,1913,4707,-3444,-8258,1745188229107379958
117089,-104,-241,1984,4861,-3190,-8286,1745188229107379958
117281,-152,-246,2053,5011,-2929,-8246,1745188229107379958
117473,-182,-252,2118,5084,-2691,-8198,1745188229107379958
117665,-195,-258,2190,5138,-2459,-8145,1745188229166085776
117857,-192,-267,2267,5146,-2260,-8081,1745188229166085776
118049,-179,-275,2351,5115,-2091,-8104,1745188229166085776
118241,-158,-284,2443,5076,-1939,-8152,1745188229166085776
118433,-127,-288,2539,4992,-1833,-8134,1745188229166085776
118625,-84,-285,2641,4937,-1786,-8201,1745188229166085776
118817,-31,-275,2748,4931,-1825,-8250,1745188229166085776
119009,26,-260,2857,4995,-1899,-8249,1745188229166085776
119201,77,-246,2966,5093,-1959,-8253,1745188229166085776
119393,112,-237,3072,5226,-2000,-8299,1745188229166085776
119585,131,-228,3172,5384,-1964,-8371,1745188229166085776
119777,142,-217,3264,5544,-1947,-8409,1745188229166085776
119969,148,-201,3352,5722,-1912,-8389,1745188229226070697
120161,157,-178,3432,5895,-1838,-8342,1745188229226070697
120353,164,-155,3504,6070,-1740,-8305,1745188229226070697
120545,162,-136,3570,6213,-1643,-8263,1745188229226070697
120737,158,-125,3638,6342,-1589,-8270,1745188229226070697
120929,161,-115,3713,6400,-1554,-8304,1745188229226070697
121121,177,-105,3799,6467,-1540,-8299,1745188229226070697
121313,200,-92,3891,6523,-1513,-8336,1745188229226070697
121505,222,-75,3979,6595,-1512,-8384,1745188229226070697
121697,236,-57,4065,6691,-1552,-8394,1745188229226070697
121889,247,-36,4148,6794,-1617,-8364,1745188229226070697
122081,260,-15,4226,6925,-1704,-8379,1745188229226070697
122273,269,8,4300,7042,-1734,-8405,1745188229282688408
122465,268,29,4367,7147,-1739,-8517,1745188229282688408
122657,254,41,4424,7286,-1701,-8705,1745188229282688408
122849,233,43,4476,7403,-1631,-8719,1745188229282688408
123041,215,46,4529,7522,-1591,-8772,1745188229282688408
123233,202,46,4585,7612,-1533,-8817,1745188229282688408
123425,185,35,4637,7723,-1548,-8872,1745188229282688408
123617,161,18,4686,7806,-1633,-8917,1745188229282688408
123809,137,11,4757,7907,-1821,-8959,1745188229282688408
124001,111,18,4866,8055,-2156,-8969,1745188229282688408
124193,85,11,5013,8211,-2580,-8840,1745188229282688408
124385,51,-24,5198,8385,-3114,-8553,1745188229282688408
124577,9,-47,5407,8574,-3730,-8229,1745188229355377640
124769,-53,-79,5643,8748,-4387,-7825,1745188229355377640
124961,-143,-118,5885,8927,-5037,-7392,1745188229355377640
125153,-276,-154,6114,9202,-5634,-6975,1745188229355377640
125345,-468,-182,6310,9519,-6186,-6549,1745188229355377640
125537,-719,-206,6458,9933,-6441,-6314,1745188229355377640
125729,-1036,-238,6542,10358,-6291,-5966,1745188229355377640
125921,-1407,-270,6558,10650,-5742,-5396,1745188229355377640
126113,-1823,-300,6506,10927,-4963,-4703,1745188229355377640
126305,-2242,-337,6393,11160,-4056,-3993,1745188229355377640
126497,-2622,-380,6256,11384,-3034,-3403,1745188229355377640
126689,-2934,-438,6122,11744,-1822,-2966,1745188229355377640
126881,-3188,-528,5996,12191,-559,-2579,1745188229399574528
127073,-3403,-647,5859,12767,709,-2403,1745188229399574528
127265,-3594,-807,5692,13371,1897,-2425,1745188229399574528
127457,-3733,-972,5530,14096,3052,-2465,1745188229399574528
127649,-3821,-1111,5444,14974,4238,-2690,1745188229399574528
127841,-3884,-1226,5445,15987,5359,-3033,1745188229399574528
128033,-3921,-1374,5490,17050,6306,-3212,1745188229399574528
128225,-3934,-1605,5500,17936,7086,-3188,1745188229399574528
128417,-3924,-1921,5452,18477,7630,-3019,1745188229399574528
128609,-3908,-2286,5349,18628,7854,-2927,1745188229399574528
128801,-3909,-2671,5180,18278,7731,-2812,1745188229399574528
128993,-3953,-3035,4945,17455,7429,-2512,1745188229399574528
129185,-4052,-3375,4690,16271,7128,-1879,1745188229458256596
129377,-4216,-3681,4481,14903,6974,-1196,1745188229458256596
129569,-4447,-4007,4362,13613,6956,-1125,1745188229458256596
129761,-4737,-4338,4333,12383,7027,-908,1745188229458256596
129953,-5046,-4617,4333,11125,7208,-468,1745188229458256596
130145,-5342,-4834,4298,9830,7568,-157,1745188229458256596
130337,-5616,-4953,4181,8369,8147,93,1745188229458256596
130529,-5858,-4923,3989,6452,8880,407,1745188229458256596
130721,-6035,-4677,3752,4116,9542,821,1745188229458256596
130913,-6099,-4298,3488,1773,10029,832,1745188229458256596
131105,-6046,-3834,3176,-150,10310,657,1745188229458256596
131297,-5879,-3339,2800,-1496,10354,474,1745188229458256596
131489,-5606,-2904,2383,-2206,10209,306,1745188229516378670
131681,-5263,-2537,1980,-2221,9869,205,1745188229516378670
131873,-4902,-2265,1637,-1725,9443,3,1745188229516378670
132065,-4599,-2058,1391,-865,8986,-116,1745188229516378670
132257,-4372,-1899,1232,166,8592,10,1745188229516378670
132449,-4227,-1800,1125,1152,8354,155,1745188229516378670
132641,-4150,-1770,1052,1930,8254,483,1745188229516378670
132833,-4113,-1799,988,2295,8288,1061,1745188229516378670
133025,-4086,-1860,927,2196,8406,1678,1745188229516378670
133217,-4029,-1927,877,1712,8660,2261,1745188229516378670
133409,-3916,-1972,850,1002,9059,2638,1745188229516378670
133601,-3750,-1994,844,316,9567,2793,1745188229516378670
133793,-3556,-1987,844,-267,9949,2645,1745188229576433642
133985,-3354,-1965,818,-686,10000,2484,1745188229576433642
134177,-3113,-1939,772,-1013,9865,2524,1745188229576433642
134369,-2852,-1912,739,-1260,9737,2457,1745188229576433642
134561,-2627,-1895,733,-1384,9620,2423,1745188229576433642
134753,-2453,-1877,744,-1381,9460,2525,1745188229576433642
134945,-2327,-1870,755,-1294,9328,2582,1745188229576433642
135137,-2226,-1859,772,-1229,9288,2624,1745188229576433642
135329,-2145,-1843,790,-1152,9388,2725,1745188229576433642
135521,-2077,-1820,793,-1139,9580,2760,1745188229576433642
135713,-2010,-1796,787,-1176,9793,2700,1745188229576433642
135905,-1950,-1769,774,-1265,9947,2604,1745188229576433642
136097,-1898,-1740,752,-1326,10002,2512,1745188229633194894
136289,-1834,-1708,726,-1390,10013,2386,1745188229633194894
136481,-1764,-1662,698,-1530,10034,2362,1745188229633194894
136673,-1681,-1609,672,-1703,10108,2410,1745188229633194894
136865,-1574,-1544,646,-1869,10164,2492,1745188229633194894
137057,-1446,-1470,615,-2035,10138,2528,1745188229633194894
137249,-1310,-1393,584,-2202,10018,2454,1745188229633194894
137441,-1180,-1309,556,-2278,9727,2402,1745188229633194894
137633,-1071,-1232,523,-2257,9323,2421,1745188229633194894
137825,-990,-1155,483,-2194,8999,2476,1745188229633194894
138017,-936,-1083,448,-2091,8832,2568,1745188229633194894
138209,-907,-1020,421,-2001,8816,2617,1745188229633194894
138401,-895,-964,395,-1963,8944,2737,1745188229691747953
138593,-877,-913,365,-1952,9133,2880,1745188229691747953
138785,-844,-864,333,-2010,9382,2931,1745188229691747953
138977,-794,-811,306,-2077,9571,2932,1745188229691747953
139169,-731,-760,281,-2136,9725,2864,1745188229691747953
139361,-657,-711,257,-2198,9831,2824,1745188229691747953
139553,-575,-666,233,-2243,9909,2769,1745188229691747953
139745,-485,-624,208,-2266,9934,2726,1745188229691747953
139937,-388,-588,184,-2322,9865,2605,1745188229691747953
140129,-290,-555,166,-2398,9749,2444,1745188229691747953
140321,-191,-524,157,-2485,9598,2276,1745188229691747953
140513,-95,-494,146,-2554,9437,2035,1745188229691747953
140705,-9,-465,136,-2589,9281,1820,1745188229752125787
140897,62,-443,125,-2610,9150,1625,1745188229752125787
141089,121,-428,117,-2654,9044,1406,1745188229752125787
141281,168,-411,115,-2665,8893,1227,1745188229752125787
141473,199,-394,115,-2647,8742,1010,1745188229752125787
141665,205,-381,116,-2524,8553,777,1745188229752125787
141857,186,-376,119,-2393,8316,604,1745188229752125787
142049,140,-374,125,-2266,8093,507,1745188229752125787
142241,74,-383,132,-2199,7958,488,1745188229752125787
142433,-10,-393,141,-2247,7890,539,1745188229752125787
142625,-92,-401,152,-2322,7900,640,1745188229752125787
142817,-164,-406,157,-2374,8008,675,1745188229752125787
143009,-230,-404,152,-2404,8178,696,1745188229814707142
143201,-284,-400,145,-2441,8324,660,1745188229814707142
143393,-311,-392,144,-2455,8465,589,1745188229814707142
143585,-314,-383,143,-2486,8682,570,1745188229814707142
143777,-303,-384,145,-2514,8844,577,1745188229814707142
143969,-278,-381,147,-2569,8869,612,1745188229814707142
144161,-247,-374,146,-2652,8840,618,1745188229814707142
144353,-219,-361,147,-2700,8814,621,1745188229814707142
144545,-196,-343,151,-2682,8787,649,1745188229814707142
144737,-171,-324,147,-2639,8810,628,1745188229814707142
144929,-142,-306,140,-2564,8843,535,1745188229814707142
145121,-108,-291,135,-2490,8866,455,1745188229814707142
145313,-68,-280,129,-2411,8895,389,1745188229867992385
145505,-27,-268,128,-2287,8925,238,1745188229867992385
145697,14,-257,128,-2170,8918,161,1745188229867992385
145889,57,-248,124,-2124,8887,63,1745188229867992385
146081,100,-241,120,-2082,8845,-20,1745188229867992385
146273,142,-232,113,-2055,8770,-50,1745188229867992385
146465,174,-220,103,-2006,8690,-84,1745188229867992385
146657,199,-205,94,-1963,8604,-211,1745188229867992385
146849,217,-194,86,-1941,8468,-320,1745188229867992385
147041,229,-185,78,-1899,8321,-413,1745188229867992385
147233,229,-176,70,-1813,8258,-503,1745188229867992385
147425,215,-172,62,-1781,8179,-576,1745188229867992385
147617,190,-167,55,-1729,8092,-613,1745188229938651010
147809,160,-162,45,-1685,8019,-572,1745188229938651010
148001,118,-157,32,-1692,7934,-507,1745188229938651010
148193,65,-154,23,-1693,7851,-462,1745188229938651010
148385,12,-147,16,-1658,7866,-470,1745188229938651010
148577,-42,-139,7,-1648,7915,-496,1745188229938651010
148769,-87,-128,-3,-1634,8050,-535,1745188229938651010
148961,-116,-119,-12,-1637,8192,-574,1745188229938651010
149153,-128,-115,-25,-1665,8176,-630,1745188229938651010
149345,-125,-111,-40,-1668,8082,-710,1745188229938651010
149537,-111,-105,-53,-1703,7909,-859,1745188229938651010
149729,-93,-100,-60,-1704,7706,-957,1745188229938651010
149921,-78,-95,-59,-1669,7575,-1056,1745188229988585398
150113,-65,-95,-56,-1634,7521,-1066,1745188229988585398
150305,-48,-98,-52,-1626,7576,-1016,1745188229988585398
150497,-26,-103,-50,-1668,7653,-981,1745188229988585398
150689,0,-109,-46,-1725,7671,-948,1745188229988585398
150881,29,-110,-41,-1811,7620,-924,1745188229988585398
151073,57,-110,-35,-1851,7595,-923,1745188229988585398
151265,77,-108,-27,-1808,7577,-942,1745188229988585398
151457,84,-106,-18,-1749,7570,-969,1745188229988585398
151649,87,-108,-7,-1691,7570,-971,1745188229988585398
151841,84,-118,3,-1684,7548,-961,1745188229988585398
152033,72,-130,14,-1710,7508,-904,1745188229988585398
152225,53,-140,24,-1744,7433,-827,1745188230042014597
152417,33,-145,34,-1775,7326,-795,1745188230042014597
152609,13,-149,48,-1776,7194,-820,1745188230042014597
152801,-7,-154,64,-1767,7096,-893,1745188230042014597
152993,-37,-163,80,-1731,7027,-967,1745188230042014597
153185,-71,-173,96,-1692,6988,-963,1745188230042014597
153377,-105,-181,111,-1643,7024,-915,1745188230042014597
153569,-134,-192,124,-1607,7153,-850,1745188230042014597
153761,-159,-202,137,-1585,7298,-853,1745188230042014597
153953,-172,-212,150,-1617,7469,-854,1745188230042014597
154145,-171,-224,159,-1661,7625,-811,1745188230042014597
154337,-154,-234,166,-1741,7759,-739,1745188230042014597
154529,-127,-239,171,-1841,7857,-698,1745188230109454814
154721,-101,-239,176,-1941,7915,-630,1745188230109454814
154913,-78,-237,182,-2017,7912,-561,1745188230109454814
155105,-54,-231,189,-2054,7910,-479,1745188230109454814
155297,-28,-224,195,-2062,7934,-437,1745188230109454814
155489,-6,-213,199,-2048,7970,-451,1745188230109454814
155681,9,-200,200,-1990,8039,-446,1745188230109454814
155873,22,-191,195,-2032,8034,-408,1745188230109454814
156065,33,-186,188,-2074,7989,-385,1745188230109454814
156257,44,-179,181,-2143,7920,-374,1745188230109454814
156449,56,-166,174,-2165,7868,-389,1745188230109454814
156641,67,-147,169,-2165,7840,-464,1745188230109454814
156833,73,-128,163,-2118,7795,-572,1745188230259987189
157025,76,-114,156,-2065,7730,-604,1745188230259987189
157217,79,-102,150,-2010,7678,-637,1745188230259987189
157409,77,-90,144,-1939,7652,-695,1745188230259987189
157601,62,-80,140,-1906,7664,-745,1745188230259987189
157793,39,-70,137,-1873,7636,-785,1745188230259987189
157985,12,-60,135,-1830,7613,-817,1745188230259987189
158177,-15,-54,132,-1797,7636,-805,1745188230259987189
158369,-42,-51,130,-1807,7700,-824,1745188230259987189
158561,-63,-50,130,-1873,7725,-845,1745188230259987189
158753,-75,-47,131,-1915,7781,-844,1745188230259987189
158945,-79,-43,137,-1955,7882,-843,1745188230259987189
159137,-77,-36,144,-1983,7991,-840,1745188230269603351
159329,-67,-27,148,-1980,8091,-851,1745188230269603351
159521,-47,-16,149,-1929,8192,-864,1745188230269603351
159713,-27,-5,149,-1859,8262,-880,1745188230269603351
159905,-10,2,147,-1779,8292,-871,1745188230269603351
160097,5,6,147,-1744,8287,-855,1745188230269603351
160289,20,9,149,-1729,8261,-822,1745188230269603351
160481,28,12,148,-1734,8262,-813,1745188230269603351
160673,33,19,145,-1704,8268,-811,1745188230269603351
160865,33,27,142,-1697,8250,-892,1745188230269603351
161057,30,33,141,-1686,8224,-953,1745188230269603351
161249,31,36,137,-1631,8212,-956,1745188230269603351
161441,34,38,135,-1576,8246,-981,1745188230278071868
161441,34,38,135,-1576,8246,-981,1745188230278071868
161633,37,35,133,-1615,8292,-1025,1745188230278071868
161825,37,32,129,-1732,8310,-1059,1745188230278071868
162017,37,31,125,-1848,8279,-1114,1745188230278071868
162209,38,32,116,-1898,8314,-1150,1745188230278071868
162401,39,41,109,-1884,8382,-1177,1745188230278071868
162593,40,47,103,-1859,8493,-1192,1745188230278071868
162785,41,47,97,-1885,8545,-1212,1745188230278071868
162977,45,46,95,-1908,8564,-1143,1745188230278071868
163169,51,45,90,-1953,8548,-1067,1745188230278071868
163361,59,47,82,-2019,8511,-1029,1745188230278071868
163553,69,55,75,-2029,8455,-1023,1745188230336961955
163745,73,64,65,-1995,8364,-1033,1745188230336961955
163937,73,74,56,-1927,8270,-1047,1745188230336961955
164129,70,83,49,-1807,8206,-1035,1745188230336961955
164321,66,83,43,-1717,8188,-1011,1745188230336961955
164513,64,81,36,-1685,8160,-1023,1745188230336961955
164705,60,80,27,-1715,8109,-1087,1745188230336961955
164897,56,84,20,-1742,8083,-1165,1745188230336961955
165089,51,89,15,-1719,8099,-1245,1745188230336961955
165281,43,90,6,-1709,8127,-1275,1745188230336961955
165473,35,89,-3,-1705,8129,-1272,1745188230336961955
165665,31,90,-9,-1689,8080,-1264,1745188230336961955
165857,31,89,-11,-1697,8033,-1216,1745188230389455590
166049,30,87,-10,-1707,8008,-1211,1745188230389455590
166241,31,89,-7,-1707,7983,-1222,1745188230389455590
166433,33,92,-5,-1722,8006,-1203,1745188230389455590
166625,38,95,-2,-1769,8052,-1212,1745188230389455590
166817,45,99,1,-1799,8099,-1226,1745188230389455590
167009,52,100,5,-1837,8086,-1209,1745188230389455590
167201,63,102,7,-1834,8044,-1216,1745188230389455590
167393,78,106,9,-1813,8008,-1212,1745188230389455590
167585,90,108,12,-1814,7947,-1191,1745188230389455590
167777,92,109,18,-1829,7867,-1183,1745188230389455590
167969,91,109,24,-1857,7797,-1172,1745188230389455590
168161,83,110,27,-1875,7752,-1141,1745188230449794570
168353,72,114,30,-1883,7767,-1129,1745188230449794570
168545,60,118,32,-1877,7793,-1116,1745188230449794570
168737,46,123,31,-1833,7787,-1108,1745188230449794570
168929,31,128,32,-1800,7766,-1151,1745188230449794570
169121,14,134,29,-1758,7725,-1181,1745188230449794570
169313,-10,138,22,-1730,7663,-1197,1745188230449794570
169505,-38,144,15,-1688,7566,-1210,1745188230449794570
169697,-65,148,9,-1638,7542,-1248,1745188230449794570
169889,-92,152,7,-1556,7577,-1261,1745188230449794570
170081,-113,154,8,-1533,7663,-1241,1745188230449794570
170273,-124,154,6,-1524,7775,-1219,1745188230449794570
170465,-123,155,1,-1573,7889,-1220,1745188230506286189
170657,-105,160,-6,-1617,7952,-1251,1745188230506286189
170849,-78,165,-11,-1634,7978,-1274,1745188230506286189
171041,-43,171,-10,-1585,8017,-1306,1745188230506286189
171233,-6,174,-7,-1497,8075,-1340,1745188230506286189
171425,30,172,-1,-1415,8125,-1339,1745188230506286189
171617,66,167,7,-1388,8204,-1328,1745188230506286189
171809,103,161,17,-1402,8278,-1306,1745188230506286189
172001,139,155,27,-1426,8342,-1292,1745188230506286189
172193,177,151,37,-1442,8410,-1271,1745188230506286189
172385,214,146,45,-1467,8455,-1221,1745188230506286189
172577,249,139,52,-1461,8473,-1180,1745188230506286189
172769,281,133,58,-1466,8459,-1117,1745188230567853439
172961,312,126,65,-1467,8432,-1071,1745188230567853439
173153,339,118,70,-1499,8381,-1038,1745188230567853439
173345,356,113,74,-1532,8316,-1040,1745188230567853439
173537,360,108,75,-1561,8242,-1059,1745188230567853439
173729,354,104,70,-1588,8151,-1035,1745188230567853439
173921,341,102,61,-1598,8105,-1003,1745188230567853439
174113,322,101,54,-1609,8076,-1005,1745188230567853439
174305,297,103,43,-1600,8089,-1002,1745188230567853439
174497,272,108,30,-1569,8078,-1013,1745188230567853439
174689,250,117,18,-1499,8095,-1101,1745188230567853439
174881,228,125,5,-1460,8105,-1225,1745188230567853439
175073,205,134,-6,-1387,8112,-1309,1745188230635409228
175265,186,143,-17,-1328,8145,-1367,1745188230635409228
175457,171,149,-31,-1296,8148,-1383,1745188230635409228
175649,163,157,-45,-1297,8188,-1372,1745188230635409228
175841,161,167,-57,-1312,8212,-1356,1745188230635409228
176033,165,179,-70,-1350,8229,-1332,1745188230635409228
176225,172,192,-80,-1395,8236,-1330,1745188230635409228
176417,177,204,-90,-1426,8228,-1311,1745188230635409228
176609,181,215,-98,-1454,8232,-1316,1745188230635409228
176801,184,226,-103,-1445,8249,-1314,1745188230635409228
176993,187,237,-105,-1425,8275,-1280,1745188230635409228
177185,191,244,-107,-1425,8286,-1238,1745188230635409228
177377,197,250,-111,-1460,8249,-1233,1745188230678419200
177569,202,255,-115,-1477,8212,-1262,1745188230678419200
177761,201,259,-119,-1515,8181,-1309,1745188230678419200
177953,196,262,-118,-1534,8135,-1329,1745188230678419200
178145,185,262,-120,-1530,8092,-1311,1745188230678419200
178337,172,259,-122,-1517,8069,-1258,1745188230678419200
178529,154,255,-125,-1539,8033,-1167,1745188230678419200
178721,129,249,-128,-1565,8000,-1111,1745188230678419200
178913,99,243,-132,-1606,7984,-1028,1745188230678419200
179105,65,236,-134,-1691,8001,-976,1745188230678419200
179297,32,232,-135,-1754,8032,-895,1745188230678419200
179489,6,230,-135,-1816,8084,-826,1745188230678419200
179681,-13,231,-136,-1860,8209,-742,1745188230742045390
179873,-22,234,-137,-1896,8348,-659,1745188230742045390
180065,-23,238,-137,-1918,8510,-582,1745188230742045390
180257,-15,242,-136,-1905,8668,-487,1745188230742045390
180449,4,244,-136,-1934,8815,-367,1745188230742045390
180641,33,245,-136,-2015,8945,-226,1745188230742045390
180833,73,249,-136,-2123,9040,-42,1745188230742045390
181025,123,255,-138,-2253,9129,108,1745188230742045390
181217,181,269,-138,-2367,9189,247,1745188230742045390
181409,247,289,-142,-2453,9274,400,1745188230742045390
181601,319,315,-148,-2531,9346,586,1745188230742045390
181793,400,349,-156,-2564,9401,747,1745188230742045390
181985,473,389,-165,-2559,9385,798,1745188230803170873
182177,523,427,-172,-2486,9226,787,1745188230803170873
182369,559,462,-185,-2391,9035,744,1745188230803170873
182561,571,498,-202,-2292,8909,725,1745188230803170873
182753,565,529,-220,-2176,8856,745,1745188230803170873
182945,548,553,-236,-2110,8838,811,1745188230803170873
183137,529,575,-254,-2112,8797,946,1745188230803170873
183329,513,596,-276,-2207,8728,1083,1745188230803170873
183521,492,618,-300,-2332,8633,1190,1745188230803170873
183713,460,647,-328,-2506,8523,1292,1745188230803170873
183905,417,686,-355,-2640,8437,1374,1745188230803170873
184097,367,735,-387,-2723,8415,1472,1745188230803170873
184289,315,796,-419,-2702,8461,1526,1745188230877620818
184481,268,864,-452,-2601,8593,1549,1745188230877620818
184673,227,934,-487,-2437,8796,1525,1745188230877620818
184865,196,1001,-524,-2223,9039,1488,1745188230877620818
185057,180,1066,-565,-1988,9241,1472,1745188230877620818
185249,185,1129,-604,-1783,9420,1478,1745188230877620818
185441,213,1191,-642,-1613,9550,1500,1745188230877620818
185633,261,1254,-681,-1496,9683,1502,1745188230877620818
185825,318,1318,-725,-1423,9741,1446,1745188230877620818
186017,388,1388,-772,-1369,9798,1402,1745188230877620818
186209,462,1458,-820,-1327,9795,1361,1745188230877620818
186401,541,1525,-867,-1282,9697,1293,1745188230877620818
186593,624,1589,-913,-1222,9587,1187,1745188230920346730
186785,709,1651,-957,-1170,9492,1137,1745188230920346730
186977,787,1712,-1000,-1119,9436,1126,1745188230920346730
187169,856,1773,-1045,-1041,9413,1088,1745188230920346730
187361,923,1831,-1091,-966,9406,1038,1745188230920346730
187553,990,1889,-1134,-889,9433,965,1745188230920346730
187745,1062,1941,-1179,-797,9494,940,1745188230920346730
187937,1132,1990,-1224,-696,9571,897,1745188230920346730
188129,1202,2033,-1275,-592,9650,894,1745188230920346730
188321,1269,2075,-1328,-476,9711,868,1745188230920346730
188513,1339,2118,-1386,-381,9763,854,1745188230920346730
188705,1399,2158,-1442,-274,9738,840,1745188230920346730
188897,1457,2197,-1501,-147,9708,855,1745188230975745182
189089,1517,2232,-1564,-14,9698,811,1745188230975745182
189281,1572,2265,-1628,86,9677,718,1745188230975745182
189473,1614,2296,-1693,218,9633,650,1745188230975745182
189665,1635,2325,-1759,360,9577,563,1745188230975745182
189857,1639,2352,-1828,498,9522,473,1745188230975745182
190049,1623,2378,-1900,641,9428,318,1745188230975745182
190241,1595,2403,-1974,766,9395,147,1745188230975745182
190433,1546,2429,-2048,924,9401,-72,1745188230975745182
190625,1483,2452,-2124,1080,9418,-275,1745188230975745182
190817,1419,2471,-2197,1204,9455,-428,1745188230975745182
191009,1352,2486,-2267,1344,9460,-604,1745188230975745182
191201,1280,2497,-2334,1428,9462,-728,1745188231040162510
191393,1185,2509,-2398,1517,9413,-838,1745188231040162510
191585,1061,2517,-2463,1593,9280,-931,1745188231040162510
191777,903,2525,-2529,1666,9095,-1028,1745188231040162510
191969,710,2534,-2591,1734,8925,-1017,1745188231040162510
192161,461,2546,-2645,1781,8767,-969,1745188231040162510
192353,161,2556,-2692,1880,8623,-912,1745188231040162510
192545,-175,2565,-2736,1972,8567,-795,1745188231040162510
192737,-537,2578,-2776,2119,8564,-639,1745188231040162510
192929,-905,2599,-2805,2274,8648,-443,1745188231040162510
193121,-1247,2633,-2822,2454,8757,-209,1745188231040162510
193313,-1526,2677,-2831,2595,8951,74,1745188231040162510
193505,-1719,2726,-2831,2703,9271,360,1745188231095938042
193697,-1831,2776,-2823,2765,9696,581,1745188231095938042
193889,-1872,2824,-2816,2757,10078,734,1745188231095938042
194081,-1847,2876,-2821,2667,10343,807,1745188231095938042
194273,-1760,2932,-2837,2494,10434,791,1745188231095938042
194465,-1618,2996,-2855,2312,10416,710,1745188231095938042
194657,-1426,3067,-2875,2141,10408,646,1745188231095938042
194849,-1199,3146,-2900,1994,10486,530,1745188231095938042
195041,-965,3229,-2930,1988,10562,408,1745188231095938042
195233,-719,3315,-2971,2064,10579,301,1745188231095938042
195425,-448,3399,-3020,2232,10575,290,1745188231095938042
195617,-150,3481,-3076,2448,10670,315,1745188231095938042
195809,154,3549,-3142,2641,10795,287,1745188231149760311
196001,444,3611,-3206,2888,10852,225,1745188231149760311
196193,726,3673,-3276,3168,10828,263,1745188231149760311
196385,1016,3729,-3352,3430,10742,278,1745188231149760311
196577,1312,3770,-3418,3675,10634,172,1745188231149760311
196769,1605,3795,-3479,3881,10513,-29,1745188231149760311
196961,1879,3808,-3541,4028,10311,-278,1745188231149760311
197153,2136,3811,-3602,4163,9959,-542,1745188231149760311
197345,2393,3803,-3659,4267,9531,-882,1745188231149760311
197537,2672,3781,-3712,4351,9116,-1179,1745188231149760311
197729,2952,3750,-3763,4430,8789,-1384,1745188231149760311
197921,3203,3712,-3812,4463,8309,-1683,1745188231149760311
198113,3440,3665,-3855,4484,7688,-1973,1745188231214648312
198305,3691,3613,-3885,4541,7098,-2309,1745188231214648312
198497,3985,3555,-3909,4620,6699,-2757,1745188231214648312
198689,4336,3499,-3925,4710,6518,-2884,1745188231214648312
198881,4710,3451,-3928,4779,6452,-3076,1745188231214648312
199073,5102,3381,-3927,4821,6270,-3414,1745188231214648312
199265,5485,3302,-3925,4835,5993,-3667,1745188231214648312
199457,5843,3255,-3909,4929,5533,-3813,1745188231214648312
199649,6174,3238,-3881,5131,5083,-3781,1745188231214648312
199841,6450,3205,-3851,5494,4839,-3568,1745188231214648312
200033,6570,3084,-3803,5967,4774,-3619,1745188231214648312
200225,6541,2896,-3727,6497,4758,-4115,1745188231214648312
200417,6433,2723,-3573,7077,4827,-4838,1745188231266532630
200609,6282,2536,-3344,7651,4744,-5379,1745188231266532630
200801,6129,2306,-3112,8114,4264,-5708,1745188231266532630
200993,5934,1977,-2928,8435,3189,-5981,1745188231266532630
201185,5681,1620,-2814,8476,1669,-6224,1745188231266532630
201377,5441,1339,-2739,8269,-68,-6206,1745188231266532630
201569,5173,1124,-2671,7865,-1700,-6374,1745188231266532630
201761,4806,922,-2622,7249,-3216,-6729,1745188231266532630
201953,4357,746,-2586,6482,-4604,-6929,1745188231266532630
202145,3858,597,-2541,5693,-6085,-7494,1745188231266532630
202337,3389,457,-2521,4829,-7469,-7503,1745188231266532630
202529,2946,387,-2540,3867,-8680,-7265,1745188231266532630
202721,2472,461,-2506,3280,-9657,-7291,1745188231335349085
202913,1930,624,-2430,3191,-10400,-7196,1745188231335349085
203105,1347,780,-2318,3526,-10857,-7144,1745188231335349085
203297,812,859,-2238,4049,-10920,-7122,1745188231335349085
203489,364,927,-2228,4591,-10407,-7205,1745188231335349085
203681,-5,1011,-2285,5217,-9442,-7233,1745188231335349085
203873,-310,1075,-2355,5936,-8259,-7284,1745188231335349085
204065,-533,1096,-2390,6617,-7090,-7235,1745188231335349085
204257,-671,1078,-2386,7260,-6107,-7352,1745188231335349085
204449,-753,1021,-2377,7857,-5396,-7600,1745188231335349085
204641,-789,929,-2385,8272,-4923,-7790,1745188231335349085
204833,-784,818,-2388,8561,-4846,-8074,1745188231335349085
205025,-765,694,-2367,8762,-5274,-8284,1745188231388528390
205217,-760,564,-2308,8866,-6044,-8475,1745188231388528390
205409,-784,423,-2245,8877,-6721,-8584,1745188231388528390
205601,-845,266,-2211,8630,-7107,-8753,1745188231388528390
205793,-923,121,-2185,8056,-7083,-8893,1745188231388528390
205985,-987,-10,-2150,7365,-6930,-9017,1745188231388528390
206177,-1035,-118,-2122,6647,-6750,-9142,1745188231388528390
206369,-1076,-203,-2108,5913,-6571,-9231,1745188231388528390
206561,-1119,-265,-2096,5204,-6444,-9284,1745188231388528390
206753,-1167,-305,-2087,4573,-6308,-9403,1745188231388528390
206945,-1218,-314,-2070,3998,-6101,-9442,1745188231388528390
207137,-1246,-295,-2041,3581,-5761,-9411,1745188231388528390
207329,-1225,-252,-2003,3251,-5292,-9184,1745188231445342715
207521,-1160,-177,-1953,3063,-4847,-8908,1745188231445342715
207713,-1066,-93,-1905,2962,-4601,-8665,1745188231445342715
207905,-956,-8,-1862,2868,-4405,-8513,1745188231445342715
208097,-842,79,-1819,2860,-4222,-8453,1745188231445342715
208289,-751,173,-1782,2897,-4151,-8459,1745188231445342715
208481,-691,274,-1737,3008,-4129,-8531,1745188231445342715
208673,-647,377,-1666,3204,-4053,-8530,1745188231445342715
208865,-622,472,-1584,3511,-3827,-8465,1745188231445342715
209057,-607,556,-1510,3826,-3440,-8345,1745188231445342715
209249,-589,616,-1443,4145,-3054,-8231,1745188231445342715
209441,-568,650,-1381,4371,-2775,-8163,1745188231445342715
209633,-541,664,-1320,4511,-2634,-8075,1745188231506977621
209825,-514,667,-1260,4601,-2561,-8041,1745188231506977621
210017,-489,671,-1202,4581,-2482,-8001,1745188231506977621
210209,-455,677,-1146,4535,-2425,-7847,1745188231506977621
210401,-415,682,-1095,4432,-2427,-7726,1745188231506977621
210593,-376,683,-1053,4348,-2507,-7653,1745188231506977621
210785,-342,690,-1022,4221,-2642,-7632,1745188231506977621
210977,-310,706,-993,4064,-2749,-7619,1745188231506977621
211169,-287,731,-967,3926,-2903,-7678,1745188231506977621
211361,-277,758,-941,3795,-3086,-7791,1745188231506977621
211553,-278,789,-914,3715,-3218,-7948,1745188231506977621
211745,-286,822,-890,3647,-3307,-8075,1745188231506977621
211937,-294,853,-866,3633,-3332,-8120,1745188231563618770
212129,-306,886,-838,3624,-3371,-8145,1745188231563618770
212321,-329,912,-811,3660,-3376,-8207,1745188231563618770
212513,-363,937,-790,3701,-3275,-8169,1745188231563618770
212705,-403,956,-762,3750,-3088,-8177,1745188231563618770
212897,-448,966,-735,3818,-2824,-8184,1745188231563618770
213089,-496,973,-706,3882,-2608,-8178,1745188231563618770
213281,-541,982,-669,3923,-2397,-8105,1745188231563618770
213473,-577,983,-627,3950,-2184,-8025,1745188231563618770
213665,-609,977,-580,3953,-1968,-7887,1745188231563618770
213857,-632,972,-529,3897,-1771,-7716,1745188231563618770
214049,-632,971,-472,3823,-1516,-7527,1745188231563618770
214241,-598,972,-408,3730,-1201,-7358,1745188231624008896
214433,-527,979,-341,3647,-856,-7111,1745188231624008896
214625,-422,987,-280,3575,-572,-6841,1745188231624008896
214817,-299,997,-230,3527,-424,-6533,1745188231624008896
215009,-180,1012,-189,3474,-491,-6257,1745188231624008896
215201,-80,1033,-152,3431,-678,-6010,1745188231624008896
215393,-10,1064,-112,3437,-851,-6021,1745188231624008896
215585,14,1101,-57,3579,-1205,-5269,1745188231624008896
215777,-20,1109,34,3611,-2307,-4728,1745188231624008896
215969,-18,1071,114,3600,-2665,-5125,1745188231624008896
216161,-60,1068,169,3663,-2230,-5297,1745188231624008896
216353,-156,1072,191,3883,-1543,-5939,1745188231624008896
216545,-235,1037,152,3993,-913,-5615,1745188231682109511
216737,-269,959,76,3922,-1238,-5332,1745188231682109511
216929,-202,904,56,3964,-1205,-5833,1745188231682109511
217121,-90,885,81,4193,-629,-6550,1745188231682109511
217313,62,859,111,4660,-81,-7451,1745188231682109511
217505,209,788,122,5251,-7,-8523,1745188231682109511
217697,330,713,135,5710,-619,-9713,1745188231682109511
217889,374,631,161,6065,-1604,-11077,1745188231682109511
218081,312,535,180,6300,-2504,-12336,1745188231682109511
218273,148,435,169,6339,-3113,-13309,1745188231682109511
218465,-76,298,146,6250,-3489,-13828,1745188231682109511
218657,-265,129,139,6040,-3781,-14423,1745188231682109511
218849,-422,-55,160,5698,-3912,-15009,1745188231739612371
219041,-586,-218,204,5294,-3538,-15491,1745188231739612371
219233,-797,-337,231,4863,-2698,-15751,1745188231739612371
219425,-1036,-440,224,4447,-1573,-15604,1745188231739612371
219617,-1266,-530,184,4125,-284,-15241,1745188231739612371
219809,-1480,-623,121,3841,1033,-14618,1745188231739612371
220001,-1651,-710,46,3588,2181,-13576,1745188231739612371
220193,-1761,-773,-23,3283,2935,-12295,1745188231739612371
220385,-1802,-815,-79,2900,3144,-10929,1745188231739612371
220577,-1758,-834,-116,2452,3007,-9721,1745188231739612371
220769,-1638,-823,-128,2011,2741,-8639,1745188231739612371
220961,-1481,-790,-114,1565,2304,-7829,1745188231739612371
221153,-1337,-746,-79,1151,1689,-7350,1745188231797751579
221345,-1229,-689,-27,769,1119,-7020,1745188231797751579
221537,-1133,-609,34,501,873,-6782,1745188231797751579
221729,-1027,-507,90,358,921,-6672,1745188231797751579
221921,-901,-389,123,412,1160,-6594,1745188231797751579
222113,-749,-265,130,673,1376,-6556,1745188231797751579
222305,-573,-148,130,1064,1395,-6559,1745188231797751579
222497,-398,-53,137,1555,1156,-6665,1745188231797751579
222689,-241,11,147,2005,770,-6923,1745188231797751579
222881,-119,51,157,2390,453,-7206,1745188231797751579
223073,-41,72,162,2643,183,-7452,1745188231797751579
223265,-1,76,157,2749,-36,-7834,1745188231797751579
223457,8,77,145,2825,-214,-8299,1745188231859194924
223649,-10,73,129,2862,-392,-8572,1745188231859194924
223841,-46,57,107,2853,-512,-8848,1745188231859194924
224033,-105,42,83,2825,-491,-9167,1745188231859194924
224225,-184,36,65,2855,-362,-9291,1745188231859194924
224417,-258,23,51,2933,-174,-9277,1745188231859194924
224609,-304,-7,37,2971,156,-9175,1745188231859194924
224801,-333,-40,17,2993,555,-8997,1745188231859194924
224993,-364,-71,-9,2953,810,-8713,1745188231859194924
225185,-402,-99,-32,2844,774,-8350,1745188231859194924
225377,-434,-127,-43,2653,601,-7992,1745188231859194924
225569,-462,-148,-46,2449,441,-7646,1745188231859194924
225761,-493,-159,-50,2197,438,-7280,1745188231915071862
225953,-507,-158,-52,1960,660,-6944,1745188231915071862
226145,-499,-139,-51,1772,959,-6715,1745188231915071862
226337,-475,-111,-47,1663,1098,-6546,1745188231915071862
226529,-432,-82,-40,1598,1091,-6454,1745188231915071862
226721,-379,-52,-30,1598,1123,-6505,1745188231915071862
226913,-333,-16,-17,1664,1192,-6630,1745188231915071862
227105,-304,12,-6,1808,1250,-6751,1745188231915071862
227297,-283,31,4,1958,1278,-6913,1745188231915071862
227489,-268,45,11,2104,1270,-7134,1745188231915071862
227681,-258,55,13,2265,1289,-7391,1745188231915071862
227873,-252,59,12,2393,1385,-7662,1745188231915071862
228065,-255,50,8,2496,1509,-7841,1745188231972938000
228257,-266,34,6,2559,1587,-7926,1745188231972938000
228449,-289,16,5,2553,1474,-7962,1745188231972938000
228641,-303,2,8,2523,1300,-8039,1745188231972938000
228833,-303,-16,12,2446,1260,-8105,1745188231972938000
229025,-318,-32,13,2370,1274,-8143,1745188231972938000
229217,-344,-41,8,2304,1315,-8146,1745188231972938000
229409,-358,-45,2,2270,1415,-8156,1745188231972938000
229601,-361,-44,1,2285,1528,-8105,1745188231972938000
229793,-360,-46,3,2316,1583,-8024,1745188231972938000
229985,-352,-50,7,2347,1637,-7973,1745188231972938000
230177,-334,-50,8,2385,1707,-7931,1745188231972938000
230369,-311,-48,6,2421,1771,-7844,1745188232106199543
230561,-280,-46,-1,2429,1797,-7696,1745188232106199543
230753,-244,-43,-8,2420,1750,-7541,1745188232106199543
230945,-209,-39,-7,2395,1592,-7407,1745188232106199543
231137,-169,-31,0,2339,1365,-7349,1745188232106199543
231329,-136,-26,5,2269,1206,-7397,1745188232106199543
231521,-121,-14,2,2207,1114,-7484,1745188232106199543
231713,-122,2,-3,2214,1070,-7579,1745188232106199543
231905,-128,13,-4,2242,1134,-7709,1745188232106199543
232097,-134,24,-5,2278,1256,-7812,1745188232106199543
232289,-141,31,-9,2344,1408,-7832,1745188232106199543
232481,-136,36,-16,2429,1601,-7890,1745188232106199543
232673,-120,38,-22,2535,1748,-7928,1745188232117084600
232865,-100,33,-31,2562,1808,-7894,1745188232117084600
233057,-79,21,-42,2522,1736,-7866,1745188232117084600
233249,-66,9,-50,2427,1568,-7826,1745188232117084600
233441,-64,-2,-50,2302,1329,-7701,1745188232117084600
233633,-74,-9,-43,2170,1096,-7597,1745188232117084600
233825,-87,-9,-37,2044,991,-7552,1745188232117084600
234017,-102,-5,-37,1947,1012,-7554,1745188232117084600
234209,-117,2,-35,1904,1093,-7561,1745188232117084600
234401,-128,11,-30,1904,1212,-7587,1745188232117084600
234593,-131,19,-27,1906,1309,-7582,1745188232117084600
234785,-129,26,-22,1929,1391,-7587,1745188232117084600
234977,-127,34,-22,2008,1439,-7593,1745188232144984449
235169,-119,36,-27,2078,1525,-7651,1745188232144984449
235361,-114,35,-29,2128,1565,-7625,1745188232144984449
235553,-109,31,-30,2164,1659,-7561,1745188232144984449
235745,-108,28,-28,2203,1739,-7566,1745188232144984449
235937,-103,24,-27,2234,1774,-7540,1745188232144984449
236129,-102,11,-28,2438,1232,-7405,1745188232144984449
236321,-177,-37,-56,2578,-32,-7571,1745188232144984449
236513,-305,-12,-97,2243,-489,-7522,1745188232144984449
236705,-358,1,-110,2295,989,-7486,1745188232144984449
236897,-339,15,-89,2387,2173,-7580,1745188232144984449
237089,-312,26,-88,2322,2531,-7403,1745188232144984449
237281,-233,24,-104,2136,2223,-7377,1745188232208193455
237473,-167,33,-108,2034,1426,-7465,1745188232208193455
237665,-179,63,-108,1824,702,-7349,1745188232208193455
237857,-203,136,-30,1608,463,-7386,1745188232208193455
238049,-210,133,68,2001,1408,-7404,1745188232208193455
238241,-223,110,37,2315,2101,-7426,1745188232208193455
238433,-206,103,-43,2678,2130,-7406,1745188232208193455
238625,-170,83,-94,2957,1983,-7333,1745188232208193455
238817,-137,40,-89,2954,1839,-7439,1745188232208193455
239009,-113,-1,-80,2762,1961,-7563,1745188232208193455
239201,-95,-28,-83,2593,2026,-7661,1745188232208193455
239393,-87,-44,-97,2503,2009,-7711,1745188232208193455
239585,-79,-53,-103,2381,2084,-7753,1745188232262313065
239777,-64,-53,-91,2199,2008,-7811,1745188232262313065
239969,-57,-40,-84,1936,1761,-7878,1745188232262313065
240161,-60,-20,-86,1816,1772,-7857,1745188232262313065
240353,-59,-3,-82,1871,1745,-7889,1745188232262313065
240545,-84,15,-84,1927,1496,-7858,1745188232262313065
240737,-99,37,-92,2056,1741,-7770,1745188232262313065
240929,-72,50,-99,2337,2358,-7915,1745188232262313065
241121,-45,30,-112,2507,2667,-7908,1745188232262313065
241313,-26,8,-111,2481,2346,-7847,1745188232262313065
241505,-23,-11,-75,2380,1870,-7744,1745188232262313065
241697,-16,-26,-29,2231,1868,-7600,1745188232262313065
241889,-11,-30,-6,2035,1891,-7479,1745188232327276950
242081,-16,-12,-18,1818,1807,-7323,1745188232327276950
242273,-11,12,-26,1819,1760,-7246,1745188232327276950
242465,3,27,-11,2134,1777,-7298,1745188232327276950
242657,10,22,9,2536,1690,-7348,1745188232327276950
242849,8,2,11,2681,1660,-7395,1745188232327276950
243041,7,-13,1,2569,1738,-7382,1745188232327276950
243233,15,-27,-10,2499,1783,-7455,1745188232327276950
243425,30,-43,-20,2462,1665,-7592,1745188232327276950
243617,25,-48,-35,2207,1391,-7655,1745188232327276950
243809,-2,-37,-48,1983,1428,-7611,1745188232327276950
244001,-9,-33,-35,2105,1625,-7605,1745188232327276950
366305,-378,-86,0,2421,1730,-6666,1745188235488758487
366497,-124,-109,-30,2475,1995,-6868,1745188235488758487
366689,-48,-124,-5,2373,1949,-7016,1745188235488758487
366881,-85,-124,21,2163,1811,-7052,1745188235488758487
367073,-94,-100,20,2129,1916,-7119,1745188235488758487
367265,-81,-103,14,2440,2003,-7051,1745188235488758487
367457,-66,-95,-15,2591,2004,-7084,1745188235488758487
367649,-59,-81,-38,2577,2069,-7181,1745188235488758487
367841,-91,-93,-41,2565,2103,-7320,1745188235488758487
368033,-117,-87,-44,2418,1957,-7540,1745188235488758487
368225,-144,-63,-57,2220,1696,-7705,1745188235488758487
368417,-196,-44,-76,2175,1618,-7788,1745188235488758487
368609,-251,-28,-79,2405,1680,-7810,1745188235572274286
368801,-304,-31,-67,2627,1551,-7867,1745188235572274286
368993,-382,-28,-59,2633,1124,-7950,1745188235572274286
369185,-484,-19,-70,2565,870,-7973,1745188235572274286
369377,-601,-19,-84,2535,995,-8118,1745188235572274286
369569,-745,2,-82,2653,1323,-8205,1745188235572274286
369761,-842,22,-71,2813,1834,-8258,1745188235572274286
369953,-841,4,-82,2827,2668,-8381,1745188235572274286
370145,-771,1,-99,2836,3541,-8504,1745188235572274286
370337,-654,0,-138,2842,4317,-8675,1745188235572274286
370529,-516,-12,-167,2802,4397,-8816,1745188235572274286
370721,-334,-28,-171,2773,4204,-8861,1745188235572274286
370913,-134,-62,-146,2765,3909,-8847,1745188235598157852
371105,36,-86,-90,2741,3406,-8153,1745188235598157852
371297,92,-63,-68,2586,4285,-8931,1745188235598157852
371489,416,-90,7,2239,4856,-7957,1745188235598157852
371681,558,-83,-15,511,4606,-7122,1745188235598157852
371873,721,5,-92,279,3068,-6662,1745188235598157852
372065,719,52,-152,683,926,-6368,1745188235598157852
372257,627,137,-123,1177,-466,-6061,1745188235598157852
372449,466,171,-11,1718,-1035,-6084,1745188235598157852
372641,281,186,91,2283,-911,-6230,1745188235598157852
372833,117,175,127,2716,-252,-6443,1745188235598157852
373025,-22,158,94,2994,690,-6677,1745188235598157852
373217,-78,144,31,3100,1596,-6851,1745188235659598124
373409,-55,121,-18,3062,2331,-7060,1745188235659598124
373601,1,95,-39,2891,2741,-7229,1745188235659598124
373793,69,71,-49,2620,2810,-7382,1745188235659598124
373985,124,53,-54,2366,2597,-7458,1745188235659598124
374177,152,51,-55,2188,2282,-7476,1745188235659598124
374369,154,56,-47,2123,1964,-7468,1745188235659598124
374561,126,57,-33,2185,1756,-7489,1745188235659598124
374753,82,54,-22,2295,1674,-7475,1745188235659598124
374945,31,44,-21,2387,1728,-7444,1745188235659598124
375137,-18,28,-26,2454,1842,-7407,1745188235659598124
375329,-54,13,-27,2470,2000,-7365,1745188235659598124
375521,-78,-3,-26,2431,2107,-7338,1745188235719968562
375713,-86,-16,-28,2368,2135,-7308,1745188235719968562
375905,-85,-23,-31,2286,2083,-7306,1745188235719968562
376097,-83,-22,-30,2187,2034,-7344,1745188235719968562
376289,-75,-14,-24,2153,2038,-7421,1745188235719968562
376481,-63,-2,-19,2197,2063,-7530,1745188235719968562
376673,-48,9,-14,2297,2100,-7567,1745188235719968562
376865,-36,24,-10,2433,2143,-7555,1745188235719968562
377057,-30,33,-14,2634,2204,-7488,1745188235719968562
377249,-22,37,-26,2759,2339,-7420,1745188235719968562
377441,-16,40,-34,2834,2528,-7328,1745188235719968562
377633,-5,42,-44,2871,2709,-7271,1745188235719968562
377825,7,41,-58,2852,2807,-7275,1745188235790370107
378017,27,40,-76,2797,2816,-7326,1745188235790370107
378209,47,40,-86,2725,2738,-7396,1745188235790370107
378401,65,41,-87,2649,2618,-7487,1745188235790370107
378593,68,43,-82,2589,2430,-7546,1745188235790370107
378785,60,40,-78,2573,2198,-7636,1745188235790370107
378977,42,35,-69,2569,1986,-7764,1745188235790370107
379169,20,25,-57,2594,1843,-7849,1745188235790370107
379361,-5,9,-47,2581,1813,-7894,1745188235790370107
379553,-30,-9,-39,2509,1846,-7826,1745188235790370107
379745,-52,-26,-35,2401,1950,-7685,1745188235790370107
379937,-75,-33,-31,2318,2053,-7514,1745188235790370107
380129,-84,-35,-29,2229,2139,-7390,1745188235838049359
380321,-85,-29,-22,2173,2188,-7347,1745188235838049359
380513,-77,-21,-13,2181,2214,-7322,1745188235838049359
380705,-62,-16,-6,2185,2166,-7339,1745188235838049359
380897,-50,-12,-1,2225,2135,-7338,1745188235838049359
381089,-38,-11,1,2271,2080,-7277,1745188235838049359
381281,-33,-9,2,2286,2097,-7209,1745188235838049359
381473,-31,-5,0,2294,2152,-7129,1745188235838049359
381665,-28,3,-4,2323,2229,-7152,1745188235838049359
381857,-21,12,-9,2404,2315,-7187,1745188235838049359
382049,-11,19,-15,2502,2385,-7230,1745188235838049359
382241,0,22,-22,2583,2393,-7278,1745188235838049359
382433,14,23,-32,2651,2309,-7324,1745188235894847746
382625,26,22,-40,2689,2187,-7350,1745188235894847746
382817,28,16,-46,2722,2042,-7402,1745188235894847746
383009,20,7,-48,2731,1865,-7394,1745188235894847746
383201,9,-7,-47,2679,1769,-7428,1745188235894847746
383393,-10,-19,-42,2595,1756,-7465,1745188235894847746
383585,-31,-29,-39,2518,1828,-7491,1745188235894847746
383777,-50,-36,-43,2405,1970,-7483,1745188235894847746
383969,-61,-35,-47,2342,2095,-7486,1745188235894847746
384161,-64,-32,-50,2315,2204,-7466,1745188235894847746
384353,-59,-30,-53,2321,2293,-7475,1745188235894847746
384545,-56,-30,-52,2330,2367,-7435,1745188235894847746
384737,-61,-30,-48,2356,2378,-7383,1745188235953623199
384929,-65,-34,-45,2339,2339,-7376,1745188235953623199
385121,-52,-46,-47,2279,2460,-7381,1745188235953623199
385313,-28,-56,-63,2082,2910,-7187,1745188235953623199
385505,-10,-44,-97,1803,3588,-6749,1745188235953623199
385697,4,-5,-130,1653,3979,-6668,1745188235953623199
385889,13,47,-130,1787,3669,-6754,1745188235953623199
386081,55,81,-100,2175,3049,-6904,1745188235953623199
386273,88,116,-56,2702,2445,-7334,1745188235953623199
386465,60,131,-13,3286,1916,-7364,1745188235953623199
386657,50,88,2,3621,1450,-7652,1745188235953623199
386849,13,30,19,3749,839,-7852,1745188235953623199
387041,-7,-49,32,3624,440,-8002,1745188236010562887
387233,-37,-117,33,3228,433,-7840,1745188236010562887
387425,-84,-148,15,2744,804,-7651,1745188236010562887
387617,-137,-146,-14,2342,1321,-7527,1745188236010562887
387809,-166,-129,-27,2153,1786,-7578,1745188236010562887
388001,-161,-121,-26,2130,2135,-7762,1745188236010562887
388193,-149,-123,-25,2111,2306,-7839,1745188236010562887
388385,-117,-138,-36,1939,2463,-7815,1745188236010562887
388577,-103,-137,-44,1697,2518,-7680,1745188236010562887
388769,-88,-131,-52,1473,2424,-7682,1745188236010562887
388961,-66,-125,-57,1287,2326,-7809,1745188236010562887
389153,-48,-108,-47,1190,2319,-7853,1745188236010562887
389345,-46,-82,-28,1224,2320,-7898,1745188236070602859
389537,-67,-54,-3,1421,2248,-7845,1745188236070602859
389729,-77,-31,21,1721,2179,-7713,1745188236070602859
389921,-77,-10,43,2113,2181,-7623,1745188236070602859
390113,-71,-4,49,2453,2164,-7592,1745188236070602859
390305,-47,-16,38,2689,2226,-7484,1745188236070602859
390497,-39,-27,31,2799,2260,-7208,1745188236070602859
390689,-47,-34,25,2832,2175,-6926,1745188236070602859
390881,-62,-40,13,2811,2114,-6787,1745188236070602859
391073,-63,-36,2,2768,2218,-6736,1745188236070602859
391265,-45,-22,-6,2735,2437,-6803,1745188236070602859
391457,-23,-5,-16,2757,2640,-6850,1745188236070602859
391649,14,8,-31,2766,2831,-6952,1745188236127401924
391841,47,26,-42,2810,2879,-7079,1745188236127401924
392033,77,35,-50,2878,2708,-7251,1745188236127401924
392225,109,26,-59,2876,2517,-7484,1745188236127401924
392417,129,16,-60,2788,2409,-7658,1745188236127401924
392609,120,8,-56,2677,2309,-7751,1745188236127401924
392801,90,-3,-50,2557,2074,-7841,1745188236127401924
392993,51,-18,-38,2466,1838,-7928,1745188236127401924
393185,-4,-28,-19,2373,1739,-7965,1745188236127401924
393377,-70,-36,3,2308,1847,-7904,1745188236127401924
393569,-133,-43,17,2282,2088,-7847,1745188236127401924
393761,-185,-47,23,2250,2393,-7705,1745188236127401924
393953,-222,-45,24,2240,2597,-7543,1745188236201052188
394145,-228,-41,23,2227,2801,-7405,1745188236201052188
394337,-213,-37,21,2171,3022,-7274,1745188236201052188
394529,-195,-25,16,2124,3070,-7296,1745188236201052188
394721,-192,-21,10,2158,2800,-7593,1745188236201052188
394913,-204,-14,7,2196,2379,-7289,1745188236201052188
395105,-205,5,1,2231,2185,-6766,1745188236201052188
395297,-185,38,-7,2271,2274,-6453,1745188236201052188
395489,-150,51,-15,2273,2323,-6558,1745188236201052188
395681,-104,38,-17,2245,2237,-6939,1745188236201052188
395873,-91,31,-7,2249,2012,-7176,1745188236201052188
396065,-92,39,8,2278,1860,-7263,1745188236201052188
396257,-68,53,12,2323,1849,-7272,1745188236245493814
396449,-21,62,-1,2377,1928,-7448,1745188236245493814
396641,17,58,-16,2421,1936,-7649,1745188236245493814
396833,28,41,-15,2429,1849,-7782,1745188236245493814
397025,23,18,3,2392,1812,-7818,1745188236245493814
397217,13,-2,24,2329,1909,-7813,1745188236245493814
397409,7,-11,31,2231,2161,-7791,1745188236245493814
397601,9,-15,20,2140,2404,-7744,1745188236245493814
397793,25,-15,0,2016,2581,-7725,1745188236245493814
397985,46,-12,-13,1933,2650,-7730,1745188236245493814
398177,63,-5,-15,1878,2639,-7785,1745188236245493814
398369,79,1,-6,1864,2525,-7821,1745188236245493814
398561,94,5,1,1888,2415,-7867,1745188236304551399
398753,101,9,6,1955,2341,-7844,1745188236304551399
398945,99,13,10,2025,2303,-7808,1745188236304551399
399137,89,15,14,2079,2309,-7754,1745188236304551399
399329,85,17,22,2131,2348,-7700,1745188236304551399
399521,89,21,31,2169,2396,-7667,1745188236304551399
399713,94,29,37,2212,2425,-7657,1745188236304551399
399905,92,34,39,2257,2414,-7600,1745188236304551399
400097,83,36,40,2324,2363,-7538,1745188236304551399
400289,60,40,48,2382,2278,-7515,1745188236304551399
400481,24,44,65,2452,2196,-7515,1745188236304551399
400673,-10,28,72,2477,2178,-7559,1745188236304551399
400865,-45,4,67,2428,2256,-7720,1745188236367945560
401057,-86,-11,56,2402,2382,-7922,1745188236367945560
401249,-133,-19,42,2401,2496,-8159,1745188236367945560
401441,-180,-23,27,2416,2564,-8393,1745188236367945560
401633,-225,-26,16,2454,2565,-8614,1745188236367945560
401825,-263,-27,14,2550,2527,-8828,1745188236367945560
402017,-293,-30,15,2640,2497,-8993,1745188236367945560
402209,-323,-38,18,2742,2437,-9185,1745188236367945560
402401,-356,-48,19,2860,2364,-9351,1745188236367945560
402593,-396,-62,18,2949,2300,-9596,1745188236367945560
402785,-437,-80,11,3068,2245,-9829,1745188236367945560
402977,-478,-103,1,3144,2207,-10024,1745188236367945560
403169,-514,-125,-6,3192,2234,-10245,1745188236419108061
403361,-547,-147,-11,3258,2275,-10381,1745188236419108061
403553,-578,-170,-15,3301,2322,-10479,1745188236419108061
403745,-602,-195,-20,3337,2393,-10594,1745188236419108061
403937,-627,-219,-27,3340,2453,-10768,1745188236419108061
404129,-652,-237,-38,3390,2509,-10959,1745188236419108061
404321,-671,-253,-47,3471,2486,-11069,1745188236419108061
404513,-685,-267,-53,3571,2396,-11119,1745188236419108061
404705,-702,-280,-54,3745,2213,-11234,1745188236419108061
404897,-726,-293,-53,3937,1967,-11289,1745188236419108061
405089,-752,-307,-50,4153,1704,-11272,1745188236419108061
405281,-783,-329,-52,4374,1440,-11253,1745188236419108061
405473,-821,-352,-62,4594,1188,-11088,1745188236479464645
405665,-863,-373,-79,4778,1063,-10992,1745188236479464645
405857,-909,-390,-106,4961,1096,-10802,1745188236479464645
406049,-954,-401,-146,5127,1182,-10501,1745188236479464645
406241,-993,-415,-197,5271,1334,-10329,1745188236479464645
406433,-1032,-426,-247,5459,1517,-10242,1745188236479464645
406625,-1146,-423,-296,5673,1463,-10174,1745188236479464645
406817,-1316,-419,-352,5916,1148,-10283,1745188236479464645
407009,-1485,-414,-415,6176,912,-10391,1745188236479464645
407201,-1658,-414,-475,6444,821,-10537,1745188236479464645
407393,-1857,-415,-534,6745,790,-10691,1745188236479464645
407585,-2079,-410,-582,7067,782,-10690,1745188236479464645
407777,-2313,-397,-616,7445,746,-10547,1745188236536062357
407969,-2540,-393,-643,7874,655,-10344,1745188236536062357
408161,-2749,-377,-695,8234,611,-10218,1745188236536062357
408353,-2914,-345,-765,8593,806,-10027,1745188236536062357
408545,-3024,-333,-842,8945,1098,-9901,1745188236536062357
408737,-3106,-335,-915,9306,1225,-10062,1745188236536062357
408929,-3161,-361,-985,9670,1198,-10197,1745188236536062357
409121,-3215,-420,-1053,10062,1143,-10419,1745188236536062357
409313,-3279,-489,-1136,10406,1321,-10626,1745188236536062357
409505,-3341,-548,-1235,10742,1980,-10799,1745188236536062357
409697,-3390,-607,-1335,11045,2994,-10945,1745188236536062357
409889,-3423,-666,-1413,11327,3998,-11017,1745188236536062357
410081,-3418,-740,-1459,11563,4753,-10958,1745188236617674893
410273,-3355,-840,-1475,11718,5230,-10895,1745188236617674893
410465,-3232,-958,-1467,11775,5549,-11108,1745188236617674893
410657,-3079,-1103,-1444,11800,5779,-11476,1745188236617674893
410849,-2924,-1253,-1405,11701,5854,-11451,1745188236617674893
411041,-2783,-1378,-1357,11559,5924,-11445,1745188236617674893
411233,-2660,-1492,-1291,11424,5989,-11439,1745188236617674893
411425,-2538,-1603,-1195,11288,6035,-11340,1745188236617674893
411617,-2403,-1722,-1064,11158,6089,-11247,1745188236617674893
411809,-2270,-1867,-907,10958,6057,-11103,1745188236617674893
412001,-2151,-2025,-745,10756,5818,-11022,1745188236617674893
412193,-2059,-2184,-593,10564,5383,-10908,1745188236617674893
412385,-1979,-2351,-452,10406,4934,-10723,1745188236652172703
412577,-1913,-2514,-308,10284,4592,-10628,1745188236652172703
412769,-1876,-2674,-166,10186,4374,-10314,1745188236652172703
412961,-1854,-2839,-37,10135,4338,-9769,1745188236652172703
413153,-1825,-3014,70,10134,4394,-9255,1745188236652172703
413345,-1800,-3209,158,10110,4528,-8758,1745188236652172703
413537,-1768,-3412,231,10065,4731,-8227,1745188236652172703
413729,-1705,-3622,307,9962,5049,-7685,1745188236652172703
413921,-1624,-3838,386,9816,5403,-7152,1745188236652172703
414113,-1538,-4063,463,9668,5742,-6728,1745188236652172703
414305,-1442,-4280,532,9433,6076,-6267,1745188236652172703
414497,-1331,-4491,601,9173,6423,-5746,1745188236652172703
414689,-1199,-4689,679,8908,6769,-5090,1745188236715167961
414881,-1049,-4869,762,8708,7090,-4566,1745188236715167961
415073,-884,-5042,843,8533,7366,-4151,1745188236715167961
415265,-701,-5212,909,8396,7705,-3960,1745188236715167961
415457,-514,-5385,973,8235,8041,-3556,1745188236715167961
415649,-336,-5538,1048,8022,8173,-3074,1745188236715167961
415841,-172,-5680,1128,7865,8093,-2601,1745188236715167961
416033,-22,-5822,1204,7781,7859,-2193,1745188236715167961
416225,123,-5961,1276,7680,7604,-1739,1745188236715167961
416417,264,-6095,1352,7619,7454,-1434,1745188236715167961
416609,388,-6227,1433,7528,7288,-948,1745188236715167961
416801,493,-6359,1520,7481,7109,-527,1745188236715167961
416993,577,-6491,1605,7461,6912,-14,1745188236772001608
417185,633,-6614,1688,7470,6691,456,1745188236772001608
417377,674,-6723,1763,7512,6475,844,1745188236772001608
417569,701,-6818,1833,7609,6452,1191,1745188236772001608
417761,699,-6904,1902,7774,6524,1591,1745188236772001608
417953,674,-6983,1965,7983,6810,2252,1745188236772001608
418145,644,-7049,2024,8319,7335,2796,1745188236772001608
418337,616,-7108,2072,8787,8032,3308,1745188236772001608
418529,591,-7166,2107,9310,8826,3890,1745188236772001608
418721,572,-7228,2136,9824,9524,4446,1745188236772001608
418913,556,-7299,2152,10322,10146,5065,1745188236772001608
419105,537,-7381,2170,10826,10670,5533,1745188236772001608
419297,514,-7485,2208,11344,10998,5805,1745188236829151399
419489,490,-7608,2264,11936,10975,6075,1745188236829151399
419681,474,-7730,2299,12509,10549,6436,1745188236829151399
419873,463,-7859,2304,13115,9908,6714,1745188236829151399
420065,421,-8019,2299,13644,8968,6819,1745188236829151399
420257,331,-8170,2268,13911,7792,7119,1745188236829151399
420449,190,-8298,2191,13951,6551,7123,1745188236829151399
420641,-18,-8377,2080,13902,5453,6976,1745188236829151399
420833,-269,-8378,1943,13725,4676,6863,1745188236829151399
421025,-551,-8325,1794,13713,4479,6628,1745188236829151399
421217,-835,-8207,1637,13891,4938,7046,1745188236829151399
421409,-1074,-8061,1482,14373,5849,7768,1745188236829151399
421601,-1237,-7872,1338,14843,6981,8247,1745188236887740395
421793,-1292,-7670,1217,15281,8149,8408,1745188236887740395
421985,-1217,-7503,1103,15336,9381,9214,1745188236887740395
422177,-1108,-7339,987,14949,10391,10147,1745188236887740395
422369,-1032,-7197,879,14282,10836,11030,1745188236887740395
422561,-993,-7057,787,13333,10682,12300,1745188236887740395
422753,-975,-6878,715,11911,10116,13286,1745188236887740395
422945,-979,-6639,708,10086,9534,13563,1745188236887740395
423137,-1031,-6330,739,8141,9148,13550,1745188236887740395
423329,-1136,-6007,715,6062,9072,13385,1745188236887740395
423521,-1261,-5624,639,4053,9463,13165,1745188236887740395
423713,-1390,-5168,548,2502,10204,12903,1745188236887740395
423905,-1508,-4730,421,1417,11052,12681,1745188236946535587
424097,-1591,-4297,270,761,11573,12795,1745188236946535587
424289,-1622,-3882,64,182,11328,11901,1745188236946535587
424481,-1568,-3458,-167,-447,10509,10852,1745188236946535587
424673,-1431,-3029,-350,-764,9335,9604,1745188236946535587
424865,-1247,-2660,-490,-930,7949,8208,1745188236946535587
425057,-1008,-2329,-585,-807,6755,7326,1745188236946535587
425249,-779,-2072,-654,-558,5816,6844,1745188236946535587
425441,-570,-1857,-689,-448,5238,6861,1745188236946535587
425633,-401,-1671,-690,-502,5024,7235,1745188236946535587
425825,-261,-1507,-683,-578,5176,7633,1745188236946535587
426017,-128,-1371,-682,-741,5551,7940,1745188236946535587
426209,11,-1268,-668,-1004,6026,8452,1745188237017513636
426401,156,-1189,-647,-1388,6389,9067,1745188237017513636
426593,296,-1111,-644,-1942,6456,9262,1745188237017513636
426785,415,-1006,-637,-2166,6613,9383,1745188237017513636
426977,534,-877,-618,-2024,6893,9387,1745188237017513636
427169,645,-795,-600,-1819,7099,9304,1745188237017513636
427361,737,-756,-577,-1676,7215,9150,1745188237017513636
427553,813,-732,-539,-1475,7191,8823,1745188237017513636
427745,870,-714,-494,-1321,7120,8478,1745188237017513636
427937,896,-725,-453,-1336,6916,7945,1745188237017513636
428129,899,-748,-402,-1424,6720,7465,1745188237017513636
428321,893,-758,-339,-1450,6537,7146,1745188237017513636
428513,867,-770,-282,-1485,6351,6753,1745188237062350310
428705,808,-783,-239,-1495,6043,6316,1745188237062350310
428897,725,-792,-197,-1435,5696,5929,1745188237062350310
429089,620,-801,-151,-1337,5530,5803,1745188237062350310
429281,511,-822,-96,-1118,5703,5655,1745188237062350310
429473,421,-861,-36,-978,6109,5388,1745188237062350310
429665,348,-918,5,-1133,6425,5160,1745188237062350310
429857,286,-964,24,-1441,6567,5135,1745188237062350310
430049,228,-973,35,-1753,6641,5120,1745188237062350310
430241,174,-945,57,-1873,6849,5157,1745188237062350310
430433,128,-900,90,-1879,7228,5217,1745188237062350310
430625,102,-870,104,-1857,7572,5271,1745188237062350310
430817,101,-851,95,-2010,7771,5390,1745188237122728092
431009,107,-821,76,-2253,7732,5445,1745188237122728092
431201,122,-767,52,-2456,7633,5474,1745188237122728092
431393,145,-692,24,-2584,7553,5443,1745188237122728092
431585,184,-614,7,-2631,7543,5383,1745188237122728092
431777,243,-549,11,-2577,7473,5235,1745188237122728092
431969,293,-489,0,-2381,7225,5068,1745188237122728092
432161,329,-438,-35,-2253,6890,4909,1745188237122728092
432353,341,-391,-62,-2169,6637,4720,1745188237122728092
432545,342,-346,-69,-2111,6649,4640,1745188237122728092
432737,331,-309,-70,-2112,6784,4564,1745188237122728092
432929,318,-280,-79,-2135,6898,4407,1745188237122728092
433121,325,-247,-88,-2152,7045,4321,1745188237188356659
433313,340,-223,-94,-2205,7133,4207,1745188237188356659
433505,366,-190,-93,-2181,7240,4112,1745188237188356659
433697,394,-163,-96,-2174,7320,4037,1745188237188356659
433889,421,-143,-99,-2217,7319,3963,1745188237188356659
434081,437,-128,-94,-2276,7294,3850,1745188237188356659
434273,436,-101,-73,-2229,7270,3718,1745188237188356659
434465,428,-84,-48,-2174,7235,3718,1745188237188356659
434657,421,-80,-32,-2217,7240,3729,1745188237188356659
434849,424,-80,-11,-2315,7298,3684,1745188237188356659
435041,427,-75,9,-2477,7310,3495,1745188237188356659
435233,432,-61,24,-2537,7325,3201,1745188237188356659
435425,424,-44,33,-2494,7322,2913,1745188237237408555
435617,407,-31,40,-2405,7309,2706,1745188237237408555
435809,391,-30,54,-2289,7286,2562,1745188237237408555
436001,369,-43,67,-2226,7265,2418,1745188237237408555
436193,333,-66,78,-2243,7155,2407,1745188237237408555
436385,282,-83,91,-2239,7016,2551,1745188237237408555
436577,221,-91,107,-2247,6961,2654,1745188237237408555
436769,152,-98,115,-2303,6949,2699,1745188237237408555
436961,82,-104,116,-2364,7043,2726,1745188237237408555
437153,25,-101,122,-2384,7243,2761,1745188237237408555
437345,-10,-95,130,-2394,7497,2728,1745188237237408555
437537,-26,-86,138,-2388,7788,2764,1745188237237408555
437729,-30,-76,136,-2366,8018,2743,1745188237300954693
437921,-31,-66,126,-2371,8077,2662,1745188237300954693
438113,-24,-60,114,-2405,8015,2625,1745188237300954693
438305,-14,-48,102,-2396,7967,2564,1745188237300954693
438497,-5,-36,92,-2416,7908,2455,1745188237300954693
438689,1,-25,91,-2442,7840,2342,1745188237300954693
438881,4,-11,94,-2433,7756,2244,1745188237300954693
439073,7,5,91,-2357,7732,2130,1745188237300954693
439265,12,17,85,-2347,7791,1976,1745188237300954693
439457,16,23,82,-2365,7914,1892,1745188237300954693
439649,25,25,78,-2470,7947,1863,1745188237300954693
439841,35,33,70,-2570,7914,1885,1745188237300954693
440033,47,48,61,-2592,7864,1866,1745188237354487121
440225,50,68,55,-2543,7799,1868,1745188237354487121
440417,44,83,56,-2418,7844,1937,1745188237354487121
440609,29,96,60,-2301,7963,1892,1745188237354487121
440801,14,104,61,-2246,8112,1770,1745188237354487121
440993,7,108,58,-2231,8252,1648,1745188237354487121
441185,7,107,53,-2279,8350,1607,1745188237354487121
441377,8,110,48,-2259,8385,1614,1745188237354487121
441569,9,114,39,-2249,8341,1562,1745188237354487121
441761,5,114,27,-2305,8254,1575,1745188237354487121
441953,3,113,26,-2389,8220,1583,1745188237354487121
442145,4,115,29,-2427,8191,1527,1745188237354487121
442337,10,118,26,-2428,8131,1436,1745188237414807038
442529,15,122,20,-2410,8115,1356,1745188237414807038
442721,17,121,17,-2355,8114,1330,1745188237414807038
442913,23,118,17,-2336,8137,1369,1745188237414807038
443105,33,115,17,-2360,8156,1341,1745188237414807038
443297,50,112,15,-2371,8167,1291,1745188237414807038
443489,68,111,12,-2401,8090,1289,1745188237414807038
443681,83,113,10,-2382,7930,1277,1745188237414807038
443873,89,122,11,-2302,7794,1270,1745188237414807038
444065,78,130,10,-2198,7745,1226,1745188237414807038
444257,55,133,11,-2071,7787,1130,1745188237414807038
444449,28,134,10,-2014,7893,1045,1745188237414807038
444641,0,128,6,-1979,7963,928,1745188237470569550
444833,-12,119,6,-1991,8004,846,1745188237470569550
445025,-10,110,8,-2076,8011,806,1745188237470569550
445217,-5,103,10,-2216,8033,805,1745188237470569550
445409,-3,101,8,-2327,7979,885,1745188237470569550
445601,1,102,2,-2401,7936,990,1745188237470569550
445793,7,106,-3,-2430,7928,1066,1745188237470569550
445985,17,108,-2,-2436,7967,1132,1745188237470569550
446177,32,107,1,-2415,8007,1172,1745188237470569550
446369,46,106,0,-2408,7966,1214,1745188237470569550
446561,60,107,-4,-2381,7932,1238,1745188237470569550
446753,69,110,-5,-2407,7953,1250,1745188237470569550
446945,75,110,0,-2441,7958,1241,1745188237533994283
447137,81,112,2,-2425,7968,1244,1745188237533994283
447329,84,119,-6,-2403,7962,1245,1745188237533994283
447521,83,124,-18,-2377,7922,1235,1745188237533994283
447713,79,126,-21,-2330,7855,1221,1745188237533994283
447905,74,129,-20,-2245,7779,1212,1745188237533994283
448097,69,132,-22,-2178,7742,1200,1745188237533994283
448289,62,135,-28,-2153,7718,1193,1745188237533994283
448481,58,135,-33,-2198,7714,1184,1745188237533994283
448673,58,138,-34,-2233,7744,1198,1745188237533994283
448865,58,144,-36,-2285,7779,1205,1745188237533994283
449057,56,155,-39,-2300,7774,1134,1745188237533994283
449249,56,163,-43,-2312,7749,1022,1745188237595895540
449441,60,169,-40,-2281,7759,991,1745188237595895540
449633,68,170,-32,-2236,7832,1008,1745188237595895540
449825,77,167,-25,-2261,7901,1050,1745188237595895540
450017,83,165,-23,-2315,7880,1085,1745188237595895540
450209,88,164,-23,-2374,7845,1163,1745188237595895540
450401,90,164,-21,-2457,7816,1264,1745188237595895540
450593,95,172,-18,-2478,7865,1286,1745188237595895540
450785,101,182,-13,-2491,7965,1311,1745188237595895540
450977,106,191,-10,-2449,8074,1378,1745188237595895540
451169,116,196,-8,-2429,8126,1454,1745188237595895540
451361,131,200,-5,-2423,8127,1503,1745188237595895540
451553,146,206,-3,-2401,8079,1545,1745188237647159447
451745,151,213,-7,-2402,8009,1566,1745188237647159447
451937,150,221,-11,-2419,7933,1591,1745188237647159447
452129,145,227,-11,-2423,7911,1593,1745188237647159447
452321,140,232,-11,-2411,7932,1628,1745188237647159447
452513,137,238,-14,-2381,7982,1678,1745188237647159447
452705,140,245,-15,-2387,8036,1696,1745188237647159447
452897,145,250,-18,-2404,8061,1659,1745188237647159447
453089,148,254,-24,-2430,7983,1684,1745188237647159447
453281,147,259,-33,-2489,7830,1836,1745188237647159447
453473,153,273,-38,-2517,7721,2039,1745188237647159447
453665,172,289,-41,-2570,7642,2214,1745188237647159447
453857,210,303,-39,-2721,7653,2348,1745188237707116139
454049,266,318,-32,-2944,7741,2401,1745188237707116139
454241,328,342,-26,-3146,7877,2460,1745188237707116139
454433,389,381,-22,-3230,7999,2636,1745188237707116139
454625,463,432,-20,-3207,8117,2872,1745188237707116139
454817,554,481,-15,-3174,8324,3035,1745188237707116139
455009,656,529,-6,-3136,8596,2992,1745188237707116139
455201,760,581,4,-3047,8877,2821,1745188237707116139
455393,864,634,9,-2944,9092,2712,1745188237707116139
455585,970,683,5,-2777,9181,2728,1745188237707116139
455777,1066,727,-6,-2590,9133,2792,1745188237707116139
455969,1135,765,-19,-2458,8901,2856,1745188237707116139
456161,1172,791,-36,-2391,8548,2983,1745188237770539830
456353,1181,819,-46,-2393,8242,3163,1745188237770539830
456545,1164,854,-50,-2415,8122,3359,1745188237770539830
456737,1126,888,-56,-2442,8110,3524,1745188237770539830
456929,1081,921,-71,-2498,8167,3695,1745188237770539830
457121,1039,958,-93,-2532,8297,3806,1745188237770539830
457313,1006,1004,-120,-2578,8460,3820,1745188237770539830
457505,978,1052,-147,-2569,8642,3767,1745188237770539830
457697,955,1099,-178,-2547,8754,3726,1745188237770539830
457889,941,1149,-211,-2494,8842,3775,1745188237770539830
458081,931,1202,-244,-2441,8980,3825,1745188237770539830
458273,930,1261,-276,-2379,9161,3839,1745188237770539830
458465,940,1321,-308,-2334,9328,3769,1745188237821913007
458657,960,1377,-339,-2295,9523,3748,1745188237821913007
458849,986,1430,-373,-2280,9642,3755,1745188237821913007
459041,1024,1485,-410,-2275,9749,3785,1745188237821913007
459233,1070,1549,-447,-2283,9802,3747,1745188237821913007
459425,1108,1638,-474,-2235,9823,3788,1745188237821913007
459617,1156,1712,-510,-2190,9909,3699,1745188237821913007
459809,1228,1748,-561,-2255,9958,3682,1745188237821913007
460001,1302,1792,-609,-2333,9948,3658,1745188237821913007
460193,1376,1859,-654,-2371,9904,3647,1745188237821913007
460385,1441,1933,-703,-2307,9749,3628,1745188237821913007
460577,1489,2008,-756,-2189,9520,3583,1745188237821913007
460769,1515,2079,-809,-2023,9285,3503,1745188237881283194
460961,1514,2150,-856,-1821,9075,3341,1745188237881283194
461153,1492,2222,-899,-1556,8926,3194,1745188237881283194
461345,1448,2285,-942,-1283,8834,3087,1745188237881283194
461537,1396,2339,-988,-1058,8740,3087,1745188237881283194
461729,1337,2378,-1036,-873,8615,3045,1745188237881283194
461921,1278,2421,-1089,-766,8547,2936,1745188237881283194
462113,1205,2462,-1139,-675,8507,2822,1745188237881283194
462305,1125,2505,-1183,-568,8488,2636,1745188237881283194
462497,1045,2549,-1227,-454,8501,2559,1745188237881283194
462689,963,2590,-1272,-352,8516,2433,1745188237881283194
462881,882,2640,-1318,-265,8520,2257,1745188237881283194
463073,784,2685,-1364,-157,8473,1974,1745188237944876884
463265,677,2729,-1412,-29,8434,1759,1745188237944876884
463457,565,2769,-1452,90,8362,1650,1745188237944876884
463649,450,2799,-1484,177,8256,1513,1745188237944876884
463841,344,2829,-1510,225,8160,1357,1745188237944876884
464033,236,2858,-1532,267,8046,1173,1745188237944876884
464225,117,2884,-1557,312,7904,963,1745188237944876884
464417,-3,2909,-1584,368,7779,860,1745188237944876884
464609,-123,2932,-1603,423,7650,842,1745188237944876884
464801,-236,2955,-1610,469,7531,829,1745188237944876884
464993,-340,2970,-1607,510,7426,882,1745188237944876884
465185,-437,2988,-1600,541,7333,909,1745188237944876884
465377,-529,3008,-1595,549,7257,888,1745188238003547598
465761,-688,3058,-1580,523,7233,807,1745188238003547598
465953,-746,3088,-1565,505,7265,817,1745188238003547598
466145,-785,3122,-1545,499,7331,890,1745188238003547598
466337,-806,3160,-1523,530,7374,956,1745188238003547598
466529,-812,3201,-1503,591,7430,919,1745188238003547598
466721,-803,3242,-1486,663,7473,865,1745188238003547598
466913,-780,3280,-1471,767,7527,802,1745188238003547598
467105,-745,3315,-1460,906,7594,768,1745188238003547598
467297,-695,3351,-1450,1040,7643,776,1745188238003547598
467489,-636,3381,-1438,1168,7737,855,1745188238003547598
467681,-574,3406,-1432,1298,7802,938,1745188238003547598
467873,-510,3432,-1433,1448,7866,976,1745188238068166955
468065,-443,3460,-1440,1592,7855,974,1745188238068166955
468257,-371,3489,-1448,1703,7829,932,1745188238068166955
468449,-291,3516,-1456,1807,7784,875,1745188238068166955
468641,-206,3534,-1460,1923,7749,777,1745188238068166955
468833,-119,3562,-1460,2048,7732,695,1745188238068166955
469025,-26,3580,-1460,2136,7687,646,1745188238068166955
469217,74,3588,-1464,2184,7667,627,1745188238068166955
469409,184,3600,-1474,2204,7731,603,1745188238068166955
469601,293,3615,-1486,2239,7851,521,1745188238068166955
469793,399,3632,-1504,2285,7990,376,1745188238068166955
469985,506,3650,-1530,2340,8108,186,1745188238068166955
470177,619,3667,-1562,2424,8189,0,1745188238124229308
470369,733,3682,-1598,2509,8232,-141,1745188238124229308
470561,848,3695,-1633,2625,8204,-235,1745188238124229308
470753,961,3708,-1666,2705,8139,-345,1745188238124229308
470945,1061,3716,-1698,2850,8052,-445,1745188238124229308
471137,1149,3721,-1736,2997,7921,-515,1745188238124229308
471329,1236,3721,-1774,3131,7782,-604,1745188238124229308
471521,1325,3714,-1814,3254,7667,-678,1745188238124229308
471713,1416,3694,-1854,3389,7580,-778,1745188238124229308
471905,1500,3680,-1896,3491,7539,-905,1745188238124229308
472097,1574,3675,-1937,3622,7506,-1048,1745188238124229308
472289,1639,3653,-1971,3729,7454,-1172,1745188238124229308
472481,1700,3632,-2005,3831,7426,-1307,1745188238181804667
472673,1767,3609,-2039,3958,7389,-1506,1745188238181804667
472865,1842,3588,-2072,4059,7392,-1698,1745188238181804667
473057,1918,3566,-2103,4161,7402,-1874,1745188238181804667
473249,1992,3540,-2136,4247,7364,-2068,1745188238181804667
473441,2067,3514,-2167,4332,7318,-2247,1745188238181804667
473633,2146,3486,-2199,4403,7261,-2367,1745188238181804667
473825,2233,3463,-2227,4489,7221,-2549,1745188238181804667
474017,2333,3440,-2247,4553,7195,-2850,1745188238181804667
474209,2436,3414,-2265,4657,7223,-3177,1745188238181804667
474401,2539,3386,-2285,4721,7213,-3521,1745188238181804667
474593,2641,3342,-2309,4777,7202,-3837,1745188238181804667
474785,2740,3308,-2335,4870,7145,-3986,1745188238251975849
474977,2831,3280,-2358,4995,7009,-4008,1745188238251975849
475169,2923,3226,-2379,5118,6764,-3997,1745188238251975849
475361,2997,3166,-2401,5267,6526,-3920,1745188238251975849
475553,3037,3097,-2437,5438,6054,-3825,1745188238251975849
475745,3066,3046,-2462,5535,5786,-3844,1745188238251975849
475937,3063,2994,-2472,5616,5443,-3862,1745188238251975849
476129,3071,2949,-2480,5687,5134,-3814,1745188238251975849
476321,3069,2881,-2495,5690,4844,-3804,1745188238251975849
476513,3054,2809,-2515,5677,4554,-3765,1745188238251975849
476705,3022,2735,-2540,5635,4233,-3840,1745188238251975849
476897,2968,2665,-2566,5559,3886,-4211,1745188238251975849
477089,2906,2602,-2588,5498,3526,-4820,1745188238305441611
477281,2834,2543,-2607,5461,3215,-5407,1745188238305441611
477473,2744,2487,-2618,5482,2840,-5885,1745188238305441611
477665,2646,2435,-2619,5540,2447,-6397,1745188238305441611
477857,2547,2385,-2603,5646,2049,-6960,1745188238305441611
478049,2445,2337,-2578,5825,1731,-7625,1745188238305441611
478241,2339,2283,-2547,6017,1453,-8247,1745188238305441611
478433,2237,2222,-2505,6275,1151,-8672,1745188238305441611
478625,2147,2142,-2456,6530,824,-8892,1745188238305441611
478817,2075,2048,-2411,6784,541,-8960,1745188238305441611
479009,2004,1946,-2377,6969,272,-8922,1745188238305441611
479201,1929,1840,-2366,7092,-28,-8832,1745188238305441611
479393,1843,1726,-2371,7114,-249,-8639,1745188238420718318
479585,1739,1618,-2370,7071,-467,-8531,1745188238420718318
479777,1610,1504,-2356,6953,-721,-8441,1745188238420718318
479969,1461,1402,-2342,6800,-1016,-8481,1745188238420718318
480161,1320,1330,-2318,6559,-1196,-8662,1745188238420718318
480353,1188,1284,-2274,6282,-1277,-8851,1745188238420718318
480545,1086,1252,-2222,5974,-1276,-9076,1745188238420718318
480737,1050,1237,-2166,5690,-1132,-9545,1745188238420718318
480929,1080,1252,-2096,5572,-904,-10112,1745188238420718318
481121,1171,1283,-2013,5600,-689,-10419,1745188238420718318
481313,1277,1318,-1911,5870,-699,-10542,1745188238420718318
481505,1355,1317,-1806,6309,-1053,-10615,1745188238420718318
481697,1390,1292,-1707,6764,-1535,-10637,1745188238434468088
481889,1389,1264,-1612,7126,-1937,-10479,1745188238434468088
482081,1382,1234,-1525,7408,-2165,-10242,1745188238434468088
482273,1394,1215,-1446,7560,-2172,-9953,1745188238434468088
482465,1412,1190,-1372,7670,-2093,-9620,1745188238434468088
482657,1450,1163,-1313,7657,-2081,-9259,1745188238434468088
482849,1515,1141,-1233,7592,-2245,-9029,1745188238434468088
483041,1556,1102,-1152,7579,-2725,-9003,1745188238434468088
483233,1528,1064,-1086,7508,-3435,-9071,1745188238434468088
483425,1446,1043,-1023,7430,-4215,-9174,1745188238434468088
483617,1333,1035,-962,7271,-4811,-9227,1745188238434468088
483809,1186,1046,-912,7099,-5241,-9194,1745188238434468088
484001,1025,1086,-890,6963,-5467,-9182,1745188238478440082
484193,853,1142,-881,6875,-5548,-8975,1745188238478440082
484385,705,1205,-860,6937,-5447,-8847,1745188238478440082
484577,552,1259,-837,7102,-5222,-8746,1745188238478440082
484769,399,1313,-816,7335,-4978,-8669,1745188238478440082
484961,247,1353,-798,7568,-4711,-8527,1745188238478440082
485153,116,1384,-786,7811,-4432,-8389,1745188238478440082
485345,16,1405,-780,8020,-4021,-8269,1745188238478440082
485537,-55,1413,-778,8188,-3546,-8141,1745188238478440082
485729,-96,1405,-768,8334,-3123,-8070,1745188238478440082
485921,-121,1380,-744,8458,-3025,-7386,1745188238478440082
486113,-174,1350,-648,8569,-4518,-6277,1745188238478440082
486305,-304,1241,-215,9115,-9679,-7246,1745188238536035025
486497,-503,930,776,10518,-18198,-11148,1745188238536035025
486689,-619,381,1874,12841,-22815,-16559,1745188238536035025
486881,-1184,-24,2159,13663,-19999,-15149,1745188238536035025
487073,-2406,-91,1596,12970,-13887,-13765,1745188238536035025
487265,-3708,-75,664,11787,-6649,-12267,1745188238536035025
487457,-4397,-106,-119,10977,-1697,-13966,1745188238536035025
487649,-3933,-211,-313,10358,2145,-11930,1745188238536035025
487841,-2609,-377,-207,9508,5322,-9942,1745188238536035025
488033,-1338,-488,-364,8688,6193,-8005,1745188238536035025
488225,-491,-600,-682,7909,4541,-6307,1745188238536035025
488417,-2,-654,-985,7193,1725,-6746,1745188238536035025
488609,258,-711,-1075,6427,-704,-7699,1745188238593071952
488801,240,-692,-856,5920,-2235,-7613,1745188238593071952
488993,36,-663,-497,5449,-2489,-7355,1745188238593071952
489185,-201,-667,-272,4726,-1505,-7298,1745188238593071952
489377,-381,-677,-265,3812,473,-7268,1745188238593071952
489569,-506,-663,-354,2952,2446,-7126,1745188238593071952
489761,-605,-593,-422,2285,3675,-6846,1745188238593071952
489953,-639,-487,-401,1908,4048,-6540,1745188238593071952
490145,-532,-400,-305,1698,3932,-6244,1745188238593071952
490337,-315,-343,-196,1592,3510,-6200,1745188238593071952
490529,-93,-312,-125,1530,2781,-6428,1745188238593071952
490721,78,-287,-94,1449,1926,-6944,1745188238593071952
490913,209,-238,-88,1319,1570,-7712,1745188238650799862
491105,298,-185,-96,1231,1597,-8265,1745188238650799862
491297,308,-134,-112,1130,1617,-9088,1745188238650799862
491489,252,-104,-128,1013,1648,-9986,1745188238650799862
491681,131,-87,-125,940,1735,-10690,1745188238650799862
491873,-17,-77,-112,868,1873,-11176,1745188238650799862
492065,-110,-76,-107,815,2153,-11217,1745188238650799862
492257,-175,-69,-101,785,2390,-10977,1745188238650799862
492449,-235,-82,-94,815,2311,-10858,1745188238650799862
492641,-296,-101,-88,767,1976,-10667,1745188238650799862
492833,-378,-130,-57,710,1437,-10645,1745188238650799862
493025,-449,-173,-13,593,985,-10339,1745188238650799862
493217,-539,-194,33,440,764,-10123,1745188238709103548
493409,-629,-215,77,344,690,-9679,1745188238709103548
493601,-665,-229,104,218,840,-9106,1745188238709103548
493793,-718,-220,114,184,982,-9020,1745188238709103548
493985,-745,-226,118,221,1027,-8579,1745188238709103548
494177,-752,-217,108,188,1129,-8350,1745188238709103548
494369,-781,-206,106,323,1219,-8380,1745188238709103548
494561,-740,-200,110,390,1554,-7722,1745188238709103548
494753,-724,-159,124,524,1948,-7780,1745188238709103548
494945,-690,-149,157,767,2164,-7569,1745188238709103548
495137,-637,-134,182,949,2370,-7222,1745188238709103548
495329,-663,-106,217,1230,2281,-7728,1745188238709103548
495521,-635,-107,249,1586,2236,-7423,1745188238767991291
495713,-675,-38,274,1932,2372,-6956,1745188238767991291
495905,-700,15,282,2580,2403,-7355,1745188238767991291
496097,-556,28,212,3031,3481,-6583,1745188238767991291
496289,-534,83,77,3446,4502,-6846,1745188238767991291
496481,-626,80,-21,4158,3951,-7353,1745188238767991291
496673,-602,1,-30,4395,2978,-7032,1745188238767991291
496865,-543,-115,39,4199,2417,-7246,1745188238767991291
497057,-526,-194,122,3881,1865,-7504,1745188238767991291
497249,-538,-264,146,3452,1349,-7409,1745188238767991291
497441,-494,-304,67,2638,1730,-6934,1745188238767991291
497633,-518,-276,-36,1966,2275,-6757,1745188238767991291
497825,-561,-222,-88,1566,2405,-6581,1745188238827865432
498017,-545,-176,-82,1282,2626,-6524,1745188238827865432
498209,-508,-140,-53,1190,3070,-7034,1745188238827865432
498401,-484,-102,-21,1195,3398,-6848,1745188238827865432
498593,-452,-65,-14,1209,3590,-6832,1745188238827865432
498785,-419,-45,-36,1257,3718,-6915,1745188238827865432
498977,-403,-44,-61,1255,3678,-7051,1745188238827865432
499169,-395,-46,-64,1119,3521,-7022,1745188238827865432
499361,-390,-59,-56,995,3398,-7607,1745188238827865432
499553,-395,-71,-52,917,3301,-8026,1745188238827865432
499745,-388,-72,-50,848,3183,-8022,1745188238827865432
499937,-398,-64,-51,880,2866,-8624,1745188238827865432
500129,-437,-71,-35,981,2338,-8881,1745188238891848598
500321,-430,-81,15,1083,1938,-8574,1745188238891848598
500513,-420,-98,76,1094,1800,-8489,1745188238891848598
500705,-445,-107,100,1019,1834,-8520,1745188238891848598
500897,-489,-116,115,1019,1708,-8466,1745188238891848598
501089,-471,-128,132,896,1661,-8059,1745188238891848598
501281,-466,-127,150,796,1801,-8155,1745188238891848598
501473,-468,-122,164,831,2069,-8162,1745188238891848598
501665,-436,-108,170,938,2507,-7987,1745188238891848598
501857,-418,-81,167,1034,2952,-7675,1745188238891848598
502049,-423,-57,161,1183,3253,-7742,1745188238891848598
502241,-400,-46,163,1385,3460,-7737,1745188238891848598
502433,-346,-34,176,1587,3534,-7697,1745188238951122848
502625,-300,-22,182,1768,3387,-7580,1745188238951122848
502817,-292,-9,181,1972,2945,-7593,1745188238951122848
503009,-271,-9,189,2181,2448,-7577,1745188238951122848
503201,-223,-8,204,2278,2154,-7344,1745188238951122848
503393,-263,7,223,2383,1880,-7347,1745188238951122848
503585,-334,7,229,2510,1541,-7478,1745188238951122848
503777,-326,-17,229,2546,1472,-7611,1745188238951122848
503969,-279,-27,226,2451,1742,-7636,1745188238951122848
504161,-311,-15,209,2417,1847,-7708,1745188238951122848
504353,-330,-16,183,2426,1916,-7680,1745188238951122848
504545,-293,-22,170,2319,2200,-7606,1745188238951122848
504737,-268,-11,168,2268,2514,-7633,1745188239002692272
504929,-258,0,160,2255,2677,-7583,1745188239002692272
505121,-244,0,159,2198,2687,-7444,1745188239002692272
505313,-221,0,164,2105,2663,-7421,1745188239002692272
505505,-213,-2,163,2053,2595,-7601,1745188239002692272
505697,-204,-4,158,2017,2595,-7641,1745188239002692272
505889,-187,-1,151,1999,2715,-7540,1745188239002692272
506081,-170,12,137,1953,2994,-7392,1745188239002692272
506273,-127,19,108,1918,3399,-7368,1745188239002692272
506465,-68,32,63,1849,3874,-7287,1745188239002692272
506657,-30,56,18,1813,4203,-7093,1745188239002692272
506849,-11,83,-16,1834,4233,-7074,1745188239002692272
507041,9,94,-24,1880,3902,-7244,1745188239068025790
507233,43,86,3,1908,3410,-7452,1745188239068025790
507425,66,75,49,1936,2853,-7724,1745188239068025790
507617,63,51,85,1916,2298,-7930,1745188239068025790
507809,48,27,101,1820,1883,-7970,1745188239068025790
508001,19,17,110,1702,1612,-8029,1745188239068025790
508193,-17,18,119,1656,1540,-7968,1745188239068025790
508385,-50,24,130,1627,1759,-7943,1745188239068025790
508577,-85,34,137,1678,2153,-7826,1745188239068025790
508769,-113,44,141,1792,2544,-7643,1745188239068025790
508961,-123,51,140,1940,2908,-7409,1745188239068025790
509153,-119,52,129,2036,3178,-7224,1745188239068025790
509345,-118,51,111,2070,3360,-7106,1745188239120089169
509537,-112,51,97,2047,3403,-7039,1745188239120089169
509729,-94,54,91,2014,3385,-7069,1745188239120089169
509921,-71,63,94,2016,3296,-7170,1745188239120089169
510113,-48,74,101,2081,3177,-7263,1745188239120089169
510305,-30,83,107,2184,3034,-7392,1745188239120089169
510497,-16,88,112,2280,2885,-7483,1745188239120089169
510689,-5,83,115,2369,2713,-7542,1745188239120089169
510881,2,72,117,2421,2524,-7571,1745188239120089169
511073,1,55,118,2364,2329,-7520,1745188239120089169
511265,-5,39,119,2251,2144,-7454,1745188239120089169
511457,-11,32,127,2086,2074,-7195,1745188239120089169
511649,-49,45,135,1947,2068,-7190,1745188239179205035
511841,-75,42,133,1870,2179,-7372,1745188239179205035
512033,-57,44,135,1820,2517,-7448,1745188239179205035
512225,-50,55,137,1823,2773,-7446,1745188239179205035
512417,-53,70,127,1868,2897,-7411,1745188239179205035
512609,-49,71,117,1882,2981,-7348,1745188239179205035
512801,-41,82,116,1873,3000,-7237,1745188239179205035
512993,-67,90,117,1925,2903,-7576,1745188239179205035
513185,-32,78,117,1963,2999,-7882,1745188239179205035
513377,-1,80,125,1969,3139,-7916,1745188239179205035
513569,-5,90,120,2017,3024,-7779,1745188239179205035
513761,-10,91,112,2050,2890,-7699,1745188239179205035
513953,-4,86,121,2018,2806,-7612,1745188239235301658
514145,2,85,133,1973,2715,-7526,1745188239235301658
514337,-8,83,138,1950,2599,-7497,1745188239235301658
514529,-17,81,138,1906,2492,-7458,1745188239235301658
514721,-22,80,137,1910,2384,-7389,1745188239235301658
514913,-33,80,137,1949,2364,-7333,1745188239235301658
515105,-44,79,136,1981,2379,-7333,1745188239235301658
515297,-50,80,137,2057,2450,-7299,1745188239235301658
515489,-54,81,133,2145,2561,-7295,1745188239235301658
515681,-54,80,126,2247,2694,-7239,1745188239235301658
515873,-52,75,118,2314,2772,-7181,1745188239235301658
516065,-47,68,111,2371,2777,-7121,1745188239235301658
516257,-46,59,105,2431,2692,-7032,1745188239294871374
516449,-44,47,102,2466,2584,-6962,1745188239294871374
516641,-40,35,102,2447,2524,-6955,1745188239294871374
516833,-33,23,96,2389,2449,-6977,1745188239294871374
517025,-28,11,83,2321,2401,-7033,1745188239294871374
517217,-24,6,73,2257,2361,-7129,1745188239294871374
517409,-29,3,66,2215,2362,-7202,1745188239294871374
517601,-41,0,63,2218,2409,-7214,1745188239294871374
517793,-54,-3,59,2237,2460,-7251,1745188239294871374
517985,-63,-9,52,2240,2510,-7272,1745188239294871374
518177,-67,-16,46,2241,2554,-7283,1745188239294871374
518369,-66,-21,45,2223,2603,-7254,1745188239294871374
518561,-61,-23,45,2185,2666,-7197,1745188239353081624
518753,-68,-10,47,2127,2721,-6928,1745188239353081624
518945,-101,-5,38,2128,2646,-7139,1745188239353081624
519137,-89,-14,26,2125,2696,-7306,1745188239353081624
519329,-78,-6,34,2079,2781,-7370,1745188239353081624
519521,-83,9,37,2092,2808,-7389,1745188239353081624
519713,-80,18,34,2094,2858,-7454,1745188239353081624
519905,-56,24,36,2088,2927,-7565,1745188239353081624
520097,-14,33,35,2081,2993,-7636,1745188239353081624
520289,16,45,35,2075,2975,-7666,1745188239353081624
520481,39,53,38,2064,2857,-7680,1745188239353081624
520673,56,62,47,2054,2747,-7713,1745188239353081624
520865,58,70,55,2069,2651,-7713,1745188239411542444
521057,50,78,62,2086,2577,-7668,1745188239411542444
521249,32,83,69,2091,2572,-7640,1745188239411542444
521441,19,88,77,2068,2632,-7654,1745188239411542444
521633,11,95,81,2038,2721,-7667,1745188239411542444
521825,13,102,81,2023,2802,-7659,1745188239411542444
522017,23,114,80,1991,2861,-7648,1745188239411542444
522209,35,126,83,2042,2906,-7614,1745188239411542444
522401,46,139,86,2116,2933,-7553,1745188239411542444
522593,59,149,90,2190,2934,-7445,1745188239411542444
522785,71,155,95,2264,2869,-7344,1745188239411542444
522977,80,154,99,2292,2748,-7267,1745188239411542444
523169,83,149,107,2269,2605,-7234,1745188239476193989
523361,85,143,113,2220,2521,-7213,1745188239476193989
523553,83,141,115,2181,2467,-7214,1745188239476193989
523745,75,143,114,2163,2471,-7243,1745188239476193989
523937,67,148,114,2166,2518,-7268,1745188239476193989
524129,58,153,117,2213,2581,-7283,1745188239476193989
524321,50,154,121,2280,2626,-7309,1745188239476193989
524513,46,147,120,2348,2631,-7344,1745188239476193989
524705,41,138,115,2382,2631,-7354,1745188239476193989
524897,35,130,115,2390,2642,-7345,1745188239476193989
525089,26,122,117,2389,2649,-7337,1745188239476193989
525281,20,113,123,2396,2651,-7325,1745188239476193989
525473,14,104,129,2414,2640,-7316,1745188239527970234
525665,6,97,133,2383,2670,-7317,1745188239527970234
525857,2,92,134,2369,2735,-7303,1745188239527970234
526049,-1,88,134,2377,2777,-7250,1745188239527970234
526241,0,84,134,2395,2794,-7164,1745188239527970234
526433,1,81,136,2418,2783,-7102,1745188239527970234
526625,0,77,139,2430,2769,-7099,1745188239527970234
526817,-4,73,140,2443,2773,-7088,1745188239527970234
527009,-7,71,141,2424,2830,-7131,1745188239527970234
527201,-6,69,143,2411,2851,-7139,1745188239527970234
527393,4,66,148,2396,2831,-7126,1745188239527970234
527585,18,64,156,2418,2801,-7163,1745188239527970234
527777,22,65,168,2438,2742,-7215,1745188239593924684
527969,23,61,173,2451,2634,-7277,1745188239593924684
528161,20,52,172,2469,2590,-7314,1745188239593924684
528353,17,49,172,2451,2587,-7347,1745188239593924684
528545,18,52,172,2467,2626,-7355,1745188239593924684
528737,18,52,174,2463,2660,-7299,1745188239593924684
528929,18,48,179,2473,2621,-7228,1745188239593924684
529121,19,45,185,2432,2573,-7204,1745188239593924684
529313,16,46,190,2233,2493,-7123,1745188239593924684
529505,-5,86,194,1759,2317,-7177,1745188239593924684
529697,-41,137,201,1410,2142,-7150,1745188239593924684
529889,-84,201,209,1295,2023,-7259,1745188239593924684
530081,-138,249,221,1565,1798,-7280,1745188239644686720
530273,-224,253,231,2391,1583,-7504,1745188239644686720
530465,-288,223,238,3063,1868,-7408,1745188239644686720
530657,-319,187,234,3278,2323,-7412,1745188239644686720
530849,-325,155,200,3238,2628,-7390,1745188239644686720
531041,-324,131,146,3030,2802,-7413,1745188239644686720
531233,-330,115,107,2848,2888,-7507,1745188239644686720
531425,-323,120,108,2695,2836,-7441,1745188239644686720
531617,-263,114,124,2467,2788,-7460,1745188239644686720
531809,-195,106,144,2284,2701,-7512,1745188239644686720
532001,-158,120,159,2215,2713,-7452,1745188239644686720
532193,-105,143,165,2170,2929,-7275,1745188239644686720
532385,-45,156,163,2387,2955,-7315,1745188239704269041
532577,-9,163,154,2661,2722,-7339,1745188239704269041
532769,-4,157,146,2779,2440,-7404,1745188239704269041
532961,2,153,148,2810,2296,-7394,1745188239704269041
533153,32,129,148,3344,2766,-7336,1745188239704269041
533345,84,48,149,4041,3100,-7257,1745188239704269041
533537,112,-45,152,4074,3095,-7244,1745188239704269041
533729,156,-127,124,3869,2791,-7288,1745188239704269041
533921,153,-187,81,3489,2340,-7402,1745188239704269041
534113,145,-213,69,2960,2332,-7454,1745188239704269041
534305,142,-218,80,2346,2464,-7429,1745188239704269041
534497,148,-201,92,2023,2751,-7326,1745188239704269041
534689,210,-145,98,1256,3806,-7031,1745188239763769278
534881,328,-36,79,669,4169,-6943,1745188239763769278
535073,398,88,37,495,3254,-7000,1745188239763769278
535265,375,191,34,1062,1940,-7111,1745188239763769278
535457,287,228,100,2071,979,-7141,1745188239763769278
535649,167,210,200,3098,660,-7201,1745188239763769278
535841,38,162,262,3751,954,-7233,1745188239763769278
536033,-81,98,235,4061,1589,-7177,1745188239763769278
536225,-148,33,140,4004,2297,-7103,1745188239763769278
536417,-160,-25,45,3688,2881,-7008,1745188239763769278
536609,-133,-69,-6,3237,3182,-7029,1745188239763769278
536801,-97,-97,-12,2803,3115,-6981,1745188239763769278
536993,-60,-111,8,2500,2856,-6958,1745188239820593395
537185,-26,-106,32,2362,2595,-6966,1745188239820593395
537377,-14,-86,45,2419,2320,-6952,1745188239820593395
537569,-17,-88,48,2680,2341,-6539,1745188239820593395
537761,-10,-124,56,2705,2087,-6448,1745188239820593395
537953,-77,-131,46,2557,1033,-6663,1745188239820593395
538145,-168,-129,17,2771,1194,-6749,1745188239820593395
538337,-168,-146,28,3030,2366,-6853,1745188239820593395
538529,-132,-184,54,2896,2905,-6977,1745188239820593395
538721,-126,-197,30,2446,2722,-7177,1745188239820593395
538913,-129,-174,-22,1988,2404,-7184,1745188239820593395
539105,-104,-137,-41,1821,2528,-7193,1745188239820593395
539297,-76,-111,-10,2012,2772,-7153,1745188239886601281
539489,-64,-104,29,2299,2926,-7201,1745188239886601281
539681,-61,-111,49,2532,2908,-7192,1745188239886601281
539873,-50,-123,45,2711,2867,-7093,1745188239886601281
540065,-36,-136,29,2718,2866,-7178,1745188239886601281
540257,-21,-148,21,2694,2876,-7252,1745188239886601281
540449,-10,-167,29,2634,2745,-7360,1745188239886601281
540641,-18,-168,39,2504,2521,-7213,1745188239886601281
540833,-75,-150,40,2474,2367,-7297,1745188239886601281
541025,-92,-148,37,2523,2227,-7827,1745188239886601281
541217,-73,-146,41,2626,2255,-8114,1745188239886601281
541409,-76,-147,29,2767,2176,-8116,1745188239886601281
581345,-167,-305,-133,2791,3524,-7204,1745188240950771039
581537,-253,-311,-121,2803,2701,-7369,1745188240950771039
581729,-284,-265,-102,2722,3474,-7589,1745188240950771039
581921,-272,-245,-111,2322,3180,-7587,1745188240950771039
582113,-319,-247,-161,2478,2754,-7385,1745188240950771039
582305,-288,-233,-139,2611,3015,-7472,1745188240950771039
582497,-236,-222,-147,2576,3715,-7778,1745188240950771039
582689,-230,-200,-220,2710,3735,-7916,1745188240950771039
582881,-224,-213,-257,2897,3407,-7806,1745188240950771039
583073,-199,-242,-244,2891,3562,-7707,1745188240950771039
583265,-173,-251,-233,2709,3799,-7658,1745188240950771039
583457,-163,-260,-239,2434,3665,-7625,1745188240950771039
583649,-150,-259,-234,2204,3390,-7576,1745188241011485797
583841,-141,-242,-224,2066,3295,-7570,1745188241011485797
584033,-144,-213,-231,1939,3416,-7571,1745188241011485797
584225,-141,-166,-247,1886,3633,-7554,1745188241011485797
584417,-127,-131,-264,2054,3834,-7502,1745188241011485797
584609,-111,-109,-265,2082,3837,-7424,1745188241011485797
584801,-94,-84,-249,1968,3887,-7314,1745188241011485797
584993,-63,-59,-220,1870,4019,-7278,1745188241011485797
585185,-15,-37,-184,1786,4084,-7269,1745188241011485797
585377,30,-16,-148,1687,4048,-7231,1745188241011485797
585569,79,-1,-100,1724,4105,-7217,1745188241011485797
585761,123,9,-56,1870,4186,-7198,1745188241011485797
585953,163,20,-32,1942,4201,-7201,1745188241065716187
586145,202,37,-24,1827,4132,-7208,1745188241065716187
586337,242,69,-22,1629,4045,-7171,1745188241065716187
586529,284,107,-12,1591,3983,-7104,1745188241065716187
586721,326,139,9,1743,3982,-7063,1745188241065716187
586913,363,168,30,1877,3883,-7017,1745188241065716187
587105,301,195,15,1948,2543,-7380,1745188241065716187
587297,348,273,-23,2107,4375,-6802,1745188241065716187
587489,451,285,52,2060,4400,-6745,1745188241065716187
587681,452,248,67,2327,3723,-6760,1745188241065716187
587873,475,229,52,2455,3267,-6621,1745188241065716187
588065,484,216,49,2533,2684,-6550,1745188241065716187
588257,388,169,42,3032,1141,-6410,1745188241125354392
588449,201,27,10,4054,687,-6418,1745188241125354392
588641,51,-70,-5,3352,1476,-6548,1745188241125354392
588833,-50,-78,-6,2421,2599,-6702,1745188241125354392
589025,-93,-60,-43,1665,3635,-6749,1745188241125354392
589217,-72,-16,-82,1284,4240,-6865,1745188241125354392
589409,-9,40,-84,1236,4410,-7000,1745188241125354392
589601,77,93,-54,1363,4314,-7071,1745188241125354392
589793,145,139,-4,1713,3907,-7338,1745188241125354392
589985,176,161,39,2189,3272,-7362,1745188241125354392
590177,201,151,52,2527,2738,-7270,1745188241125354392
590369,186,122,43,2693,2389,-7412,1745188241125354392
590561,130,79,37,2710,2068,-7248,1745188241184498904
590753,93,26,25,2505,1964,-7220,1745188241184498904
590945,59,-15,14,2218,2063,-7327,1745188241184498904
591137,24,-40,3,1920,2268,-7280,1745188241184498904
591329,-5,-57,-6,1636,2543,-7263,1745188241184498904
591521,-20,-62,-14,1436,2850,-7181,1745188241184498904
591713,-23,-49,-22,1326,3123,-7010,1745188241184498904
591905,-5,-25,-32,1302,3402,-6877,1745188241184498904
592097,15,5,-40,1396,3580,-6842,1745188241184498904
592289,31,32,-35,1633,3561,-6843,1745188241184498904
592481,51,51,-15,1920,3461,-6919,1745188241184498904
592673,69,67,9,2255,3303,-7016,1745188241184498904
592865,96,69,18,2552,3166,-7095,1745188241243051390
593057,114,58,12,2753,3036,-7128,1745188241243051390
593249,117,38,5,2830,2872,-7167,1745188241243051390
593441,117,14,-1,2819,2771,-7176,1745188241243051390
593633,116,-4,-7,2736,2743,-7120,1745188241243051390
593825,117,-13,-16,2617,2863,-7081,1745188241243051390
594017,119,-17,-24,2500,3034,-7080,1745188241243051390
594209,126,-19,-29,2420,3175,-7111,1745188241243051390
594401,139,-21,-32,2357,3326,-7134,1745188241243051390
594593,147,-19,-33,2335,3427,-7178,1745188241243051390
594785,154,-19,-31,2331,3509,-7188,1745188241243051390
594977,159,-23,-28,2363,3563,-7176,1745188241243051390
595169,150,-32,-25,2378,3535,-7153,1745188241304595151
595361,132,-47,-15,2379,3442,-7116,1745188241304595151
595553,109,-64,5,2365,3289,-7041,1745188241304595151
595745,86,-82,24,2378,3131,-6997,1745188241304595151
595937,58,-100,35,2352,3004,-6894,1745188241304595151
596129,30,-121,39,2323,2903,-6838,1745188241304595151
596321,7,-143,40,2222,2851,-6822,1745188241304595151
596513,-19,-160,43,2097,2889,-6857,1745188241304595151
596705,-49,-169,46,1975,2996,-6930,1745188241304595151
596897,-81,-175,47,1922,3133,-7016,1745188241304595151
597089,-110,-177,49,1849,3224,-7138,1745188241304595151
597281,-134,-176,52,1820,3262,-7305,1745188241304595151
597473,-147,-173,56,1812,3258,-7423,1745188241357988986
597665,-146,-170,63,1829,3214,-7502,1745188241357988986
597857,-142,-164,67,1835,3179,-7531,1745188241357988986
598049,-139,-154,67,1866,3122,-7564,1745188241357988986
598241,-136,-142,65,1891,3073,-7588,1745188241357988986
598433,-132,-131,65,1958,3000,-7618,1745188241357988986
598625,-125,-121,65,2025,2929,-7599,1745188241357988986
598817,-117,-108,60,2070,2904,-7582,1745188241357988986
599009,-103,-96,50,2116,2868,-7581,1745188241357988986
599201,-82,-82,40,2153,2857,-7551,1745188241357988986
599393,-60,-71,26,2168,2802,-7469,1745188241357988986
599585,-42,-60,12,2203,2771,-7388,1745188241357988986
599777,-25,-51,0,2233,2748,-7277,1745188241425088686
599969,-12,-42,-11,2281,2753,-7164,1745188241425088686
600161,0,-37,-24,2293,2742,-7069,1745188241425088686
600353,14,-35,-37,2315,2726,-7033,1745188241425088686
600545,27,-36,-49,2288,2711,-7041,1745188241425088686
600737,35,-35,-57,2259,2753,-7052,1745188241425088686
600929,38,-35,-65,2255,2832,-7093,1745188241425088686
601121,41,-34,-71,2262,2928,-7118,1745188241425088686
601313,41,-37,-76,2291,3015,-7102,1745188241425088686
601505,38,-44,-79,2309,3061,-7063,1745188241425088686
601697,34,-56,-79,2292,3080,-7004,1745188241425088686
601889,30,-70,-80,2243,3108,-6982,1745188241425088686
602081,19,-82,-83,2157,3194,-7004,1745188241474686149
602273,4,-91,-88,2081,3286,-7091,1745188241474686149
602465,-11,-98,-84,2033,3399,-7178,1745188241474686149
602657,-21,-106,-76,1983,3481,-7209,1745188241474686149
602849,-26,-114,-68,1971,3458,-7196,1745188241474686149
603041,-24,-120,-61,1944,3405,-7188,1745188241474686149
603233,-23,-126,-58,1909,3349,-7182,1745188241474686149
603425,-25,-129,-55,1879,3297,-7185,1745188241474686149
603617,-28,-128,-51,1872,3270,-7167,1745188241474686149
603809,-28,-124,-45,1890,3312,-7105,1745188241474686149
604001,-24,-115,-41,1959,3378,-7087,1745188241474686149
604193,-14,-104,-38,2074,3417,-7048,1745188241474686149
604385,-3,-89,-36,2246,3357,-7145,1745188241535284450
604577,14,-82,-31,2506,3231,-6968,1745188241535284450
604769,31,-86,-35,2722,3223,-7025,1745188241535284450
604961,10,-103,-49,2875,3120,-7051,1745188241535284450
605153,-14,-142,-72,2873,2978,-6961,1745188241535284450
605345,-30,-184,-89,2698,2771,-6903,1745188241535284450
605537,-24,-227,-106,2361,2589,-6957,1745188241535284450
605729,-16,-266,-126,1888,2444,-7147,1745188241535284450
605921,-30,-283,-132,1459,2280,-7396,1745188241535284450
606113,-50,-282,-124,1154,2192,-7510,1745188241535284450
606305,-73,-265,-107,1035,2299,-7489,1745188241535284450
606497,-105,-235,-97,1119,2625,-7391,1745188241535284450
606689,-149,-199,-99,1328,3070,-7208,1745188241593695062
606881,-177,-175,-109,1600,3530,-6964,1745188241593695062
607073,-176,-161,-124,1823,3991,-6880,1745188241593695062
607265,-176,-152,-140,2004,4200,-6868,1745188241593695062
607457,-156,-150,-158,2100,4127,-6918,1745188241593695062
607649,-114,-151,-167,2117,3791,-7048,1745188241593695062
607841,-71,-150,-163,2102,3327,-7151,1745188241593695062
608033,-45,-145,-152,2067,2822,-7215,1745188241593695062
608225,-41,-138,-142,2063,2402,-7269,1745188241593695062
608417,-48,-126,-137,2069,2256,-7226,1745188241593695062
608609,-74,-110,-141,2078,2392,-7146,1745188241593695062
608801,-109,-93,-158,2098,2721,-7092,1745188241593695062
608993,-137,-79,-183,2071,3121,-7152,1745188241652042602
609185,-154,-64,-201,2006,3454,-7243,1745188241652042602
609377,-142,-49,-210,1910,3680,-7341,1745188241652042602
609569,-107,-36,-215,1775,3800,-7445,1745188241652042602
609761,-66,-22,-216,1597,3774,-7575,1745188241652042602
609953,-38,-4,-210,1401,3575,-7737,1745188241652042602
610145,-24,20,-194,1251,3345,-7917,1745188241652042602
610337,-17,50,-170,1188,3223,-8027,1745188241652042602
610529,-18,85,-146,1176,3250,-8058,1745188241652042602
610721,-24,117,-129,1247,3369,-7992,1745188241652042602
610913,-24,140,-121,1273,3517,-7958,1745188241652042602
611105,-23,159,-116,1255,3631,-7922,1745188241652042602
611297,-12,171,-108,1187,3682,-7904,1745188241710096915
611489,2,184,-97,1073,3679,-7909,1745188241710096915
611681,19,201,-83,979,3609,-7919,1745188241710096915
611873,38,221,-69,921,3509,-7892,1745188241710096915
612065,49,244,-54,929,3418,-7822,1745188241710096915
612257,54,267,-40,1013,3371,-7695,1745188241710096915
612449,55,288,-26,1140,3359,-7559,1745188241710096915
612641,52,306,-12,1285,3381,-7426,1745188241710096915
612833,48,321,-3,1482,3417,-7291,1745188241710096915
613025,45,331,2,1662,3444,-7142,1745188241710096915
613217,42,336,5,1840,3454,-7053,1745188241710096915
613409,39,337,7,2017,3369,-6945,1745188241710096915
613601,40,333,8,2176,3280,-6886,1745188241769467102
613793,40,328,8,2314,3169,-6861,1745188241769467102
613985,37,321,5,2431,3066,-6839,1745188241769467102
614177,32,312,-3,2540,3018,-6807,1745188241769467102
614369,26,300,-14,2618,3017,-6762,1745188241769467102
614561,23,286,-26,2678,3089,-6721,1745188241769467102
614753,22,270,-39,2696,3131,-6680,1745188241769467102
614945,19,248,-54,2687,3202,-6612,1745188241769467102
615137,13,225,-67,2638,3195,-6579,1745188241769467102
615329,5,202,-77,2539,3172,-6615,1745188241769467102
615521,7,182,-87,2431,3123,-6675,1745188241769467102
615713,13,166,-95,2305,3118,-6766,1745188241769467102
615905,14,153,-99,2202,3125,-6831,1745188241828784269
616097,7,143,-98,2152,3157,-6951,1745188241828784269
616289,-3,133,-96,2076,3162,-7089,1745188241828784269
616481,-9,122,-96,2060,3148,-7155,1745188241828784269
616673,-7,110,-96,2023,3185,-7193,1745188241828784269
616865,-9,100,-95,1974,3284,-7177,1745188241828784269
617057,-16,89,-93,1937,3390,-7163,1745188241828784269
617249,-21,79,-89,1864,3442,-7147,1745188241828784269
617441,-27,69,-82,1805,3442,-7118,1745188241828784269
617633,-29,63,-74,1724,3387,-7137,1745188241828784269
617825,-26,62,-65,1654,3381,-7218,1745188241828784269
618017,-24,67,-55,1618,3431,-7342,1745188241828784269
618209,-28,76,-45,1640,3536,-7460,1745188241884881673
618401,-28,84,-34,1694,3626,-7521,1745188241884881673
618593,-23,90,-23,1809,3701,-7495,1745188241884881673
618785,-17,93,-12,1926,3717,-7428,1745188241884881673
618977,-14,90,-1,2018,3631,-7305,1745188241884881673
619169,-4,85,9,2057,3525,-7235,1745188241884881673
619361,9,83,20,2074,3439,-7175,1745188241884881673
619553,19,84,30,2087,3387,-7139,1745188241884881673
619745,27,88,36,2104,3349,-7117,1745188241884881673
619937,41,92,43,2149,3335,-7064,1745188241884881673
620129,63,98,50,2205,3386,-7084,1745188241884881673
620321,81,102,56,2274,3448,-7082,1745188241884881673
620513,95,101,61,2357,3449,-7073,1745188241944500399
620705,107,94,65,2415,3415,-7083,1745188241944500399
620897,106,81,69,2414,3364,-7062,1745188241944500399
621089,86,64,74,2394,3318,-7054,1745188241944500399
621281,54,46,79,2356,3294,-7058,1745188241944500399
621473,20,29,86,2310,3298,-7050,1745188241944500399
621665,-11,17,89,2255,3340,-7068,1745188241944500399
621857,-35,5,90,2195,3378,-7076,1745188241944500399
622049,-51,-6,92,2133,3401,-7119,1745188241944500399
622241,-60,-18,95,2078,3357,-7177,1745188241944500399
622433,-67,-28,95,2010,3311,-7235,1745188241944500399
622625,-74,-38,94,1963,3275,-7260,1745188241944500399
622817,-81,-46,94,1927,3171,-7273,1745188242002969032
623009,-88,-52,95,1888,3074,-7273,1745188242002969032
623201,-96,-57,94,1869,2954,-7275,1745188242002969032
623393,-103,-62,89,1848,2893,-7289,1745188242002969032
623585,-109,-63,83,1870,2879,-7311,1745188242002969032
623777,-115,-63,76,1913,2891,-7293,1745188242002969032
623969,-121,-63,68,1976,2919,-7296,1745188242002969032
624161,-125,-68,58,2052,2923,-7206,1745188242002969032
624353,-121,-76,46,2101,2935,-7135,1745188242002969032
624545,-113,-84,32,2155,2968,-7084,1745188242002969032
624737,-108,-89,15,2210,2973,-7005,1745188242002969032
624929,-103,-96,0,2266,2973,-6916,1745188242002969032
625121,-99,-105,-12,2313,2984,-6826,1745188242068856711
625313,-97,-115,-24,2372,2979,-6796,1745188242068856711
625505,-96,-128,-37,2440,2980,-6797,1745188242068856711
625697,-95,-142,-50,2506,2988,-6795,1745188242068856711
625889,-91,-159,-63,2554,3011,-6784,1745188242068856711
626081,-90,-179,-75,2584,3003,-6731,1745188242068856711
626273,-88,-202,-88,2585,3005,-6675,1745188242068856711
626465,-89,-227,-102,2538,2994,-6698,1745188242068856711
626657,-94,-250,-114,2462,3034,-6723,1745188242068856711
626849,-99,-270,-127,2392,3070,-6803,1745188242068856711
627041,-106,-288,-138,2312,3160,-6851,1745188242068856711
627233,-115,-304,-148,2271,3204,-6929,1745188242068856711
627425,-129,-324,-155,2224,3193,-7017,1745188242125603120
627617,-133,-344,-161,2185,3243,-7043,1745188242125603120
627809,-127,-363,-162,2130,3333,-7062,1745188242125603120
628001,-132,-382,-161,2093,3307,-7032,1745188242125603120
628193,-151,-405,-160,2043,3062,-6991,1745188242125603120
628385,-154,-431,-156,1968,2957,-6856,1745188242125603120
628577,-151,-452,-151,1891,3221,-6868,1745188242125603120
628769,-171,-468,-157,1829,3514,-6848,1745188242125603120
628961,-205,-487,-167,1770,3613,-6772,1745188242125603120
629153,-217,-506,-168,1651,3610,-6543,1745188242125603120
629345,-233,-510,-159,1518,3552,-6721,1745188242125603120
629537,-284,-518,-153,1475,3475,-6972,1745188242125603120
629729,-276,-523,-146,1410,3667,-6644,1745188242176453957
629921,-370,-457,-97,1390,3547,-6054,1745188242176453957
630113,-536,-430,-74,1642,2874,-6090,1745188242176453957
630305,-558,-442,-47,1894,2678,-6565,1745188242176453957
630497,-517,-456,1,2052,3049,-6943,1745188242176453957
630689,-511,-454,-21,2203,3651,-7511,1745188242176453957
630881,-481,-477,-75,2244,4211,-7882,1745188242176453957
631073,-384,-489,-101,2134,4619,-7789,1745188242176453957
631265,-296,-477,-107,2040,4773,-7601,1745188242176453957
631457,-236,-472,-120,1928,4704,-7517,1745188242176453957
631649,-186,-468,-113,1773,4584,-7341,1745188242176453957
631841,-173,-450,-78,1598,4363,-6977,1745188242176453957
632033,-195,-431,-39,1435,3985,-6753,1745188242240012543
632225,-218,-420,-19,1223,3706,-6596,1745188242240012543
632417,-263,-401,-2,969,3484,-6626,1745188242240012543
632609,-306,-384,1,724,3436,-6818,1745188242240012543
632801,-350,-357,2,478,3524,-7047,1745188242240012543
632993,-403,-318,11,298,3551,-7359,1745188242240012543
633185,-433,-276,14,152,3680,-7708,1745188242240012543
633377,-448,-229,20,87,3843,-8101,1745188242240012543
633569,-426,-177,26,98,4048,-8518,1745188242240012543
633761,-382,-124,28,132,4226,-8876,1745188242240012543
633953,-309,-79,24,198,4323,-9172,1745188242240012543
634145,-206,-28,16,212,4459,-9016,1745188242240012543
634337,-127,37,20,220,4422,-8567,1745188242311854075
634529,-60,100,24,260,4195,-8188,1745188242311854075
634721,-5,150,29,301,3910,-7982,1745188242311854075
634913,31,200,39,377,3665,-7894,1745188242311854075
635105,53,245,46,456,3439,-7852,1745188242311854075
635297,76,284,47,527,3317,-7817,1745188242311854075
635489,98,324,44,626,3346,-7732,1745188242311854075
635681,110,367,38,770,3464,-7581,1745188242311854075
635873,121,409,28,965,3618,-7476,1745188242311854075
636065,139,448,16,1236,3749,-7289,1745188242311854075
636257,171,477,5,1520,3868,-7098,1745188242311854075
636449,212,497,-6,1779,3954,-6983,1745188242311854075
636641,252,510,-20,1982,3963,-6870,1745188242351539337
636833,288,515,-39,2147,3879,-6773,1745188242351539337
637025,321,507,-53,2267,3788,-6606,1745188242351539337
637217,340,490,-65,2345,3670,-6435,1745188242351539337
637409,333,468,-79,2368,3484,-6307,1745188242351539337
637601,313,441,-98,2345,3313,-6199,1745188242351539337
637793,285,417,-114,2285,3168,-6158,1745188242351539337
637985,251,395,-124,2223,3061,-6175,1745188242351539337
638177,218,371,-134,2168,3013,-6099,1745188242351539337
638369,186,345,-145,2099,2987,-6140,1745188242351539337
638561,151,321,-156,2042,3056,-6172,1745188242351539337
638753,117,295,-168,1956,3179,-6274,1745188242351539337
638945,90,269,-181,1858,3343,-6427,1745188242414762874
639137,76,249,-196,1773,3525,-6625,1745188242414762874
639329,72,237,-205,1707,3741,-6870,1745188242414762874
639521,74,229,-205,1716,3958,-7079,1745188242414762874
639713,73,221,-201,1772,4129,-7211,1745188242414762874
639905,68,205,-194,1844,4183,-7239,1745188242414762874
640097,57,180,-185,1922,4108,-7221,1745188242414762874
640289,35,153,-175,1944,4009,-7168,1745188242414762874
640481,9,125,-166,1918,3903,-7116,1745188242414762874
640673,-14,100,-161,1813,3819,-7041,1745188242414762874
640865,-33,81,-164,1685,3770,-6953,1745188242414762874
641057,-44,65,-171,1566,3735,-6880,1745188242414762874
641249,-47,56,-175,1466,3663,-6840,1745188242480960707
641441,-44,51,-174,1356,3552,-6837,1745188242480960707
641633,-37,48,-170,1274,3435,-6819,1745188242480960707
641825,-28,46,-158,1232,3387,-6935,1745188242480960707
642017,-17,49,-141,1251,3367,-7041,1745188242480960707
642209,-10,53,-124,1286,3400,-7088,1745188242480960707
642401,-11,59,-110,1378,3451,-7198,1745188242480960707
642593,-12,64,-102,1489,3581,-7248,1745188242480960707
642785,-14,63,-94,1563,3763,-7308,1745188242480960707
642977,-26,60,-87,1623,3930,-7332,1745188242480960707
643169,-33,54,-78,1631,4068,-7333,1745188242480960707
643361,-34,52,-67,1633,4257,-7362,1745188242480960707
643553,-36,54,-54,1677,4439,-7302,1745188242550365958
