timestamp,gyr_x,gyr_y,gyr_z,acc_x,acc_y,acc_z,pkt_time_ns
234596,29,-18,3,1002,2039,-7943,1745175965831685506
234788,97,-50,-4,985,926,-7944,1745175965831685506
234980,-36,-36,-3,1177,1156,-7928,1745175965831685506
235172,-4,-23,5,874,1476,-7862,1745175965831685506
235364,-3,-23,4,891,1581,-7979,1745175965831685506
235556,-13,-32,1,1031,1612,-7920,1745175965831685506
235748,5,-26,0,1078,1513,-7945,1745175965831685506
235940,-3,-36,-1,1001,1452,-7935,1745175965831685506
236132,-5,-27,-2,953,1451,-7957,1745175965831685506
236324,2,-25,-2,913,1463,-7975,1745175965831685506
236516,-3,-21,-2,927,1495,-7977,1745175965831685506
236708,0,-15,-1,984,1520,-7986,1745175965831685506
236900,3,-16,-3,1010,1536,-7998,1745175965892729010
237092,3,-13,-7,990,1500,-8017,1745175965892729010
237284,7,-10,-14,1008,1488,-8055,1745175965892729010
237476,7,-10,-20,981,1477,-8022,1745175965892729010
237668,5,-3,-23,968,1396,-8048,1745175965892729010
237860,3,4,-22,1004,1286,-8056,1745175965892729010
238052,-6,8,-19,950,1298,-8017,1745175965892729010
238244,-25,8,-20,957,1241,-7986,1745175965892729010
238436,-43,7,-20,976,1235,-8007,1745175965892729010
238628,-59,7,-17,987,1252,-8003,1745175965892729010
238820,-78,7,-14,999,1264,-7942,1745175965892729010
239012,-97,2,-16,965,1281,-7921,1745175965892729010
239204,-105,3,-18,912,1432,-7958,1745175965944559579
239396,-107,6,-24,853,1560,-7974,1745175965944559579
239588,-103,15,-30,792,1631,-7931,1745175965944559579
239780,-95,25,-36,714,1627,-7558,1745175965944559579
239972,-201,54,-57,794,1323,-8534,1745175965944559579
240164,-44,42,-20,1033,2286,-7514,1745175965944559579
240356,-33,54,-15,818,2021,-7859,1745175965944559579
240548,-12,59,-28,945,2000,-8076,1745175965944559579
240740,40,48,-31,991,2009,-7874,1745175965944559579
240932,82,63,-30,1022,1975,-7920,1745175965944559579
241124,104,54,-23,1021,1947,-7907,1745175965944559579
241316,144,52,-19,1031,1884,-7890,1745175965944559579
241508,174,49,-20,1033,1796,-7870,1745175966007427754
241700,190,44,-21,1035,1619,-7844,1745175966007427754
241892,196,36,-16,1123,1363,-7805,1745175966007427754
242084,173,18,-12,1212,930,-7602,1745175966007427754
242276,123,4,-7,974,817,-7571,1745175966007427754
242468,104,16,2,1040,795,-8166,1745175966007427754
242660,60,1,1,1015,889,-8033,1745175966007427754
242852,12,8,-3,1016,982,-7827,1745175966007427754
243044,-23,4,-10,999,1110,-7913,1745175966007427754
243236,-39,2,-14,989,1271,-7959,1745175966007427754
243428,-50,1,-16,967,1442,-7934,1745175966007427754
243620,-55,0,-17,972,1533,-7909,1745175966007427754
243812,-49,-2,-17,972,1596,-7909,1745175966072727470
244004,-40,-2,-15,995,1618,-7933,1745175966072727470
244196,-29,-5,-13,1009,1620,-7957,1745175966072727470
244388,-20,-8,-10,1004,1621,-7959,1745175966072727470
244580,-11,-9,-7,965,1600,-7943,1745175966072727470
244772,-2,-9,-6,953,1547,-7937,1745175966072727470
244964,4,-8,-7,965,1489,-7962,1745175966072727470
245156,5,-6,-9,970,1460,-7970,1745175966072727470
245348,4,-3,-10,976,1419,-7947,1745175966072727470
245540,-1,0,-9,965,1386,-7943,1745175966072727470
245732,-7,3,-6,964,1383,-7934,1745175966072727470
245924,-12,4,-4,989,1412,-7921,1745175966072727470
246116,-17,5,0,997,1422,-7968,1745175966119396315
246308,-19,7,-1,992,1444,-7971,1745175966119396315
246500,-21,7,-1,970,1477,-7939,1745175966119396315
246692,-21,7,-1,993,1494,-7930,1745175966119396315
246884,-18,7,1,999,1509,-7950,1745175966119396315
247076,-13,8,1,963,1533,-7943,1745175966119396315
247268,-9,9,1,965,1540,-7942,1745175966119396315
247460,-4,11,1,973,1523,-7942,1745175966119396315
247652,0,11,1,990,1501,-7955,1745175966119396315
247844,3,11,1,981,1487,-7957,1745175966119396315
248036,5,13,0,973,1430,-7960,1745175966119396315
248228,5,14,0,953,1436,-7941,1745175966119396315
248420,0,16,0,947,1431,-7931,1745175966182734955
248612,-4,18,-1,968,1400,-7959,1745175966182734955
248804,-6,19,0,983,1377,-7925,1745175966182734955
248996,-9,23,-2,983,1366,-7897,1745175966182734955
249188,-20,22,-6,997,1356,-7919,1745175966182734955
249380,-28,22,-10,952,1322,-8085,1745175966182734955
249572,-34,27,-13,879,1383,-8002,1745175966182734955
249764,-39,40,-14,871,1447,-7924,1745175966182734955
249956,-43,44,-13,946,1467,-7898,1745175966182734955
250148,-41,43,-14,1024,1443,-7980,1745175966182734955
250340,-40,43,-16,1054,1457,-7927,1745175966182734955
250532,-39,44,-19,1068,1495,-7915,1745175966182734955
250724,-37,38,-21,1084,1510,-7924,1745175966236799461
250916,-33,32,-24,1064,1480,-7889,1745175966236799461
251108,-30,31,-27,1060,1453,-7922,1745175966236799461
251300,-27,30,-29,1030,1426,-7925,1745175966236799461
251492,-31,28,-34,1017,1404,-7931,1745175966236799461
251684,-37,25,-38,1025,1358,-7917,1745175966236799461
251876,-43,25,-40,1015,1332,-7912,1745175966236799461
252068,-50,27,-42,1016,1341,-7896,1745175966236799461
252260,-59,26,-43,1017,1352,-7871,1745175966236799461
252452,-66,25,-47,1014,1390,-7892,1745175966236799461
252644,-72,26,-51,1013,1402,-7926,1745175966236799461
252836,-76,27,-55,1012,1438,-7938,1745175966236799461
253028,-80,27,-61,1020,1469,-7885,1745175966303885411
253220,-80,30,-68,1012,1506,-7927,1745175966303885411
253412,-78,31,-75,1022,1561,-7909,1745175966303885411
253604,-79,30,-81,1046,1538,-7927,1745175966303885411
253796,-70,30,-85,1047,1562,-8001,1745175966303885411
253988,-64,30,-92,1023,1581,-7878,1745175966303885411
254180,-64,32,-99,1013,1558,-7924,1745175966303885411
254372,-58,28,-102,1009,1536,-7899,1745175966303885411
254564,-56,29,-104,1011,1494,-7930,1745175966303885411
254756,-57,26,-104,1024,1486,-7925,1745175966303885411
254948,-58,26,-105,1004,1480,-7899,1745175966303885411
255140,-59,27,-106,996,1475,-7896,1745175966303885411
255332,-58,26,-106,1002,1534,-7950,1745175966365562139
255524,-63,26,-105,988,1578,-7939,1745175966365562139
255716,-62,29,-106,982,1636,-7902,1745175966365562139
255908,-53,28,-104,991,1646,-7891,1745175966365562139
256100,-46,30,-104,1002,1618,-7915,1745175966365562139
256292,-44,29,-106,1043,1626,-7948,1745175966365562139
256484,-42,26,-108,1053,1648,-7909,1745175966365562139
256676,-37,24,-110,1067,1638,-7884,1745175966365562139
256868,-29,23,-110,1071,1591,-7899,1745175966365562139
257060,-25,20,-111,1058,1604,-7881,1745175966365562139
257252,-25,18,-113,1068,1563,-7902,1745175966365562139
257444,-26,15,-111,1046,1561,-7912,1745175966365562139
257636,-28,13,-108,1054,1523,-7923,1745175966411610468
257828,-37,17,-113,1044,1507,-7954,1745175966411610468
258020,-45,13,-114,1047,1513,-7899,1745175966411610468
258212,-43,10,-114,1044,1542,-7890,1745175966411610468
258404,-41,9,-112,1036,1599,-7904,1745175966411610468
258596,-42,7,-110,1031,1616,-7884,1745175966411610468
258788,-42,5,-108,1043,1652,-7887,1745175966411610468
258980,-39,3,-105,1024,1638,-7923,1745175966411610468
259172,-37,1,-104,1021,1634,-7935,1745175966411610468
259364,-36,-3,-100,1014,1645,-7890,1745175966411610468
259556,-34,-4,-97,980,1619,-7880,1745175966411610468
259748,-31,-6,-93,996,1608,-7909,1745175966411610468
259940,-35,-3,-91,967,1626,-7925,1745175966472426319
260132,-37,-2,-88,976,1656,-7940,1745175966472426319
260324,-36,1,-85,956,1663,-7926,1745175966472426319
260516,-36,0,-84,1004,1675,-7906,1745175966472426319
260708,-36,-1,-85,999,1654,-7899,1745175966472426319
260900,-31,0,-85,1009,1658,-7902,1745175966472426319
261092,-29,-1,-84,1019,1649,-7912,1745175966472426319
261284,-28,-4,-79,1029,1641,-7914,1745175966472426319
261476,-26,-6,-75,1007,1640,-7927,1745175966472426319
261668,-25,-8,-69,995,1635,-7887,1745175966472426319
261860,-24,-9,-64,1004,1640,-7898,1745175966472426319
262052,-25,-11,-60,977,1644,-7886,1745175966472426319
262244,-22,-15,-54,943,1660,-7881,1745175966528467474
262436,-20,-14,-51,992,1643,-7908,1745175966528467474
262628,-19,-8,-52,975,1662,-7943,1745175966528467474
262820,-19,-10,-49,1007,1687,-7906,1745175966528467474
263012,-17,-12,-47,1002,1688,-7910,1745175966528467474
263204,-14,-12,-48,973,1666,-7927,1745175966528467474
263396,-11,-12,-50,953,1652,-7929,1745175966528467474
263588,-9,-8,-50,937,1637,-7929,1745175966528467474
263780,-9,-6,-52,946,1622,-7928,1745175966528467474
263972,-9,-1,-50,958,1607,-7905,1745175966528467474
264164,-11,-1,-51,961,1606,-7919,1745175966528467474
264356,-13,2,-48,977,1592,-7906,1745175966528467474
264548,-18,0,-48,964,1607,-7913,1745175966586488923
264740,-19,3,-48,968,1605,-7912,1745175966586488923
264932,-20,2,-50,954,1617,-7908,1745175966586488923
265124,-22,3,-52,963,1615,-7896,1745175966586488923
265316,-24,3,-53,958,1622,-7927,1745175966586488923
265508,-24,7,-53,995,1604,-7981,1745175966586488923
265700,-27,4,-54,947,1645,-7918,1745175966586488923
265892,-30,5,-53,948,1616,-7839,1745175966586488923
266084,-28,9,-53,914,1586,-7886,1745175966586488923
266276,-27,12,-53,911,1572,-7950,1745175966586488923
266468,-32,15,-54,914,1542,-7995,1745175966586488923
266660,-39,18,-54,912,1518,-8011,1745175966586488923
266852,-47,22,-52,917,1521,-7927,1745175966649563243
267044,-55,28,-47,948,1527,-7895,1745175966649563243
267236,-58,31,-42,938,1591,-7890,1745175966649563243
267428,-61,33,-40,927,1649,-7914,1745175966649563243
267620,-58,36,-41,951,1698,-7946,1745175966649563243
267812,-54,40,-42,962,1710,-7980,1745175966649563243
268004,-54,41,-43,958,1723,-7862,1745175966649563243
268196,-52,43,-42,993,1695,-7858,1745175966649563243
268388,-46,43,-41,978,1677,-7920,1745175966649563243
268580,-48,44,-42,977,1660,-7983,1745175966649563243
268772,-50,45,-42,975,1675,-8003,1745175966649563243
268964,-53,45,-40,965,1670,-7917,1745175966649563243
269156,-58,47,-37,938,1656,-7861,1745175966707731826
269348,-59,48,-34,943,1644,-7841,1745175966707731826
269540,-59,49,-32,933,1657,-7866,1745175966707731826
269732,-61,52,-27,922,1680,-7919,1745175966707731826
269924,-65,53,-23,936,1719,-7913,1745175966707731826
270116,-67,57,-20,937,1729,-7905,1745175966707731826
270308,-66,58,-17,968,1742,-7909,1745175966707731826
270500,-64,62,-15,985,1763,-7912,1745175966707731826
270692,-62,62,-15,1029,1777,-7926,1745175966707731826
270884,-58,61,-15,1027,1788,-7902,1745175966707731826
271076,-54,60,-16,1032,1818,-7879,1745175966707731826
271268,-51,59,-14,1033,1784,-7855,1745175966707731826
271460,-43,59,-20,1000,1776,-7850,1745175966767336490
271652,-35,62,-19,988,1769,-7853,1745175966767336490
271844,-31,63,-19,985,1781,-7888,1745175966767336490
272036,-26,66,-19,1013,1747,-7911,1745175966767336490
272228,-22,67,-20,1022,1764,-7896,1745175966767336490
272420,-20,69,-24,1022,1743,-7910,1745175966767336490
272612,-16,70,-29,1018,1709,-7937,1745175966767336490
272804,-13,71,-35,1007,1698,-7909,1745175966767336490
272996,-11,73,-42,968,1692,-7885,1745175966767336490
273188,-11,79,-47,961,1685,-7902,1745175966767336490
273380,-11,84,-49,967,1662,-7911,1745175966767336490
273572,-12,89,-50,997,1646,-7900,1745175966767336490
273764,-15,94,-51,1015,1638,-7921,1745175966820862511
273956,-10,105,-44,1133,1615,-7919,1745175966820862511
274148,10,110,-34,1079,1696,-7994,1745175966820862511
274340,-7,105,-39,1041,1721,-7905,1745175966820862511
274532,-18,108,-48,1002,1722,-7947,1745175966820862511
274724,-15,117,-53,987,1711,-7893,1745175966820862511
274916,-9,126,-56,968,1740,-7888,1745175966820862511
275108,9,137,-51,1036,1752,-7881,1745175966820862511
275300,20,138,-50,1067,1780,-7898,1745175966820862511
275492,-6,138,-55,1117,1728,-7833,1745175966820862511
275684,-16,134,-55,1149,1682,-7886,1745175966820862511
275876,-7,137,-50,1186,1680,-7898,1745175966820862511
276068,5,135,-48,1134,1712,-7901,1745175966881163887
276260,-3,130,-56,1098,1734,-7874,1745175966881163887
276452,-7,131,-64,1068,1708,-7883,1745175966881163887
276644,-2,135,-63,1097,1698,-7847,1745175966881163887
276836,8,135,-56,1111,1726,-7867,1745175966881163887
277028,12,132,-48,1140,1725,-7872,1745175966881163887
277220,4,122,-47,1159,1727,-7857,1745175966881163887
277412,-12,117,-49,1194,1714,-7811,1745175966881163887
277604,-5,115,-42,1215,1713,-7830,1745175966881163887
277796,7,113,-34,1190,1738,-7849,1745175966881163887
277988,9,111,-30,1188,1745,-7885,1745175966881163887
278180,3,105,-36,1186,1735,-7881,1745175966881163887
278372,-6,102,-41,1185,1730,-7850,1745175966937768422
278564,-5,105,-36,1222,1728,-7830,1745175966937768422
278756,8,99,-26,1232,1765,-7842,1745175966937768422
278948,11,94,-17,1263,1777,-7835,1745175966937768422
279140,5,84,-14,1254,1774,-7831,1745175966937768422
279332,-5,81,-13,1267,1753,-7816,1745175966937768422
279524,-1,73,-10,1256,1744,-7810,1745175966937768422
279716,0,68,-8,1243,1725,-7800,1745175966937768422
279908,0,66,-7,1235,1730,-7827,1745175966937768422
280100,-1,62,-6,1244,1720,-7797,1745175966937768422
280292,-1,56,-4,1257,1744,-7789,1745175966937768422
280484,-4,48,0,1292,1748,-7830,1745175966937768422
280676,-5,45,6,1286,1753,-7847,1745175966996167003
280868,-5,48,17,1304,1769,-7814,1745175966996167003
281060,-5,45,27,1264,1752,-7833,1745175966996167003
281252,-1,40,28,1244,1776,-7810,1745175966996167003
281444,3,37,25,1249,1778,-7841,1745175966996167003
281636,5,37,23,1234,1753,-7862,1745175966996167003
281828,6,34,24,1240,1746,-7833,1745175966996167003
282020,6,33,24,1246,1718,-7865,1745175966996167003
282212,5,32,23,1230,1671,-7872,1745175966996167003
282404,1,35,22,1189,1627,-7872,1745175966996167003
282596,-5,42,18,1173,1590,-7864,1745175966996167003
282788,-10,42,17,1206,1572,-7879,1745175966996167003
282980,-16,40,18,1234,1581,-7868,1745175967056358381
283172,-25,39,18,1256,1573,-7890,1745175967056358381
283364,-36,40,17,1233,1571,-7900,1745175967056358381
283556,-45,42,16,1222,1579,-7892,1745175967056358381
283748,-51,45,13,1194,1588,-7889,1745175967056358381
283940,-59,49,10,1200,1604,-7874,1745175967056358381
284132,-64,52,8,1215,1615,-7885,1745175967056358381
284324,-71,53,6,1230,1630,-7881,1745175967056358381
284516,-78,56,7,1228,1667,-7874,1745175967056358381
284708,-82,57,6,1221,1695,-7855,1745175967056358381
284900,-82,58,7,1235,1713,-7845,1745175967056358381
285092,-81,60,8,1250,1744,-7844,1745175967056358381
285284,-83,61,9,1244,1767,-7871,1745175967122824388
285476,-84,63,10,1247,1798,-7855,1745175967122824388
285668,-82,65,11,1260,1802,-7831,1745175967122824388
285860,-77,65,13,1297,1795,-7848,1745175967122824388
286052,-72,65,17,1326,1786,-7825,1745175967122824388
286244,-68,66,19,1349,1808,-7801,1745175967122824388
286436,-66,68,20,1344,1836,-7791,1745175967122824388
286628,-64,71,21,1338,1847,-7805,1745175967122824388
286820,-61,72,23,1334,1891,-7801,1745175967122824388
287012,-56,69,28,1357,1899,-7823,1745175967122824388
287204,-48,65,32,1351,1873,-7851,1745175967122824388
287396,-42,65,36,1315,1870,-7828,1745175967122824388
287588,-40,67,39,1253,1864,-7842,1745175967171345195
287780,-35,70,43,1217,1867,-7852,1745175967171345195
287972,-25,72,43,1194,1857,-7826,1745175967171345195
288164,-17,74,40,1225,1822,-7863,1745175967171345195
288356,-13,74,38,1232,1800,-7885,1745175967171345195
288548,-11,73,37,1239,1792,-7865,1745175967171345195
288740,-11,76,36,1231,1787,-7858,1745175967171345195
288932,-10,83,36,1207,1784,-7846,1745175967171345195
289124,-11,92,33,1220,1750,-7853,1745175967171345195
289316,-8,97,30,1250,1720,-7869,1745175967171345195
289508,-8,100,26,1289,1721,-7846,1745175967171345195
289700,-12,105,24,1331,1681,-7903,1745175967171345195
289892,-19,108,22,1350,1668,-7876,1745175967232372502
290084,-24,111,22,1372,1666,-7859,1745175967232372502
290276,-30,115,20,1382,1662,-7854,1745175967232372502
290468,-35,119,17,1366,1676,-7840,1745175967232372502
290660,-36,129,14,1358,1659,-7837,1745175967232372502
290852,-31,138,13,1339,1696,-7907,1745175967232372502
291044,-37,147,6,1338,1682,-7894,1745175967232372502
291236,-49,155,-2,1375,1683,-7896,1745175967232372502
291428,-56,157,-8,1432,1638,-7880,1745175967232372502
291620,-63,161,-9,1466,1601,-7875,1745175967232372502
291812,-72,167,-12,1473,1566,-7902,1745175967232372502
292004,-86,177,-12,1455,1536,-7915,1745175967232372502
292196,-106,191,-6,1396,1522,-7889,1745175967287746892
292388,-114,199,-10,1351,1504,-7921,1745175967287746892
292580,-116,212,-23,1365,1490,-7961,1745175967287746892
292772,-130,224,-37,1393,1475,-7986,1745175967287746892
292964,-151,236,-48,1383,1452,-7992,1745175967287746892
293156,-176,250,-54,1360,1409,-8003,1745175967287746892
293348,-200,266,-53,1347,1405,-8018,1745175967287746892
293540,-222,287,-52,1339,1352,-8061,1745175967287746892
293732,-243,308,-58,1348,1341,-8136,1745175967287746892
293924,-266,332,-70,1320,1288,-8184,1745175967287746892
294116,-289,363,-83,1312,1260,-8284,1745175967287746892
294308,-314,399,-92,1275,1262,-8403,1745175967287746892
294500,-335,441,-98,1259,1314,-8502,1745175967353100045
294692,-349,488,-96,1262,1386,-8574,1745175967353100045
294884,-353,537,-89,1288,1457,-8678,1745175967353100045
295076,-339,587,-82,1335,1535,-8750,1745175967353100045
295268,-304,639,-73,1417,1615,-8778,1745175967353100045
295460,-247,693,-61,1431,1681,-8724,1745175967353100045
295652,-177,748,-43,1530,1672,-8760,1745175967353100045
295844,-108,786,-17,1684,1554,-8747,1745175967353100045
296036,-45,810,10,1858,1337,-8703,1745175967353100045
296228,4,816,29,2061,1077,-8652,1745175967353100045
296420,27,799,49,2280,797,-8670,1745175967353100045
296612,28,766,78,2454,502,-8753,1745175967353100045
296804,21,736,106,2557,293,-8937,1745175967405467744
296996,15,703,129,2596,95,-9029,1745175967405467744
297188,10,659,147,2588,-85,-9215,1745175967405467744
297380,3,618,148,2489,-174,-9261,1745175967405467744
297572,7,586,122,2316,-240,-9063,1745175967405467744
297764,-10,574,67,2282,-305,-9385,1745175967405467744
297956,-14,598,-34,2345,-364,-9507,1745175967405467744
298148,10,586,-140,2347,-212,-9221,1745175967405467744
298340,-58,534,-211,2369,-30,-9834,1745175967405467744
298532,-111,466,-238,2976,-248,-12371,1745175967405467744
298724,-92,332,-228,3332,-896,-10995,1745175967405467744
298916,119,347,-29,3795,-280,-12114,1745175967405467744
299108,626,420,437,4805,715,-11452,1745175967466466666
299300,1091,225,737,5265,-161,-11735,1745175967466466666
299492,1403,17,813,4796,-979,-11920,1745175967466466666
299684,1806,-111,657,3861,-787,-11869,1745175967466466666
299876,2105,-174,375,3811,-925,-11499,1745175967466466666
300068,2236,-204,222,4821,-2088,-11874,1745175967466466666
300260,2241,-277,355,5811,-3512,-11695,1745175967466466666
300452,2188,-390,766,6719,-4915,-11515,1745175967466466666
300644,2107,-541,1290,7252,-5933,-11589,1745175967466466666
300836,1990,-697,1713,7127,-6475,-11882,1745175967466466666
301028,1822,-850,1910,6602,-6714,-12239,1745175967466466666
301220,1595,-963,1931,6015,-6928,-12370,1745175967466466666
301412,1323,-1039,1905,5514,-7140,-12255,1745175967537783775
301604,1028,-1034,1936,5247,-7253,-12013,1745175967537783775
301796,720,-1002,2050,5098,-7106,-11776,1745175967537783775
301988,423,-975,2217,5213,-6711,-11510,1745175967537783775
302180,164,-966,2392,5483,-6148,-11239,1745175967537783775
302372,-30,-963,2552,5796,-5528,-10966,1745175967537783775
302564,-147,-991,2705,6195,-4975,-10632,1745175967537783775
302756,-201,-1052,2823,6624,-4435,-10370,1745175967537783775
302948,-202,-1089,2924,6664,-3940,-10238,1745175967537783775
303140,-169,-1098,3041,6638,-3494,-10109,1745175967537783775
303332,-113,-1103,3175,6606,-3135,-9996,1745175967537783775
303524,-57,-1092,3307,6555,-2837,-9854,1745175967537783775
303716,-11,-1072,3437,6606,-2687,-9616,1745175967585653546
303908,20,-1066,3558,6744,-2631,-9269,1745175967585653546
304100,31,-1054,3667,6874,-2654,-8889,1745175967585653546
304292,17,-1036,3767,6953,-2659,-8563,1745175967585653546
304484,-14,-1014,3853,6971,-2570,-8191,1745175967585653546
304676,-56,-989,3917,6949,-2423,-7975,1745175967585653546
304868,-93,-959,3957,6866,-2213,-7818,1745175967585653546
305060,-117,-930,3979,6809,-2040,-7267,1745175967585653546
305252,-117,-926,4004,6918,-1874,-7431,1745175967585653546
305444,-91,-904,4034,6901,-1450,-7175,1745175967585653546
305636,-96,-866,4067,6926,-1015,-7068,1745175967585653546
305828,-113,-834,4091,6917,-608,-7006,1745175967585653546
306020,-118,-788,4115,6933,-307,-7010,1745175967638460094
306212,-100,-744,4150,6995,-54,-6979,1745175967638460094
306404,-61,-693,4186,6987,203,-6958,1745175967638460094
306596,-22,-633,4212,6974,402,-7050,1745175967638460094
306788,10,-570,4231,6953,615,-6980,1745175967638460094
306980,29,-504,4249,6948,727,-7061,1745175967638460094
307172,47,-436,4281,6961,804,-6850,1745175967638460094
307364,73,-363,4318,6947,875,-6665,1745175967638460094
307556,92,-288,4352,6959,958,-6560,1745175967638460094
307748,102,-221,4376,6969,1063,-6466,1745175967638460094
307940,100,-162,4390,6915,1156,-6406,1745175967638460094
308132,97,-103,4400,6893,1243,-6339,1745175967638460094
308324,94,-47,4403,6872,1369,-6303,1745175967710535217
308516,87,9,4404,6889,1504,-6180,1745175967710535217
308708,68,51,4405,6962,1610,-6125,1745175967710535217
308900,51,71,4409,7052,1689,-5940,1745175967710535217
309092,51,74,4406,7131,1782,-5822,1745175967710535217
309284,51,63,4392,7193,1878,-5858,1745175967710535217
309476,44,41,4368,7163,2015,-5804,1745175967710535217
309668,37,15,4338,7093,2130,-5875,1745175967710535217
309860,35,-15,4306,6915,2324,-5780,1745175967710535217
310052,28,-42,4270,6731,2503,-5769,1745175967710535217
310244,-3,-75,4229,6530,2642,-5814,1745175967710535217
310436,-53,-109,4193,6375,2664,-5720,1745175967710535217
310628,-110,-143,4162,6215,2601,-5643,1745175967774255677
310820,-174,-175,4131,6009,2508,-5528,1745175967774255677
311012,-252,-202,4094,5752,2429,-5461,1745175967774255677
311204,-350,-225,4052,5500,2358,-5390,1745175967774255677
311396,-455,-240,4007,5223,2286,-5307,1745175967774255677
311588,-565,-249,3961,4938,2275,-5157,1745175967774255677
311780,-675,-250,3912,4644,2331,-5047,1745175967774255677
311972,-787,-241,3862,4403,2425,-4984,1745175967774255677
312164,-887,-229,3810,4173,2538,-4979,1745175967774255677
312356,-963,-221,3754,3946,2667,-4950,1745175967774255677
312548,-1005,-220,3689,3717,2836,-4853,1745175967774255677
312740,-1017,-217,3615,3524,2987,-4895,1745175967774255677
312932,-1007,-213,3531,3366,3142,-5025,1745175967818468190
313124,-968,-206,3440,3229,3297,-5228,1745175967818468190
313316,-898,-198,3341,3108,3478,-5356,1745175967818468190
313508,-802,-191,3235,2971,3666,-5573,1745175967818468190
313700,-695,-189,3126,2876,3816,-5728,1745175967818468190
313892,-576,-195,3014,2767,3963,-5678,1745175967818468190
314084,-455,-197,2903,2601,4085,-5750,1745175967818468190
314276,-345,-196,2797,2421,4176,-5858,1745175967818468190
314468,-248,-196,2697,2231,4193,-5869,1745175967818468190
314660,-163,-195,2600,1994,4162,-5856,1745175967818468190
314852,-97,-191,2506,1741,4107,-5869,1745175967818468190
315044,-53,-183,2421,1492,3974,-5973,1745175967818468190
315236,-31,-172,2343,1271,3821,-6081,1745175967879269613
315428,-29,-156,2270,1043,3706,-6191,1745175967879269613
315620,-47,-130,2199,810,3598,-6346,1745175967879269613
315812,-79,-107,2131,634,3466,-6459,1745175967879269613
316004,-117,-78,2066,502,3359,-6566,1745175967879269613
316196,-156,-46,2004,407,3286,-6658,1745175967879269613
316388,-197,-12,1948,337,3247,-6711,1745175967879269613
316580,-234,17,1892,309,3216,-6720,1745175967879269613
316772,-263,37,1835,280,3168,-6733,1745175967879269613
316964,-274,52,1777,271,3172,-6788,1745175967879269613
317156,-276,68,1712,214,3216,-6859,1745175967879269613
317348,-278,73,1638,141,3358,-6955,1745175967879269613
317540,-280,78,1557,101,3433,-7039,1745175967939451251
317732,-275,84,1472,97,3484,-7081,1745175967939451251
317924,-264,87,1386,130,3459,-7062,1745175967939451251
318116,-247,88,1309,173,3418,-7020,1745175967939451251
318308,-225,87,1244,191,3347,-6947,1745175967939451251
318500,-202,85,1191,202,3274,-6924,1745175967939451251
318692,-184,90,1145,176,3173,-6902,1745175967939451251
318884,-167,102,1106,173,3088,-6856,1745175967939451251
319076,-151,111,1069,188,2968,-6836,1745175967939451251
319268,-139,115,1033,218,2898,-6838,1745175967939451251
319460,-128,119,994,286,2813,-6716,1745175967939451251
319652,-120,110,940,303,2694,-6680,1745175967939451251
319844,-119,109,861,275,2577,-6869,1745175967994075752
320036,-127,121,758,256,2483,-6998,1745175967994075752
320228,-123,131,661,108,2410,-7081,1745175967994075752
320420,-103,180,612,-214,2346,-7088,1745175967994075752
320612,-69,253,623,-402,2212,-7102,1745175967994075752
320804,-17,299,680,-344,2098,-7162,1745175967994075752
320996,26,338,744,-135,1907,-7230,1745175967994075752
321188,54,369,788,84,1784,-7304,1745175967994075752
321380,70,395,809,231,1760,-7379,1745175967994075752
321572,76,410,802,371,1797,-7479,1745175967994075752
321764,78,408,764,476,1898,-7576,1745175967994075752
321956,91,394,702,536,2013,-7659,1745175967994075752
322148,115,378,622,546,2122,-7745,1745175968053064588
322340,150,360,538,519,2246,-7849,1745175968053064588
322532,194,343,461,447,2292,-7895,1745175968053064588
322724,235,332,405,400,2234,-7927,1745175968053064588
322916,273,325,371,387,2088,-7971,1745175968053064588
323108,308,320,351,456,1884,-7990,1745175968053064588
323300,335,306,335,540,1633,-8014,1745175968053064588
323492,348,284,318,657,1410,-8055,1745175968053064588
323684,346,255,299,727,1164,-8115,1745175968053064588
323876,334,230,280,735,1025,-8080,1745175968053064588
324068,307,211,269,733,878,-8112,1745175968053064588
324260,271,195,265,709,815,-8165,1745175968053064588
324452,230,181,263,683,766,-8178,1745175968119371118
324644,186,165,259,639,733,-8188,1745175968119371118
324836,143,150,254,616,690,-8227,1745175968119371118
325028,103,138,252,670,625,-8258,1745175968119371118
325220,69,126,250,688,545,-8267,1745175968119371118
325412,37,113,245,715,473,-8278,1745175968119371118
325604,8,101,229,736,410,-8282,1745175968119371118
325796,-23,91,203,735,381,-8294,1745175968119371118
325988,-58,85,164,729,380,-8353,1745175968119371118
326180,-97,87,120,651,445,-8387,1745175968119371118
326372,-133,85,92,622,504,-8407,1745175968119371118
326564,-158,78,82,645,549,-8415,1745175968119371118
326756,-168,61,79,687,563,-8450,1745175968176847051
326948,-163,39,71,706,628,-8430,1745175968176847051
327140,-152,25,57,712,663,-8410,1745175968176847051
327332,-137,12,44,700,691,-8422,1745175968176847051
327524,-119,4,32,688,683,-8454,1745175968176847051
327716,-98,-3,21,660,697,-8465,1745175968176847051
327908,-80,-12,15,642,686,-8437,1745175968176847051
328100,-67,-20,10,639,650,-8435,1745175968176847051
328292,-55,-24,9,606,608,-8423,1745175968176847051
328484,-41,-24,14,573,569,-8401,1745175968176847051
328676,-27,-18,23,545,550,-8403,1745175968176847051
328868,-16,-9,33,551,502,-8416,1745175968176847051
329060,-9,-2,45,564,458,-8382,1745175968227537734
329252,-1,-1,57,608,382,-8408,1745175968227537734
329444,5,1,63,649,329,-8412,1745175968227537734
329636,9,3,60,689,307,-8385,1745175968227537734
329828,10,4,53,704,286,-8391,1745175968227537734
330020,11,2,45,723,276,-8364,1745175968227537734
330212,15,-2,39,728,264,-8338,1745175968227537734
330404,20,-9,35,722,294,-8322,1745175968227537734
330596,26,-15,29,706,316,-8310,1745175968227537734
330788,30,-22,21,698,356,-8292,1745175968227537734
330980,31,-30,11,689,348,-8222,1745175968227537734
331172,29,-39,3,704,291,-8200,1745175968227537734
331364,26,-50,-3,707,231,-8187,1745175968288937850
331556,21,-61,-9,701,186,-8170,1745175968288937850
331748,12,-70,-14,680,134,-8168,1745175968288937850
331940,-3,-75,-20,645,110,-8166,1745175968288937850
332132,-21,-74,-26,608,78,-8194,1745175968288937850
332324,-34,-71,-32,607,64,-8202,1745175968288937850
332516,-43,-66,-37,596,79,-8190,1745175968288937850
332708,-51,-62,-40,579,120,-8187,1745175968288937850
332900,-57,-60,-41,582,187,-8122,1745175968288937850
333092,-60,-59,-41,590,189,-8039,1745175968288937850
333284,-60,-59,-39,616,169,-7986,1745175968288937850
333476,-55,-58,-38,645,143,-7987,1745175968288937850
333668,-45,-58,-39,661,136,-7980,1745175968350871972
333860,-34,-56,-41,635,131,-7993,1745175968350871972
334052,-27,-56,-44,620,150,-7998,1745175968350871972
334244,-25,-55,-46,638,136,-7975,1745175968350871972
334436,-21,-55,-47,630,105,-7979,1745175968350871972
334628,-11,-57,-51,638,66,-7987,1745175968350871972
334820,-1,-59,-57,628,43,-8004,1745175968350871972
335012,7,-62,-67,591,23,-8022,1745175968350871972
335204,10,-63,-76,555,18,-8039,1745175968350871972
335396,11,-61,-83,522,44,-8051,1745175968350871972
335588,12,-57,-85,484,38,-8040,1745175968350871972
335780,13,-51,-84,486,12,-8028,1745175968350871972
335972,14,-46,-82,520,-35,-8023,1745175968402849674
336164,16,-41,-79,541,-72,-8019,1745175968402849674
336356,16,-38,-78,553,-113,-8012,1745175968402849674
336548,14,-34,-76,556,-103,-8003,1745175968402849674
336740,11,-30,-76,506,-95,-8003,1745175968402849674
336932,10,-28,-76,458,-57,-7988,1745175968402849674
337124,11,-24,-75,418,-25,-7955,1745175968402849674
337316,11,-17,-74,415,-40,-7948,1745175968402849674
337508,10,-14,-74,455,-63,-7943,1745175968402849674
337700,10,-13,-72,491,-101,-7936,1745175968402849674
337892,11,-13,-71,520,-127,-7911,1745175968402849674
338084,12,-12,-72,536,-109,-7924,1745175968402849674
338276,12,-12,-76,553,-98,-7949,1745175968463414173
338468,11,-15,-83,559,-126,-7960,1745175968463414173
338660,11,-17,-91,563,-152,-7975,1745175968463414173
338852,15,-19,-98,590,-173,-7994,1745175968463414173
339044,17,-19,-102,548,-186,-8022,1745175968463414173
339236,20,-19,-106,536,-182,-8042,1745175968463414173
339428,23,-20,-110,494,-164,-8073,1745175968463414173
339620,28,-20,-113,477,-160,-8101,1745175968463414173
339812,33,-19,-114,479,-142,-8107,1745175968463414173
340004,38,-17,-114,492,-130,-8092,1745175968463414173
340196,44,-17,-111,508,-145,-8095,1745175968463414173
340388,53,-16,-105,518,-155,-8087,1745175968463414173
340580,59,-14,-98,547,-169,-8080,1745175968521138698
340772,60,-15,-92,589,-220,-8074,1745175968521138698
340964,58,-18,-86,605,-313,-8070,1745175968521138698
341156,56,-20,-79,598,-383,-8059,1745175968521138698
341348,54,-19,-73,553,-398,-8081,1745175968521138698
341540,49,-13,-69,507,-367,-8123,1745175968521138698
341732,41,-8,-66,455,-326,-8136,1745175968521138698
341924,36,-4,-65,435,-270,-8156,1745175968521138698
342116,35,0,-65,429,-243,-8156,1745175968521138698
342308,38,5,-66,450,-217,-8163,1745175968521138698
342500,43,10,-64,476,-226,-8181,1745175968521138698
342692,49,7,-64,542,-251,-8174,1745175968521138698
342884,54,5,-64,556,-282,-8153,1745175968592953667
343076,58,4,-65,584,-340,-8176,1745175968592953667
343268,63,4,-65,578,-379,-8173,1745175968592953667
343460,67,5,-65,578,-367,-8169,1745175968592953667
343652,67,5,-66,581,-346,-8183,1745175968592953667
343844,66,1,-69,548,-325,-8213,1745175968592953667
344036,64,-6,-72,532,-294,-8167,1745175968592953667
344228,63,-11,-73,528,-287,-8200,1745175968592953667
344420,62,-14,-72,517,-299,-8232,1745175968592953667
344612,63,-17,-71,532,-282,-8222,1745175968592953667
344804,64,-20,-68,530,-276,-8242,1745175968592953667
344996,61,-22,-64,558,-309,-8239,1745175968592953667
345188,54,-25,-59,568,-341,-8215,1745175968636977275
345380,47,-28,-52,601,-386,-8198,1745175968636977275
345572,42,-30,-45,594,-421,-8155,1745175968636977275
345764,37,-33,-41,569,-427,-8135,1745175968636977275
345956,31,-36,-42,544,-446,-8150,1745175968636977275
346148,22,-36,-44,496,-439,-8175,1745175968636977275
346340,13,-35,-47,466,-432,-8180,1745175968636977275
346532,4,-32,-51,451,-420,-8189,1745175968636977275
346724,-4,-28,-52,468,-397,-8169,1745175968636977275
346916,-9,-27,-51,476,-370,-8153,1745175968636977275
347108,-10,-29,-50,480,-365,-8126,1745175968636977275
347300,-8,-28,-46,490,-336,-8118,1745175968636977275
347492,-3,-29,-42,482,-312,-8134,1745175968698002655
347684,2,-29,-38,512,-306,-8149,1745175968698002655
347876,8,-30,-36,523,-312,-8151,1745175968698002655
348068,16,-31,-33,554,-297,-8152,1745175968698002655
348260,21,-32,-30,548,-301,-8157,1745175968698002655
348452,26,-35,-29,556,-339,-8136,1745175968698002655
348644,28,-39,-28,572,-359,-8136,1745175968698002655
348836,30,-43,-28,558,-390,-8128,1745175968698002655
349028,32,-42,-28,549,-388,-8116,1745175968698002655
349220,32,-40,-27,517,-375,-8144,1745175968698002655
349412,31,-38,-26,501,-358,-8163,1745175968698002655
349604,32,-37,-25,491,-350,-8131,1745175968698002655
349796,33,-37,-23,487,-366,-8149,1745175968759213658
349988,35,-36,-19,490,-411,-8176,1745175968759213658
350180,39,-33,-15,475,-404,-8183,1745175968759213658
350372,42,-29,-12,480,-394,-8175,1745175968759213658
350564,40,-25,-8,466,-383,-8166,1745175968759213658
350756,34,-22,-5,473,-387,-8151,1745175968759213658
350948,31,-20,-4,481,-400,-8129,1745175968759213658
351140,30,-19,-1,496,-378,-8126,1745175968759213658
351332,30,-18,1,515,-352,-8117,1745175968759213658
351524,28,-19,1,523,-328,-8101,1745175968759213658
351716,23,-22,1,532,-336,-8116,1745175968759213658
351908,21,-28,0,532,-354,-8115,1745175968759213658
352100,22,-34,-3,530,-353,-8112,1745175968812949990
352292,22,-40,-8,502,-323,-8143,1745175968812949990
352484,21,-44,-15,462,-303,-8148,1745175968812949990
352676,20,-46,-21,451,-308,-8144,1745175968812949990
352868,21,-49,-27,437,-326,-8143,1745175968812949990
353060,24,-51,-31,454,-357,-8160,1745175968812949990
353252,27,-52,-30,459,-383,-8162,1745175968812949990
353444,29,-50,-30,435,-376,-8169,1745175968812949990
353636,27,-46,-27,453,-367,-8148,1745175968812949990
353828,23,-42,-24,434,-347,-8134,1745175968812949990
354020,20,-39,-21,426,-350,-8118,1745175968812949990
354212,19,-39,-17,441,-344,-8088,1745175968812949990
354404,17,-37,-15,431,-349,-8081,1745175968874978434
354596,15,-36,-14,420,-357,-8076,1745175968874978434
354788,11,-33,-15,412,-342,-8088,1745175968874978434
354980,7,-31,-17,417,-316,-8115,1745175968874978434
355172,4,-29,-18,434,-311,-8089,1745175968874978434
355364,4,-29,-19,454,-323,-8042,1745175968874978434
355556,6,-34,-20,465,-320,-8049,1745175968874978434
355748,9,-37,-23,468,-336,-8038,1745175968874978434
355940,14,-39,-25,460,-354,-8035,1745175968874978434
356132,20,-40,-27,438,-343,-8026,1745175968874978434
356324,23,-41,-29,422,-363,-8009,1745175968874978434
356516,23,-40,-28,410,-373,-8019,1745175968874978434
356708,21,-39,-25,385,-386,-8018,1745175968929245178
356900,20,-36,-19,361,-380,-8012,1745175968929245178
357092,19,-33,-13,352,-391,-8034,1745175968929245178
357284,17,-30,-9,351,-394,-8038,1745175968929245178
357476,12,-26,-6,362,-409,-8050,1745175968929245178
357668,7,-23,-1,373,-416,-8043,1745175968929245178
357860,6,-22,2,384,-410,-8027,1745175968929245178
358052,6,-21,4,378,-380,-8026,1745175968929245178
358244,4,-19,5,368,-321,-8039,1745175968929245178
358436,1,-15,4,367,-293,-8037,1745175968929245178
358628,0,-13,3,398,-288,-8023,1745175968929245178
358820,3,-13,0,447,-314,-8002,1745175968929245178
359012,5,-18,-3,460,-337,-7982,1745175968990928781
359204,4,-21,-6,453,-333,-8018,1745175968990928781
359396,3,-24,-11,438,-339,-8029,1745175968990928781
359588,0,-25,-14,402,-315,-8018,1745175968990928781
359780,-4,-24,-17,358,-295,-8011,1745175968990928781
359972,-7,-22,-20,339,-277,-7995,1745175968990928781
360164,-8,-22,-21,335,-293,-7998,1745175968990928781
360356,-7,-21,-20,352,-299,-7998,1745175968990928781
360548,-4,-21,-18,374,-334,-8014,1745175968990928781
360740,-1,-20,-15,412,-344,-8021,1745175968990928781
360932,0,-18,-12,408,-338,-8021,1745175968990928781
361124,2,-16,-11,390,-318,-8027,1745175968990928781
361316,3,-15,-11,357,-299,-8027,1745175969046057913
361508,4,-14,-11,339,-289,-8018,1745175969046057913
361700,4,-14,-10,330,-296,-8022,1745175969046057913
361892,5,-13,-9,341,-326,-8026,1745175969046057913
362084,6,-11,-8,339,-326,-8027,1745175969046057913
362276,6,-9,-8,321,-335,-8045,1745175969046057913
362468,3,-6,-9,322,-304,-8053,1745175969046057913
362660,0,-4,-12,315,-285,-8039,1745175969046057913
362852,-2,-1,-14,320,-264,-8033,1745175969046057913
363044,-1,3,-15,335,-293,-8052,1745175969046057913
363236,3,5,-17,359,-295,-8051,1745175969046057913
363428,8,5,-19,368,-320,-8081,1745175969046057913
363620,14,5,-21,361,-309,-8074,1745175969111519503
363812,17,4,-24,341,-311,-8083,1745175969111519503
364004,18,6,-26,319,-299,-8087,1745175969111519503
364196,20,7,-29,305,-309,-8100,1745175969111519503
364388,23,7,-30,303,-304,-8101,1745175969111519503
364580,26,7,-31,300,-318,-8086,1745175969111519503
364772,28,9,-30,285,-320,-8094,1745175969111519503
364964,28,12,-26,318,-303,-8093,1745175969111519503
365156,26,13,-24,352,-309,-8072,1745175969111519503
365348,26,12,-22,378,-320,-8068,1745175969111519503
365540,26,12,-21,403,-325,-8071,1745175969111519503
365732,26,11,-21,411,-321,-8086,1745175969111519503
365924,24,9,-22,419,-338,-8086,1745175969168754136
366116,23,6,-24,419,-356,-8100,1745175969168754136
366308,25,5,-27,402,-339,-8093,1745175969168754136
366500,26,4,-30,392,-355,-8076,1745175969168754136
366692,25,1,-32,396,-370,-8068,1745175969168754136
366884,21,-1,-34,392,-381,-8074,1745175969168754136
367076,15,-3,-35,390,-400,-8047,1745175969168754136
367268,11,-4,-34,382,-408,-8074,1745175969168754136
367460,11,-5,-33,347,-405,-8084,1745175969168754136
367652,13,-5,-33,334,-372,-8102,1745175969168754136
367844,11,-3,-31,327,-372,-8107,1745175969168754136
368036,6,0,-29,341,-368,-8107,1745175969168754136
368228,5,3,-25,354,-368,-8104,1745175969221792870
368420,6,5,-19,360,-380,-8097,1745175969221792870
368612,9,7,-17,358,-344,-8097,1745175969221792870
368804,10,9,-16,376,-346,-8087,1745175969221792870
368996,9,10,-16,386,-370,-8050,1745175969221792870
369188,10,9,-16,400,-384,-8051,1745175969221792870
369380,13,8,-15,406,-404,-8040,1745175969221792870
369572,12,10,-15,390,-393,-8037,1745175969221792870
369764,8,12,-16,384,-363,-8039,1745175969221792870
369956,3,11,-17,382,-345,-8047,1745175969221792870
370148,-1,11,-19,383,-348,-8053,1745175969221792870
370340,-3,13,-22,393,-351,-8075,1745175969221792870
370532,-5,12,-25,416,-361,-8078,1745175969280685041
370724,-7,8,-28,421,-366,-8105,1745175969280685041
370916,-7,3,-29,416,-351,-8081,1745175969280685041
371108,-7,3,-32,373,-335,-8079,1745175969280685041
371300,-6,2,-33,352,-325,-8063,1745175969280685041
371492,-7,2,-34,340,-330,-8064,1745175969280685041
371684,-5,2,-36,361,-346,-8070,1745175969280685041
371876,-3,2,-35,398,-399,-8059,1745175969280685041
372068,-1,2,-34,403,-451,-8065,1745175969280685041
372260,1,1,-32,389,-470,-8064,1745175969280685041
372452,1,4,-30,349,-445,-8075,1745175969280685041
372644,-4,9,-27,331,-390,-8065,1745175969280685041
372836,-8,14,-24,330,-363,-8051,1745175969349417277
373028,-7,17,-20,344,-355,-8051,1745175969349417277
373220,-2,20,-16,366,-354,-8057,1745175969349417277
373412,4,21,-14,400,-355,-8041,1745175969349417277
373604,6,21,-12,439,-394,-8028,1745175969349417277
373796,4,19,-13,478,-432,-8050,1745175969349417277
373988,3,17,-14,454,-448,-8055,1745175969349417277
374180,3,16,-16,436,-462,-8079,1745175969349417277
374372,1,15,-18,395,-438,-8082,1745175969349417277
374564,-1,16,-22,338,-412,-8078,1745175969349417277
374756,-5,19,-25,341,-404,-8110,1745175969349417277
374948,-7,22,-27,331,-395,-8099,1745175969349417277
375140,-7,24,-28,354,-423,-8107,1745175969403066683
375332,-5,24,-27,390,-417,-8126,1745175969403066683
375524,-2,26,-26,388,-411,-8138,1745175969403066683
375716,2,27,-24,405,-375,-8147,1745175969403066683
375908,8,29,-21,440,-356,-8158,1745175969403066683
376100,13,31,-18,454,-347,-8161,1745175969403066683
376292,19,28,-15,452,-359,-8163,1745175969403066683
376484,27,23,-13,461,-396,-8157,1745175969403066683
376676,34,19,-14,408,-394,-8161,1745175969403066683
376868,38,19,-15,375,-397,-8172,1745175969403066683
377060,37,17,-18,341,-418,-8158,1745175969403066683
377252,34,15,-20,345,-437,-8145,1745175969403066683
377444,30,13,-19,351,-464,-8130,1745175969455272821
377636,24,14,-17,382,-483,-8124,1745175969455272821
377828,16,14,-15,406,-497,-8130,1745175969455272821
378020,7,12,-12,414,-512,-8128,1745175969455272821
378212,0,10,-11,428,-484,-8124,1745175969455272821
378404,-6,8,-10,421,-469,-8118,1745175969455272821
378596,-12,9,-11,398,-411,-8114,1745175969455272821
378788,-15,9,-12,400,-390,-8112,1745175969455272821
378980,-17,10,-12,398,-381,-8091,1745175969455272821
379172,-18,9,-13,412,-390,-8080,1745175969455272821
379364,-18,8,-14,427,-404,-8074,1745175969455272821
379556,-17,7,-14,432,-403,-8058,1745175969455272821
379748,-16,8,-14,413,-401,-8051,1745175969515755602
379940,-16,10,-15,405,-387,-8039,1745175969515755602
380132,-18,10,-17,370,-383,-8038,1745175969515755602
380324,-20,11,-18,382,-384,-8025,1745175969515755602
380516,-20,16,-17,396,-402,-8074,1745175969515755602
380708,-16,18,-16,436,-402,-8086,1745175969515755602
380900,-9,19,-15,466,-401,-8064,1745175969515755602
381092,-3,19,-15,473,-392,-8101,1745175969515755602
381284,-1,18,-16,443,-398,-8099,1745175969515755602
381476,1,17,-19,420,-365,-8095,1745175969515755602
381668,6,19,-21,380,-317,-8066,1745175969515755602
381860,13,19,-21,384,-313,-8055,1745175969515755602
382052,17,19,-19,403,-337,-8061,1745175969577566339
382244,19,17,-16,421,-393,-8040,1745175969577566339
382436,15,14,-14,464,-483,-8045,1745175969577566339
382628,9,12,-13,457,-522,-8053,1745175969577566339
382820,2,11,-12,408,-533,-8063,1745175969577566339
383012,-6,14,-13,370,-497,-8082,1745175969577566339
383204,-13,20,-13,323,-441,-8079,1745175969577566339
383396,-17,25,-13,316,-387,-8062,1745175969577566339
383588,-17,26,-12,356,-388,-8038,1745175969577566339
383780,-12,25,-11,400,-410,-8018,1745175969577566339
383972,-6,24,-10,446,-415,-8040,1745175969577566339
384164,-3,22,-11,448,-448,-8041,1745175969577566339
384356,-2,17,-13,440,-453,-8028,1745175969637881048
384548,-5,15,-16,407,-463,-8036,1745175969637881048
384740,-11,13,-18,374,-456,-8044,1745175969637881048
384932,-17,13,-16,371,-463,-8092,1745175969637881048
385124,-21,14,-13,384,-475,-8057,1745175969637881048
385316,-22,20,-11,407,-468,-8027,1745175969637881048
385508,-24,27,-10,410,-460,-8042,1745175969637881048
385700,-22,28,-12,398,-432,-8072,1745175969637881048
385892,-18,26,-15,381,-381,-8079,1745175969637881048
386084,-14,23,-17,381,-354,-8101,1745175969637881048
386276,-9,23,-15,415,-380,-8109,1745175969637881048
386468,-3,26,-12,454,-415,-8097,1745175969637881048
386660,3,26,-8,467,-465,-8092,1745175969693542832
386852,8,25,-7,448,-460,-8118,1745175969693542832
387044,9,26,-6,419,-438,-8097,1745175969693542832
387236,8,27,-5,417,-445,-8104,1745175969693542832
387428,4,29,-4,403,-438,-8109,1745175969693542832
387620,0,30,-5,389,-424,-8092,1745175969693542832
387812,-4,30,-6,421,-439,-8087,1745175969693542832
388004,-5,29,-4,450,-454,-8066,1745175969693542832
388196,-4,26,0,489,-458,-8082,1745175969693542832
388388,-7,23,1,473,-458,-8082,1745175969693542832
388580,-11,18,-1,435,-422,-8078,1745175969693542832
388772,-17,16,-5,392,-404,-8088,1745175969693542832
388964,-20,18,-8,383,-396,-8104,1745175969751865893
389156,-19,24,-9,394,-400,-8121,1745175969751865893
389348,-14,30,-7,419,-395,-8140,1745175969751865893
389540,-8,34,-6,449,-387,-8153,1745175969751865893
389732,-4,36,-5,458,-355,-8156,1745175969751865893
389924,1,37,-8,467,-333,-8140,1745175969751865893
390116,6,37,-10,450,-312,-8120,1745175969751865893
390308,12,35,-12,440,-308,-8112,1745175969751865893
390500,16,35,-15,410,-293,-8096,1745175969751865893
390692,19,34,-18,414,-295,-8084,1745175969751865893
390884,19,33,-21,428,-313,-8060,1745175969751865893
391076,16,32,-23,442,-337,-8056,1745175969751865893
391268,12,33,-25,463,-329,-8060,1745175969823446124
391460,10,32,-27,455,-313,-8038,1745175969823446124
391652,10,32,-32,421,-275,-8059,1745175969823446124
391844,12,33,-39,395,-228,-8036,1745175969823446124
392036,13,35,-47,397,-203,-7994,1745175969823446124
392228,17,36,-52,406,-204,-7947,1745175969823446124
392420,22,37,-54,436,-232,-7935,1745175969823446124
392612,28,40,-58,467,-256,-7970,1745175969823446124
392804,37,43,-63,488,-237,-7973,1745175969823446124
392996,46,48,-69,464,-222,-7986,1745175969823446124
393188,53,51,-76,465,-221,-7951,1745175969823446124
393380,57,54,-81,485,-256,-7922,1745175969823446124
393572,61,55,-82,475,-309,-7907,1745175969868702169
393764,68,58,-80,467,-338,-7894,1745175969868702169
393956,76,63,-78,437,-330,-7905,1745175969868702169
394148,81,66,-75,418,-316,-7900,1745175969868702169
394340,85,71,-74,399,-319,-7897,1745175969868702169
394532,91,73,-72,429,-340,-7910,1745175969868702169
394724,98,75,-70,473,-360,-7939,1745175969868702169
394916,106,78,-67,513,-379,-7970,1745175969868702169
395108,113,77,-64,539,-362,-7967,1745175969868702169
395300,116,73,-63,560,-399,-7973,1745175969868702169
395492,116,68,-63,570,-434,-7995,1745175969868702169
395684,116,64,-64,563,-471,-8009,1745175969868702169
395876,115,62,-64,550,-452,-8044,1745175969934607661
396068,112,58,-66,510,-440,-8063,1745175969934607661
396260,105,56,-69,460,-428,-8075,1745175969934607661
396452,95,56,-72,462,-454,-8098,1745175969934607661
396644,87,60,-73,476,-479,-8117,1745175969934607661
396836,82,64,-71,493,-473,-8110,1745175969934607661
397028,81,66,-68,527,-465,-8093,1745175969934607661
397220,79,65,-68,546,-430,-8079,1745175969934607661
397412,78,63,-70,531,-379,-8067,1745175969934607661
397604,79,59,-73,528,-347,-8071,1745175969934607661
397796,85,54,-77,530,-349,-8089,1745175969934607661
397988,94,51,-79,539,-346,-8097,1745175969934607661
398180,102,51,-82,512,-341,-8081,1745175969988515970
398372,103,50,-84,500,-330,-8059,1745175969988515970
398564,100,49,-87,519,-328,-8044,1745175969988515970
398756,97,49,-90,504,-308,-8039,1745175969988515970
398948,96,49,-93,495,-293,-8035,1745175969988515970
399140,97,48,-99,485,-265,-8032,1745175969988515970
399332,99,48,-106,475,-227,-8045,1745175969988515970
399524,104,46,-115,457,-171,-8037,1745175969988515970
399716,107,45,-124,435,-88,-8011,1745175969988515970
399908,107,45,-135,412,-32,-7997,1745175969988515970
400100,110,45,-146,380,47,-7984,1745175969988515970
400292,114,43,-158,370,133,-7941,1745175969988515970
400484,120,41,-172,349,211,-7919,1745175970039802273
400676,125,41,-187,344,315,-7863,1745175970039802273
400868,131,41,-202,343,427,-7818,1745175970039802273
401060,131,40,-221,359,559,-7752,1745175970039802273
401252,129,34,-242,363,642,-7662,1745175970039802273
401444,124,25,-265,329,755,-7526,1745175970039802273
401636,118,10,-290,286,863,-7393,1745175970039802273
401828,105,-7,-317,206,997,-7202,1745175970039802273
402020,82,-25,-345,117,1164,-6946,1745175970039802273
402212,42,-46,-377,32,1281,-6627,1745175970039802273
402404,-23,-67,-411,-73,1413,-6214,1745175970039802273
402596,-115,-88,-445,-146,1594,-5825,1745175970039802273
402788,-224,-91,-484,-187,1874,-5603,1745175970100745987
402980,-338,-49,-539,-125,2222,-5883,1745175970100745987
403172,-435,29,-605,118,2454,-6190,1745175970100745987
403364,-491,100,-676,533,2560,-6323,1745175970100745987
403556,-503,137,-736,896,2676,-6374,1745175970100745987
403748,-487,125,-791,1151,2869,-6364,1745175970100745987
403940,-460,92,-866,1199,3214,-6336,1745175970100745987
404132,-422,69,-981,1052,3670,-6331,1745175970100745987
404324,-362,63,-1129,804,4090,-6282,1745175970100745987
404516,-271,68,-1289,597,4355,-6281,1745175970100745987
404708,-158,69,-1444,484,4514,-6349,1745175970100745987
404900,-37,62,-1589,475,4570,-6436,1745175970100745987
405092,74,56,-1723,526,4553,-6519,1745175970156458655
405284,166,61,-1847,620,4544,-6592,1745175970156458655
405476,233,78,-1959,759,4485,-6702,1745175970156458655
405668,280,102,-2060,968,4438,-6784,1745175970156458655
405860,315,123,-2152,1207,4377,-6867,1745175970156458655
406052,342,138,-2241,1482,4327,-6949,1745175970156458655
406244,364,143,-2330,1757,4321,-6971,1745175970156458655
406436,379,138,-2423,1995,4301,-6952,1745175970156458655
406628,384,124,-2520,2201,4304,-6982,1745175970156458655
406820,380,106,-2620,2406,4273,-7021,1745175970156458655
407012,370,84,-2723,2624,4200,-7032,1745175970156458655
407204,361,57,-2820,2808,4108,-7012,1745175970156458655
407396,352,27,-2909,2962,4034,-6978,1745175970214831976
407588,337,-4,-2987,3077,4033,-6962,1745175970214831976
407780,310,-31,-3061,3218,4030,-6938,1745175970214831976
407972,273,-55,-3132,3379,3988,-6945,1745175970214831976
408164,230,-74,-3211,3542,3959,-7003,1745175970214831976
408356,189,-88,-3294,3673,3932,-7052,1745175970214831976
408548,152,-99,-3380,3841,3944,-6994,1745175970214831976
408740,114,-114,-3473,3969,3988,-6992,1745175970214831976
408932,76,-131,-3571,4120,3999,-6936,1745175970214831976
409124,40,-124,-3663,4286,3959,-6913,1745175970214831976
409316,11,-108,-3745,4398,3911,-6918,1745175970214831976
409508,-5,-94,-3813,4479,3888,-6853,1745175970214831976
409700,-14,-79,-3870,4565,3858,-6857,1745175970273393628
409892,-17,-60,-3923,4640,3822,-6963,1745175970273393628
410084,-10,-38,-3975,4669,3761,-7081,1745175970273393628
410276,12,-15,-4025,4670,3732,-7137,1745175970273393628
410468,52,14,-4065,4659,3692,-7127,1745175970273393628
410660,104,44,-4098,4692,3609,-7108,1745175970273393628
410852,159,71,-4128,4752,3534,-7023,1745175970273393628
411044,211,95,-4155,4834,3420,-6891,1745175970273393628
411236,256,118,-4175,4944,3283,-6796,1745175970273393628
411428,295,140,-4189,5007,3165,-6649,1745175970273393628
411620,334,166,-4201,5018,3054,-6558,1745175970273393628
411812,384,196,-4211,4978,3018,-6592,1745175970273393628
412004,448,231,-4212,4916,2981,-6646,1745175970344167513
412196,530,266,-4199,4852,2939,-6765,1745175970344167513
412388,628,293,-4178,4815,2862,-6860,1745175970344167513
412580,739,313,-4152,4806,2749,-7031,1745175970344167513
412772,856,325,-4130,4829,2593,-7160,1745175970344167513
412964,967,335,-4113,4895,2379,-7234,1745175970344167513
413156,1062,341,-4103,5027,2056,-7333,1745175970344167513
413348,1140,343,-4093,5172,1685,-7415,1745175970344167513
413540,1203,341,-4078,5260,1351,-7321,1745175970344167513
413732,1249,338,-4060,5348,1020,-7198,1745175970344167513
413924,1279,334,-4040,5435,680,-7247,1745175970344167513
414116,1296,319,-4017,5490,343,-7144,1745175970344167513
414308,1304,290,-3989,5500,13,-6952,1745175970395669074
414500,1303,255,-3956,5548,-314,-7109,1745175970395669074
414692,1292,226,-3925,5532,-577,-7463,1745175970395669074
414884,1279,206,-3894,5457,-745,-7652,1745175970395669074
415076,1257,195,-3857,5385,-926,-7778,1745175970395669074
415268,1226,180,-3814,5377,-1163,-7897,1745175970395669074
415460,1188,155,-3764,5383,-1478,-7946,1745175970395669074
415652,1152,123,-3706,5369,-1793,-7916,1745175970395669074
415844,1123,89,-3643,5346,-2182,-7874,1745175970395669074
416036,1100,47,-3585,5369,-2560,-7916,1745175970395669074
416228,1074,-1,-3556,5390,-2939,-7856,1745175970395669074
416420,1022,-57,-3586,5255,-3236,-7829,1745175970395669074
416612,930,-94,-3649,5040,-3513,-7778,1745175970448842234
416804,806,-117,-3674,4853,-3849,-7560,1745175970448842234
416996,659,-141,-3624,4683,-4109,-7274,1745175970448842234
417188,507,-155,-3510,4449,-4258,-6909,1745175970448842234
417380,363,-170,-3357,4197,-4241,-6760,1745175970448842234
417572,214,-168,-3199,4190,-4156,-6853,1745175970448842234
417764,51,-159,-3060,4355,-4029,-7053,1745175970448842234
417956,-108,-140,-2943,4510,-3888,-7393,1745175970448842234
418148,-231,-125,-2838,4671,-3753,-7748,1745175970448842234
418340,-302,-129,-2747,4853,-3683,-8018,1745175970448842234
418532,-326,-139,-2672,4939,-3683,-8271,1745175970448842234
418724,-320,-153,-2611,4973,-3738,-8456,1745175970448842234
418916,-302,-161,-2558,4970,-3842,-8570,1745175970509112204
419108,-288,-162,-2511,4895,-3941,-8619,1745175970509112204
419300,-277,-162,-2461,4751,-4064,-8550,1745175970509112204
419492,-264,-172,-2408,4598,-4184,-8457,1745175970509112204
419684,-249,-196,-2348,4373,-4282,-8289,1745175970509112204
419876,-240,-225,-2280,4105,-4306,-8197,1745175970509112204
420068,-241,-244,-2213,3847,-4268,-8141,1745175970509112204
420260,-264,-247,-2143,3629,-4173,-8072,1745175970509112204
420452,-314,-235,-2060,3511,-4122,-8057,1745175970509112204
420644,-375,-220,-1965,3510,-4124,-8131,1745175970509112204
420836,-434,-211,-1861,3629,-4166,-8203,1745175970509112204
421028,-484,-210,-1759,3774,-4211,-8328,1745175970509112204
421220,-529,-210,-1673,3898,-4227,-8480,1745175970586656756
421412,-569,-206,-1606,3908,-4196,-8603,1745175970586656756
421604,-602,-195,-1557,3837,-4136,-8781,1745175970586656756
421796,-633,-178,-1508,3673,-4067,-8942,1745175970586656756
421988,-668,-160,-1444,3475,-3978,-9060,1745175970586656756
422180,-694,-136,-1367,3317,-3894,-9127,1745175970586656756
422372,-710,-109,-1287,3197,-3828,-9131,1745175970586656756
422564,-721,-84,-1207,3117,-3756,-9148,1745175970586656756
422756,-726,-62,-1129,3063,-3633,-9114,1745175970586656756
422948,-724,-38,-1055,2995,-3473,-9110,1745175970586656756
423140,-719,-11,-984,2973,-3223,-9151,1745175970586656756
423332,-711,11,-914,2999,-2957,-9186,1745175970586656756
423524,-696,29,-844,3019,-2678,-9284,1745175970624243965
423716,-668,43,-776,3058,-2377,-9415,1745175970624243965
423908,-623,56,-713,3122,-2074,-9549,1745175970624243965
424100,-567,68,-660,3176,-1757,-9656,1745175970624243965
424292,-506,76,-615,3255,-1510,-9738,1745175970624243965
424484,-441,82,-576,3308,-1340,-9830,1745175970624243965
424676,-372,87,-538,3331,-1217,-9889,1745175970624243965
424868,-301,90,-499,3313,-1171,-9979,1745175970624243965
425060,-232,95,-462,3269,-1172,-10030,1745175970624243965
425252,-175,99,-426,3193,-1212,-10049,1745175970624243965
425444,-132,107,-395,3093,-1228,-10048,1745175970624243965
425636,-103,118,-366,2950,-1225,-10005,1745175970624243965
425828,-89,133,-335,2820,-1200,-9912,1745175970684272531
426020,-84,148,-301,2730,-1204,-9827,1745175970684272531
426212,-86,162,-267,2665,-1143,-9697,1745175970684272531
426404,-95,171,-231,2644,-1070,-9601,1745175970684272531
426596,-107,176,-194,2625,-954,-9498,1745175970684272531
426788,-121,175,-159,2583,-804,-9419,1745175970684272531
426980,-136,171,-131,2557,-663,-9336,1745175970684272531
427172,-150,165,-109,2510,-521,-9229,1745175970684272531
427364,-166,157,-90,2440,-423,-9163,1745175970684272531
427556,-176,150,-71,2383,-352,-9102,1745175970684272531
427748,-181,143,-51,2321,-277,-9063,1745175970684272531
427940,-186,135,-34,2261,-230,-9042,1745175970684272531
428132,-192,128,-16,2170,-131,-8975,1745175970754440953
428324,-199,123,1,2106,-77,-8884,1745175970754440953
428516,-202,120,15,2046,-12,-8783,1745175970754440953
428708,-203,119,29,1987,68,-8708,1745175970754440953
428900,-206,120,42,1956,166,-8614,1745175970754440953
429092,-208,119,54,1924,251,-8511,1745175970754440953
429284,-209,116,64,1878,313,-8428,1745175970754440953
429476,-206,114,71,1857,417,-8350,1745175970754440953
429668,-197,111,79,1818,514,-8278,1745175970754440953
429860,-184,108,85,1785,598,-8220,1745175970754440953
430052,-173,102,91,1770,655,-8138,1745175970754440953
430244,-163,96,95,1739,707,-8119,1745175970754440953
430436,-149,87,94,1700,763,-8093,1745175970811161424
430628,-127,79,92,1688,828,-8067,1745175970811161424
430820,-104,73,86,1698,856,-8038,1745175970811161424
431012,-88,66,83,1674,844,-7994,1745175970811161424
431204,-78,60,78,1638,843,-7946,1745175970811161424
431396,-70,55,77,1589,857,-7914,1745175970811161424
431588,-64,55,77,1572,871,-7901,1745175970811161424
431780,-58,56,78,1546,881,-7896,1745175970811161424
431972,-53,59,78,1528,894,-7892,1745175970811161424
432164,-50,64,76,1512,897,-7925,1745175970811161424
432356,-49,73,73,1512,927,-7942,1745175970811161424
432548,-48,82,70,1489,962,-7934,1745175970811161424
432740,-47,93,68,1506,991,-7915,1745175970864504531
432932,-44,103,66,1519,1017,-7888,1745175970864504531
433124,-41,111,65,1532,1067,-7880,1745175970864504531
433316,-35,118,63,1539,1105,-7840,1745175970864504531
433508,-28,126,61,1571,1112,-7769,1745175970864504531
433700,-21,130,61,1613,1100,-7739,1745175970864504531
433892,-20,130,59,1669,1049,-7665,1745175970864504531
434084,-22,126,58,1691,976,-7595,1745175970864504531
434276,-24,118,58,1748,894,-7641,1745175970864504531
434468,-42,89,59,1926,815,-7847,1745175970864504531
434660,-84,38,52,2027,825,-8052,1745175970864504531
434852,-133,-7,32,1944,948,-8137,1745175970864504531
435044,-165,-28,5,1808,1073,-8169,1745175971029304692
435236,-175,-34,-15,1711,1101,-8186,1745175971029304692
435428,-173,-40,-23,1670,1115,-8197,1745175971029304692
435620,-169,-46,-23,1641,1081,-8186,1745175971029304692
435812,-172,-52,-24,1580,1056,-8140,1745175971029304692
436004,-180,-51,-23,1534,1026,-8083,1745175971029304692
436196,-186,-48,-20,1501,1004,-7997,1745175971029304692
436388,-188,-43,-15,1498,997,-7958,1745175971029304692
436580,-186,-41,-6,1509,991,-7932,1745175971029304692
436772,-182,-40,1,1520,997,-7900,1745175971029304692
436964,-178,-41,6,1532,1002,-7880,1745175971029304692
437156,-176,-44,9,1544,1001,-7837,1745175971029304692
437348,-177,-48,9,1552,979,-7806,1745175971039830533
437540,-179,-53,9,1557,960,-7784,1745175971039830533
437732,-181,-57,9,1568,961,-7772,1745175971039830533
437924,-181,-62,15,1582,960,-7784,1745175971039830533
438116,-184,-68,21,1599,961,-7823,1745175971039830533
438308,-192,-73,24,1607,971,-7874,1745175971039830533
438500,-202,-76,25,1594,987,-7906,1745175971039830533
438692,-208,-77,25,1596,979,-7929,1745175971039830533
438884,-210,-78,26,1597,991,-7964,1745175971039830533
439076,-211,-77,29,1590,997,-8029,1745175971039830533
439268,-208,-75,34,1592,1058,-8132,1745175971039830533
439460,-204,-73,37,1595,1132,-8236,1745175971039830533
439652,-201,-69,39,1604,1217,-8307,1745175971051199075
439844,-196,-67,38,1618,1291,-8376,1745175971051199075
440036,-187,-66,34,1613,1347,-8406,1745175971051199075
440228,-175,-67,27,1610,1420,-8392,1745175971051199075
440420,-160,-68,22,1584,1453,-8341,1745175971051199075
440612,-143,-71,20,1593,1482,-8273,1745175971051199075
440804,-126,-74,18,1570,1484,-8200,1745175971051199075
440996,-110,-78,15,1550,1454,-8126,1745175971051199075
441188,-96,-81,13,1522,1396,-8068,1745175971051199075
441380,-83,-82,13,1504,1340,-7995,1745175971051199075
441572,-73,-83,16,1480,1291,-7937,1745175971051199075
441764,-66,-82,22,1465,1234,-7900,1745175971051199075
441956,-63,-79,30,1466,1160,-7899,1745175971097083552
442148,-64,-76,37,1469,1141,-7901,1745175971097083552
442340,-71,-72,40,1485,1118,-7884,1745175971097083552
442532,-79,-69,39,1483,1090,-7898,1745175971097083552
442724,-88,-66,37,1497,1095,-7925,1745175971097083552
442916,-99,-64,33,1501,1101,-7950,1745175971097083552
443108,-108,-61,29,1490,1107,-7941,1745175971097083552
443300,-115,-55,24,1462,1149,-8004,1745175971097083552
443492,-122,-47,19,1453,1190,-8004,1745175971097083552
443684,-126,-41,14,1462,1201,-7994,1745175971097083552
443876,-129,-39,10,1495,1234,-8006,1745175971097083552
444068,-129,-39,5,1519,1258,-8007,1745175971097083552
444260,-127,-38,1,1528,1278,-8001,1745175971156283949
444452,-122,-38,-4,1512,1286,-7989,1745175971156283949
444644,-118,-37,-10,1504,1306,-7994,1745175971156283949
444836,-114,-35,-16,1491,1329,-7994,1745175971156283949
445028,-109,-33,-18,1469,1326,-7963,1745175971156283949
445220,-102,-30,-19,1461,1341,-7955,1745175971156283949
445412,-95,-27,-17,1443,1349,-7958,1745175971156283949
445604,-88,-23,-18,1452,1343,-7975,1745175971156283949
445796,-84,-21,-19,1457,1333,-7978,1745175971156283949
445988,-83,-20,-22,1461,1343,-7953,1745175971156283949
446180,-80,-19,-21,1469,1340,-7933,1745175971156283949
446372,-74,-17,-20,1468,1334,-7914,1745175971156283949
446564,-68,-16,-19,1461,1334,-7912,1745175971220776172
446756,-64,-15,-20,1476,1313,-7904,1745175971220776172
446948,-62,-14,-21,1477,1287,-7910,1745175971220776172
447140,-64,-13,-24,1480,1278,-7924,1745175971220776172
447332,-66,-10,-27,1459,1269,-7937,1745175971220776172
447524,-69,-2,-32,1416,1324,-7935,1745175971220776172
447716,-69,5,-36,1402,1344,-7932,1745175971220776172
447908,-72,7,-37,1441,1347,-7924,1745175971220776172
448100,-75,5,-36,1490,1349,-7912,1745175971220776172
448292,-77,2,-33,1520,1343,-7901,1745175971220776172
448484,-77,-2,-31,1528,1348,-7904,1745175971220776172
448676,-77,-4,-35,1523,1376,-7888,1745175971220776172
448868,-78,-6,-41,1475,1406,-7899,1745175971272493981
449060,-78,-7,-49,1469,1417,-7881,1745175971272493981
449252,-77,-7,-51,1452,1399,-7888,1745175971272493981
449444,-75,-8,-50,1484,1367,-7887,1745175971272493981
449636,-74,-10,-47,1486,1371,-7880,1745175971272493981
449828,-73,-11,-45,1494,1377,-7869,1745175971272493981
450020,-71,-12,-46,1492,1388,-7878,1745175971272493981
450212,-69,-13,-50,1481,1388,-7872,1745175971272493981
450404,-67,-12,-53,1483,1411,-7897,1745175971272493981
450596,-64,-12,-54,1462,1416,-7898,1745175971272493981
450788,-60,-12,-55,1470,1408,-7884,1745175971272493981
450980,-56,-13,-55,1477,1406,-7893,1745175971272493981
451172,-52,-14,-55,1477,1369,-7892,1745175971331940938
451364,-50,-15,-55,1465,1354,-7890,1745175971331940938
451556,-52,-16,-55,1456,1331,-7895,1745175971331940938
451748,-55,-16,-56,1413,1342,-7892,1745175971331940938
451940,-57,-14,-58,1398,1339,-7904,1745175971331940938
452132,-61,-12,-60,1391,1327,-7913,1745175971331940938
452324,-65,-12,-60,1408,1315,-7922,1745175971331940938
452516,-72,-13,-59,1403,1321,-7915,1745175971331940938
452708,-79,-12,-59,1389,1343,-7923,1745175971331940938
452900,-85,-10,-58,1390,1357,-7891,1745175971331940938
453092,-91,-11,-56,1396,1367,-7864,1745175971331940938
453284,-96,-13,-53,1421,1388,-7855,1745175971331940938
453476,-102,-13,-51,1424,1412,-7849,1745175971397392475
453668,-105,-15,-49,1420,1444,-7866,1745175971397392475
453860,-106,-16,-47,1415,1490,-7880,1745175971397392475
454052,-104,-15,-45,1424,1524,-7881,1745175971397392475
454244,-100,-15,-43,1428,1562,-7881,1745175971397392475
454436,-96,-17,-41,1414,1589,-7898,1745175971397392475
454628,-89,-18,-40,1415,1607,-7874,1745175971397392475
454820,-81,-19,-40,1400,1600,-7874,1745175971397392475
455012,-71,-20,-38,1396,1614,-7897,1745175971397392475
455204,-62,-20,-37,1375,1605,-7885,1745175971397392475
455396,-54,-19,-36,1365,1586,-7887,1745175971397392475
455588,-47,-20,-32,1355,1551,-7897,1745175971397392475
455780,-42,-21,-29,1371,1528,-7896,1745175971458150045
455972,-39,-19,-27,1364,1513,-7872,1745175971458150045
456164,-36,-17,-23,1372,1513,-7876,1745175971458150045
456356,-35,-17,-19,1386,1512,-7870,1745175971458150045
456548,-35,-16,-16,1374,1512,-7857,1745175971458150045
456740,-35,-15,-14,1403,1523,-7872,1745175971458150045
456932,-34,-18,-13,1426,1533,-7898,1745175971458150045
457124,-34,-18,-12,1431,1535,-7892,1745175971458150045
457316,-31,-15,-11,1402,1542,-7886,1745175971458150045
457508,-28,-15,-10,1417,1533,-7882,1745175971458150045
457700,-24,-14,-9,1432,1535,-7872,1745175971458150045
457892,-20,-12,-8,1454,1526,-7861,1745175971458150045
458084,-16,-12,-5,1474,1513,-7842,1745175971513879745
458276,-13,-12,-3,1462,1523,-7855,1745175971513879745
458468,-11,-13,-3,1446,1547,-7872,1745175971513879745
458660,-8,-14,-7,1425,1564,-7879,1745175971513879745
458852,-3,-13,-13,1408,1556,-7894,1745175971513879745
459044,4,-11,-17,1407,1544,-7873,1745175971513879745
459236,10,-10,-18,1412,1525,-7888,1745175971513879745
459428,13,-10,-17,1430,1507,-7883,1745175971513879745
459620,17,-9,-16,1433,1472,-7883,1745175971513879745
459812,20,-9,-15,1444,1463,-7877,1745175971513879745
460004,23,-7,-14,1426,1442,-7888,1745175971513879745
460196,24,-8,-13,1422,1440,-7887,1745175971513879745
460388,23,-7,-13,1416,1427,-7902,1745175971563851215
460580,22,-6,-12,1415,1427,-7893,1745175971563851215
460772,20,-4,-13,1383,1442,-7878,1745175971563851215
460964,17,-2,-13,1391,1444,-7861,1745175971563851215
461156,14,-2,-12,1385,1439,-7885,1745175971563851215
461348,13,-1,-10,1378,1472,-7876,1745175971563851215
461540,12,1,-7,1369,1486,-7880,1745175971563851215
461732,11,1,-5,1370,1505,-7883,1745175971563851215
461924,13,1,-4,1387,1526,-7888,1745175971563851215
462116,14,1,-3,1380,1524,-7873,1745175971563851215
462308,17,1,-1,1383,1530,-7865,1745175971563851215
462500,19,1,0,1385,1534,-7878,1745175971563851215
462692,21,-1,1,1398,1528,-7880,1745175971626127261
462884,23,-1,2,1368,1531,-7868,1745175971626127261
463076,27,-2,5,1367,1526,-7871,1745175971626127261
463268,31,-3,8,1371,1501,-7879,1745175971626127261
463460,33,-3,10,1368,1503,-7890,1745175971626127261
463652,35,-2,11,1363,1515,-7881,1745175971626127261
463844,36,0,11,1367,1478,-7896,1745175971626127261
464036,36,-1,12,1371,1453,-7888,1745175971626127261
464228,35,0,13,1387,1433,-7882,1745175971626127261
464420,33,-1,15,1396,1424,-7869,1745175971626127261
464612,31,-2,17,1404,1413,-7870,1745175971626127261
464804,29,-4,18,1428,1406,-7880,1745175971626127261
464996,25,-5,18,1414,1411,-7869,1745175971681728576
465188,22,-5,16,1419,1394,-7883,1745175971681728576
465380,19,-4,14,1416,1374,-7890,1745175971681728576
465572,18,-4,12,1416,1388,-7875,1745175971681728576
465764,16,-6,11,1428,1368,-7881,1745175971681728576
465956,12,-6,10,1417,1372,-7878,1745175971681728576
466148,9,-7,9,1410,1369,-7885,1745175971681728576
466340,4,-9,9,1413,1379,-7890,1745175971681728576
466532,0,-8,8,1376,1381,-7901,1745175971681728576
466724,-3,-6,7,1339,1405,-7908,1745175971681728576
466916,-4,-5,7,1325,1418,-7896,1745175971681728576
467108,-6,-3,7,1338,1412,-7919,1745175971681728576
467300,-8,-1,9,1330,1425,-7901,1745175971740511112
467492,-9,2,11,1328,1462,-7890,1745175971740511112
467684,-9,4,13,1337,1470,-7908,1745175971740511112
467876,-7,4,16,1342,1495,-7905,1745175971740511112
468068,-5,6,17,1341,1497,-7900,1745175971740511112
468260,-2,7,16,1347,1496,-7904,1745175971740511112
468452,2,7,17,1366,1495,-7911,1745175971740511112
468644,6,9,17,1380,1498,-7903,1745175971740511112
468836,6,8,17,1393,1468,-7872,1745175971740511112
469028,8,8,17,1390,1440,-7887,1745175971740511112
469220,10,7,17,1382,1439,-7911,1745175971740511112
469412,11,8,17,1372,1447,-7903,1745175971740511112
469604,10,9,17,1358,1420,-7900,1745175971805949212
469796,9,11,16,1360,1407,-7892,1745175971805949212
469988,7,11,16,1383,1394,-7889,1745175971805949212
470180,5,12,17,1363,1394,-7888,1745175971805949212
470372,3,12,16,1372,1392,-7911,1745175971805949212
470564,1,14,16,1368,1423,-7919,1745175971805949212
470756,-1,17,15,1384,1418,-7907,1745175971805949212
470948,-2,18,14,1402,1423,-7888,1745175971805949212
471140,-2,20,12,1408,1426,-7876,1745175971805949212
471332,-3,20,12,1412,1445,-7875,1745175971805949212
471524,-1,19,14,1431,1466,-7862,1745175971805949212
471716,2,18,13,1430,1460,-7870,1745175971805949212
471908,4,16,10,1426,1489,-7873,1745175971864289981
472100,10,16,6,1393,1509,-7860,1745175971864289981
472292,17,16,2,1393,1506,-7868,1745175971864289981
472484,22,16,0,1399,1519,-7874,1745175971864289981
472676,26,16,-2,1394,1531,-7872,1745175971864289981
472868,32,15,-2,1395,1509,-7882,1745175971864289981
473060,39,16,-2,1393,1529,-7895,1745175971864289981
473252,47,18,-5,1392,1515,-7885,1745175971864289981
473444,56,18,-6,1398,1495,-7875,1745175971864289981
473636,63,17,-8,1403,1461,-7864,1745175971864289981
473828,68,15,-9,1420,1426,-7878,1745175971864289981
474020,70,15,-11,1421,1401,-7873,1745175971864289981
474212,71,12,-13,1405,1365,-7889,1745175971913778383
474404,69,11,-14,1408,1334,-7901,1745175971913778383
474596,64,9,-17,1382,1309,-7898,1745175971913778383
474788,59,9,-18,1384,1263,-7898,1745175971913778383
474980,52,12,-16,1347,1259,-7918,1745175971913778383
475172,46,18,-14,1338,1276,-7926,1745175971913778383
475364,39,23,-13,1345,1288,-7925,1745175971913778383
475556,38,28,-12,1364,1068,-7774,1745175971913778383
475748,52,32,-14,1347,1023,-7934,1745175971913778383
475940,12,41,-8,1322,1348,-8010,1745175971913778383
476132,-32,47,-5,1317,1612,-8004,1745175971913778383
476324,-25,42,-5,1401,1617,-7898,1745175971913778383
476516,17,32,-8,1497,1551,-7873,1745175971974163196
476708,36,26,-11,1549,1514,-7845,1745175971974163196
476900,36,21,-12,1502,1476,-7845,1745175971974163196
477092,38,16,-9,1452,1497,-7860,1745175971974163196
477284,43,13,-6,1375,1528,-7899,1745175971974163196
477476,45,12,-4,1358,1510,-7882,1745175971974163196
477668,57,10,-3,1371,1419,-7870,1745175971974163196
477860,68,9,-2,1404,1375,-7889,1745175971974163196
478052,69,10,-2,1387,1335,-7887,1745175971974163196
478244,64,11,-3,1386,1313,-7890,1745175971974163196
478436,60,10,-1,1362,1292,-7903,1745175971974163196
478628,53,10,-2,1516,540,-8052,1745175971974163196
478820,-401,61,-116,556,-7860,-8059,1745175972036509918
479012,-693,387,-108,-783,108,-8176,1745175972036509918
479204,-785,402,-96,-59,1812,-8042,1745175972036509918
479396,-839,466,-179,803,2315,-8056,1745175972036509918
479588,-848,445,-198,1486,2183,-7987,1745175972036509918
479780,-765,366,-175,2287,2164,-7712,1745175972036509918
479972,-678,305,-152,2586,2290,-7713,1745175972036509918
480164,-596,258,-122,2476,2299,-7692,1745175972036509918
480356,-534,213,-106,2211,2147,-7745,1745175972036509918
480548,-504,187,-125,2327,2301,-8331,1745175972036509918
480740,-518,123,-192,2384,1364,-7474,1745175972036509918
480932,-544,118,-272,1083,1212,-7761,1745175972036509918
481124,-528,161,-236,814,2306,-7667,1745175972089503340
481316,-467,174,-149,875,2597,-7553,1745175972089503340
481508,-413,212,-59,1183,2660,-7721,1745175972089503340
481700,-371,209,-13,1555,2674,-7766,1745175972089503340
481892,-329,197,-10,1738,2741,-7719,1745175972089503340
482084,-271,174,-18,1864,2759,-7673,1745175972089503340
482276,-201,139,-25,2140,2637,-7665,1745175972089503340
482468,-134,89,-32,2274,2583,-7633,1745175972089503340
482660,-63,42,-32,2144,2472,-7594,1745175972089503340
482852,9,12,-19,1708,2563,-7573,1745175972089503340
483044,80,9,11,1377,2478,-7628,1745175972089503340
483236,123,8,21,1470,2220,-7743,1745175972089503340
483428,140,15,13,1500,1833,-7707,1745175972149644510
483620,122,-8,-19,2123,1308,-7845,1745175972149644510
483812,107,-14,-27,1744,1564,-7700,1745175972149644510
484004,98,-16,-3,1493,1674,-7753,1745175972149644510
484196,95,3,19,1407,1896,-7813,1745175972149644510
484388,102,0,29,1456,2056,-7728,1745175972149644510
484580,131,-6,27,1566,2207,-7688,1745175972149644510
484772,168,-15,27,1728,2292,-7700,1745175972149644510
484964,205,-28,31,1842,2300,-7745,1745175972149644510
485156,239,-49,37,1878,2227,-7754,1745175972149644510
485348,268,-67,38,1806,2116,-7730,1745175972149644510
485540,289,-79,37,1705,1975,-7752,1745175972149644510
485732,302,-82,36,1565,1857,-7766,1745175972215676198
485924,306,-76,39,1471,1704,-7779,1745175972215676198
486116,303,-66,43,1411,1555,-7809,1745175972215676198
486308,290,-52,46,1379,1460,-7819,1745175972215676198
486500,270,-35,47,1350,1386,-7828,1745175972215676198
486692,243,-14,45,1304,1278,-7863,1745175972215676198
486884,206,9,43,1312,1086,-7881,1745175972215676198
487076,151,33,30,1320,614,-7886,1745175972215676198
487268,79,68,14,1341,571,-7944,1745175972215676198
487460,15,98,8,1427,903,-7927,1745175972215676198
487652,-38,113,9,1536,874,-7855,1745175972215676198
487844,-88,124,5,1554,1104,-7918,1745175972215676198
488036,-126,124,0,1659,1230,-7857,1745175972271896830
488228,-146,131,-2,1703,1568,-7884,1745175972271896830
488420,-154,119,-2,1733,1576,-7776,1745175972271896830
488612,-148,111,-7,1939,2048,-7829,1745175972271896830
488804,-115,72,-15,2002,2219,-7608,1745175972271896830
488996,-56,37,-17,1975,2565,-7601,1745175972271896830
489188,30,-4,2,1931,3122,-7581,1745175972271896830
489380,132,-54,20,2082,2894,-7586,1745175972271896830
489572,211,-100,12,1983,2715,-7688,1745175972271896830
489764,276,-131,6,1920,2435,-7672,1745175972271896830
489956,326,-146,-1,1619,2135,-7704,1745175972271896830
490148,355,-135,12,1415,1943,-7805,1745175972271896830
490340,372,-125,35,1323,1845,-7809,1745175972323151883
490532,374,-111,55,1567,1345,-7867,1745175972323151883
490724,340,-109,40,1530,1072,-7877,1745175972323151883
490916,292,-78,18,1429,1024,-7891,1745175972323151883
491108,252,-52,7,1191,1049,-7837,1745175972323151883
491300,220,-20,17,1107,895,-7917,1745175972323151883
491492,174,2,30,1186,765,-7909,1745175972323151883
491684,121,25,40,1245,797,-7856,1745175972323151883
491876,87,36,48,1603,1130,-7852,1745175972323151883
492068,78,26,48,1826,1606,-7782,1745175972323151883
492260,131,-4,69,1880,2813,-7686,1745175972323151883
492452,233,-68,122,2283,2544,-8028,1745175972323151883
492644,245,-107,103,2209,1834,-7885,1745175972383529925
492836,234,-125,51,1916,1347,-7787,1745175972383529925
493028,236,-129,8,1507,1128,-7771,1745175972383529925
493220,229,-105,-5,1167,1055,-7830,1745175972383529925
493412,203,-73,8,1030,1023,-7897,1745175972383529925
493604,167,-45,30,1047,1030,-7916,1745175972383529925
493796,133,-18,43,1170,1049,-7896,1745175972383529925
493988,104,3,42,1347,1106,-7879,1745175972383529925
494180,84,16,32,1489,1167,-7868,1745175972383529925
494372,71,20,21,1619,1257,-7863,1745175972383529925
494564,63,19,12,1678,1334,-7872,1745175972383529925
494756,60,14,9,1697,1375,-7874,1745175972383529925
494948,60,5,9,1709,1370,-7887,1745175972444845823
495140,62,-1,10,1673,1367,-7888,1745175972444845823
495332,62,-5,8,1634,1325,-7887,1745175972444845823
495524,59,-6,5,1586,1282,-7886,1745175972444845823
495716,56,-5,2,1553,1234,-7887,1745175972444845823
495908,50,-2,-3,1522,1209,-7885,1745175972444845823
496100,40,1,-9,1516,1161,-7881,1745175972444845823
496292,29,6,-15,1515,1131,-7889,1745175972444845823
496484,15,10,-19,1522,1158,-7889,1745175972444845823
496676,3,16,-20,1505,1204,-7881,1745175972444845823
496868,-7,21,-18,1520,1246,-7885,1745175972444845823
497060,-14,24,-17,1515,1304,-7886,1745175972444845823
497252,-18,26,-15,1530,1363,-7892,1745175972513035878
497444,-16,26,-13,1539,1343,-7872,1745175972513035878
497636,-6,29,-1,1487,1276,-7821,1745175972513035878
497828,7,34,19,1474,1259,-7812,1745175972513035878
498020,15,43,32,1472,1278,-7817,1745175972513035878
498212,18,51,37,1503,1300,-7827,1745175972513035878
498404,20,54,39,1542,1342,-7882,1745175972513035878
498596,22,57,39,1618,1416,-7908,1745175972513035878
498788,25,54,33,1649,1472,-7920,1745175972513035878
498980,28,47,24,1685,1505,-7881,1745175972513035878
499172,32,39,12,1609,1363,-7620,1745175972513035878
499364,11,18,5,1613,763,-7401,1745175972513035878
499556,-77,27,5,1394,201,-8210,1745175972557906770
499748,-139,81,3,1254,1371,-8124,1745175972557906770
499940,-124,97,2,1313,2081,-7915,1745175972557906770
500132,-135,76,-20,1553,1729,-7932,1745175972557906770
500324,-158,53,-54,1712,1365,-7846,1745175972557906770
500516,-137,48,-70,1776,1536,-7809,1745175972557906770
500708,-99,45,-65,1798,1762,-7821,1745175972557906770
500900,-71,24,-55,1801,1810,-7820,1745175972557906770
501092,-50,-1,-46,1764,1725,-7806,1745175972557906770
501284,-24,-12,-41,1660,1658,-7799,1745175972557906770
501476,3,-12,-38,1583,1594,-7795,1745175972557906770
501668,21,-12,-32,1597,1563,-7813,1745175972557906770
501860,33,-18,-23,1647,1540,-7796,1745175972625581516
502052,41,-25,-17,1620,1422,-7796,1745175972625581516
502244,44,-21,-19,1524,1307,-7848,1745175972625581516
502436,44,-11,-21,1458,1275,-7887,1745175972625581516
502628,39,-4,-20,1476,1303,-7911,1745175972625581516
502820,33,0,-15,1543,1329,-7912,1745175972625581516
503012,31,2,-9,1594,1366,-7898,1745175972625581516
503204,30,2,-6,1611,1388,-7869,1745175972625581516
503396,31,3,-8,1573,1353,-7870,1745175972625581516
503588,28,2,-11,1585,1279,-7861,1745175972625581516
503780,19,4,-12,1559,1188,-7853,1745175972625581516
503972,3,8,-12,1545,1134,-7861,1745175972625581516
504164,-15,13,-9,1515,1146,-7889,1745175972682142458
504356,-29,18,-7,1528,1233,-7878,1745175972682142458
504548,-35,19,-6,1576,1329,-7842,1745175972682142458
504740,-33,13,-6,1604,1449,-7823,1745175972682142458
504932,-28,5,-7,1635,1468,-7816,1745175972682142458
505124,-28,1,-10,1652,1399,-7818,1745175972682142458
505316,-29,-3,-11,1652,1402,-7807,1745175972682142458
505508,-24,-7,-7,1680,1490,-7814,1745175972682142458
505700,-15,-12,-1,1666,1568,-7849,1745175972682142458
505892,-4,-15,0,1646,1573,-7874,1745175972682142458
506084,5,-16,-4,1618,1508,-7886,1745175972682142458
506276,8,-14,-12,1554,1399,-7862,1745175972682142458
506468,7,-9,-18,1538,1348,-7867,1745175972731932836
506660,3,-6,-18,1543,1312,-7864,1745175972731932836
506852,-5,-1,-15,1505,1290,-7797,1745175972731932836
507044,-10,3,-10,1467,1362,-7739,1745175972731932836
507236,-5,4,-2,1485,1447,-7723,1745175972731932836
507428,0,-1,4,1594,1467,-7800,1745175972731932836
507620,-3,-11,5,1710,1408,-7828,1745175972731932836
507812,-8,-17,2,1724,1417,-7822,1745175972731932836
508004,-6,-19,0,1660,1430,-7863,1745175972731932836
508196,2,-19,-3,1622,1429,-7932,1745175972731932836
508388,9,-17,-3,1566,1423,-7962,1745175972731932836
508580,10,-12,-4,1543,1373,-7936,1745175972731932836
611492,-92,24,-3,2127,1596,-7930,1745175975413676724
611684,-200,56,8,2026,1050,-7683,1745175975413676724
611876,-49,24,-5,2178,1235,-7849,1745175975413676724
612068,-56,41,-3,2016,1249,-7775,1745175975413676724
612260,-53,30,-7,2081,1096,-7790,1745175975413676724
612452,-82,18,-13,2076,1197,-7745,1745175975413676724
612644,-80,37,-20,2130,1262,-7758,1745175975413676724
612836,-68,18,-24,2128,1305,-7759,1745175975413676724
613028,-68,18,-23,2125,1252,-7773,1745175975413676724
613220,-54,21,-22,2105,1235,-7783,1745175975413676724
613412,-59,10,-22,2074,1206,-7762,1745175975413676724
613604,-67,12,-26,2030,1233,-7798,1745175975413676724
613796,-84,10,-36,1936,1280,-7822,1745175975459726616
613988,-119,15,-41,2000,1209,-7801,1745175975459726616
614180,-122,24,-38,2100,1231,-7873,1745175975459726616
614372,-117,23,-37,2207,1271,-7903,1745175975459726616
614564,-114,27,-45,2164,1314,-8027,1745175975459726616
614756,-102,36,-53,2085,1285,-7982,1745175975459726616
614948,-80,45,-68,2078,1356,-7971,1745175975459726616
615140,-51,52,-86,2078,1536,-7960,1745175975459726616
615332,-19,54,-95,2147,1744,-7973,1745175975459726616
615524,15,53,-93,2263,1856,-7937,1745175975459726616
615716,51,37,-84,2333,1927,-7836,1745175975459726616
615908,27,28,-66,2278,1531,-7883,1745175975459726616
616100,95,38,-23,2324,2362,-7508,1745175975519567215
616292,183,-44,-6,2012,1719,-7700,1745175975519567215
616484,256,-28,28,2172,1619,-7795,1745175975519567215
616676,314,-50,43,2034,1666,-7696,1745175975519567215
616868,300,-69,47,2060,1503,-7741,1745175975519567215
617060,286,-74,51,1987,1579,-7754,1745175975519567215
617252,307,-70,65,2063,1612,-7656,1745175975519567215
617444,349,-87,69,2090,1452,-7646,1745175975519567215
617636,345,-97,48,2139,1130,-7582,1745175975519567215
617828,256,-107,15,1839,-105,-7192,1745175975519567215
618020,105,-50,-3,1381,-524,-7588,1745175975519567215
618212,20,8,7,1500,-49,-7764,1745175975519567215
618404,-13,50,1,1583,507,-7735,1745175975578387147
618596,-43,84,-13,1823,847,-7803,1745175975578387147
618788,-64,82,-12,2077,1100,-7808,1745175975578387147
618980,-80,64,0,2238,1356,-7771,1745175975578387147
619172,-97,46,6,2302,1514,-7730,1745175975578387147
619364,-73,22,11,2143,1609,-7667,1745175975578387147
619556,-31,0,46,1856,1663,-7681,1745175975578387147
619748,-1,-8,122,1796,1625,-7764,1745175975578387147
619940,16,-3,194,1900,1506,-7818,1745175975578387147
620132,26,3,235,1996,1342,-7785,1745175975578387147
620324,31,4,245,2163,1169,-7762,1745175975578387147
620516,31,6,219,2283,1054,-7773,1745175975578387147
620708,26,7,166,2346,1012,-7803,1745175975636796561
620900,17,-1,110,2287,982,-7817,1745175975636796561
621092,10,-10,68,2180,986,-7785,1745175975636796561
621284,2,-13,45,2091,961,-7756,1745175975636796561
621476,-7,-13,36,2043,951,-7766,1745175975636796561
621668,-16,-9,36,2034,980,-7766,1745175975636796561
621860,-25,-7,38,2066,1041,-7743,1745175975636796561
622052,-30,-8,42,2134,1108,-7752,1745175975636796561
622244,-33,-12,44,2195,1194,-7748,1745175975636796561
622436,-28,-21,42,2215,1264,-7768,1745175975636796561
622628,-18,-30,34,2202,1311,-7776,1745175975636796561
622820,-5,-39,20,2199,1300,-7781,1745175975636796561
623012,5,-46,6,2149,1256,-7782,1745175975694888634
623204,12,-50,-3,2089,1191,-7773,1745175975694888634
623396,15,-51,-8,2044,1121,-7780,1745175975694888634
623588,14,-49,-9,2003,1076,-7780,1745175975694888634
623780,13,-45,-12,1981,1077,-7806,1745175975694888634
623972,8,-40,-14,1972,1099,-7805,1745175975694888634
624164,4,-35,-18,1950,1094,-7815,1745175975694888634
624356,0,-29,-23,1965,1095,-7827,1745175975694888634
624548,-8,-24,-29,1963,1104,-7842,1745175975694888634
624740,-23,-21,-35,1960,1091,-7815,1745175975694888634
624932,-31,-17,-37,2003,1074,-7798,1745175975694888634
625124,-21,-13,-32,2014,1104,-7808,1745175975694888634
625316,-18,-13,-30,2023,1129,-7778,1745175975760329130
625508,-25,-13,-35,2035,1136,-7786,1745175975760329130
625700,-28,-12,-38,2047,1117,-7817,1745175975760329130
625892,-30,-12,-44,2007,1111,-7823,1745175975760329130
626084,-35,-12,-51,1988,1090,-7805,1745175975760329130
626276,-43,-9,-57,1972,1075,-7803,1745175975760329130
626468,-50,-6,-61,1971,1025,-7790,1745175975760329130
626660,-55,-10,-59,1879,1045,-7727,1745175975760329130
626852,-69,-3,-54,2005,973,-7774,1745175975760329130
627044,-77,10,-54,2014,1021,-7879,1745175975760329130
627236,-84,6,-46,1994,1137,-7783,1745175975760329130
627428,-94,7,-50,1978,1211,-7789,1745175975760329130
627620,-90,12,-54,1954,1272,-7777,1745175975810070707
627812,-82,11,-54,2001,1282,-7773,1745175975810070707
628004,-80,12,-54,2041,1266,-7798,1745175975810070707
628196,-78,11,-48,2045,1300,-7799,1745175975810070707
628388,-75,8,-43,2033,1309,-7794,1745175975810070707
628580,-69,8,-40,2020,1328,-7803,1745175975810070707
628772,-60,8,-39,2016,1323,-7795,1745175975810070707
628964,-53,7,-39,2015,1318,-7784,1745175975810070707
629156,-49,6,-37,2044,1276,-7775,1745175975810070707
629348,-47,7,-35,2065,1276,-7781,1745175975810070707
629540,-46,3,-33,2063,1280,-7754,1745175975810070707
629732,-43,-3,-32,2060,1299,-7740,1745175975810070707
629924,-39,-6,-32,2058,1299,-7745,1745175975868647828
630116,-33,-10,-31,2066,1312,-7728,1745175975868647828
630308,-28,-15,-31,2064,1313,-7743,1745175975868647828
630500,-26,-18,-31,2076,1292,-7755,1745175975868647828
630692,-24,-22,-31,2061,1279,-7777,1745175975868647828
630884,-24,-27,-32,2040,1274,-7762,1745175975868647828
631076,-23,-30,-33,2028,1269,-7764,1745175975868647828
631268,-24,-32,-34,2010,1252,-7774,1745175975868647828
631460,-23,-32,-34,2002,1248,-7786,1745175975868647828
631652,-24,-33,-34,1999,1254,-7785,1745175975868647828
631844,-26,-34,-33,1977,1251,-7788,1745175975868647828
632036,-29,-32,-32,1979,1240,-7783,1745175975868647828
632228,-26,-30,-30,1986,1251,-7803,1745175975927212189
632420,-25,-32,-27,1980,1279,-7796,1745175975927212189
632612,-25,-31,-25,1976,1302,-7788,1745175975927212189
632804,-24,-32,-22,1966,1295,-7798,1745175975927212189
632996,-22,-30,-18,1963,1305,-7813,1745175975927212189
633188,-17,-29,-14,1982,1312,-7810,1745175975927212189
633380,-13,-29,-12,1981,1319,-7784,1745175975927212189
633572,-10,-29,-9,1978,1329,-7788,1745175975927212189
633764,-5,-29,-8,1974,1325,-7791,1745175975927212189
633956,2,-30,-6,1988,1343,-7787,1745175975927212189
634148,9,-32,-6,1993,1322,-7785,1745175975927212189
634340,13,-32,-8,2008,1313,-7793,1745175975927212189
634532,16,-34,-9,2010,1283,-7790,1745175975990904628
634724,16,-36,-11,1979,1269,-7794,1745175975990904628
634916,16,-36,-12,1966,1230,-7796,1745175975990904628
635108,14,-36,-11,1958,1236,-7795,1745175975990904628
635300,8,-36,-10,1948,1197,-7793,1745175975990904628
635492,2,-34,-11,1933,1183,-7804,1745175975990904628
635684,-3,-31,-9,1941,1173,-7806,1745175975990904628
635876,-4,-29,-9,1934,1208,-7794,1745175975990904628
636068,-8,-27,-8,1947,1224,-7785,1745175975990904628
636260,-9,-27,-8,1945,1266,-7777,1745175975990904628
636452,-9,-26,-7,1954,1301,-7789,1745175975990904628
636644,-9,-28,-6,1947,1308,-7785,1745175975990904628
636836,-10,-31,-6,1939,1313,-7782,1745175976107193930
637028,-7,-29,-4,1956,1327,-7794,1745175976107193930
637220,6,-29,0,1956,1334,-7811,1745175976107193930
637412,14,-30,1,1951,1345,-7789,1745175976107193930
637604,18,-31,-2,1968,1324,-7817,1745175976107193930
637796,23,-32,-2,1939,1303,-7820,1745175976107193930
637988,26,-33,-3,1926,1263,-7800,1745175976107193930
638180,26,-32,-3,1914,1218,-7800,1745175976107193930
638372,24,-29,-2,1908,1206,-7809,1745175976107193930
638564,20,-27,2,1887,1168,-7811,1745175976107193930
638756,14,-23,3,1899,1171,-7804,1745175976107193930
638948,9,-20,4,1887,1169,-7823,1745175976107193930
639140,5,-18,4,1888,1180,-7840,1745175976114832975
639332,-1,-15,4,1900,1204,-7845,1745175976114832975
639524,-4,-11,3,1895,1211,-7815,1745175976114832975
639716,-7,-9,3,1903,1228,-7816,1745175976114832975
639908,-8,-7,3,1888,1243,-7813,1745175976114832975
640100,-11,-6,4,1892,1235,-7806,1745175976114832975
640292,-13,-5,5,1907,1236,-7822,1745175976114832975
640484,-17,-5,4,1858,1253,-7841,1745175976114832975
640676,-35,-8,-3,1805,1243,-7783,1745175976114832975
640868,-43,3,-2,1885,1182,-7792,1745175976114832975
641060,-12,10,9,1920,1257,-7866,1745175976114832975
641252,-7,9,12,1912,1328,-7809,1745175976114832975
641444,-14,8,7,1948,1315,-7809,1745175976161493955
641636,-7,9,5,1945,1313,-7837,1745175976161493955
641828,-1,7,5,1934,1312,-7804,1745175976161493955
642020,-1,7,8,1904,1267,-7797,1745175976161493955
642212,2,8,9,1882,1249,-7804,1745175976161493955
642404,6,10,12,1872,1247,-7822,1745175976161493955
642596,8,14,12,1887,1244,-7839,1745175976161493955
642788,10,16,12,1895,1228,-7833,1745175976161493955
642980,10,18,12,1909,1220,-7810,1745175976161493955
643172,10,18,11,1925,1203,-7820,1745175976161493955
643364,8,19,11,1929,1196,-7829,1745175976161493955
643556,3,21,11,1910,1184,-7828,1745175976161493955
643748,-2,22,10,1901,1169,-7820,1745175976221028776
643940,-7,27,7,1903,1161,-7813,1745175976221028776
644132,-14,31,6,1919,1172,-7800,1745175976221028776
644324,-20,34,5,1932,1197,-7785,1745175976221028776
644516,-25,36,3,1972,1247,-7791,1745175976221028776
644708,-26,37,0,1973,1267,-7813,1745175976221028776
644900,-25,37,-4,1979,1307,-7818,1745175976221028776
645092,-23,34,-8,1979,1328,-7788,1745175976221028776
645284,-18,33,-12,1985,1336,-7797,1745175976221028776
645476,-14,30,-14,1980,1335,-7798,1745175976221028776
645668,-9,27,-15,1964,1332,-7777,1745175976221028776
645860,-4,24,-16,1961,1327,-7776,1745175976221028776
646052,1,22,-16,1965,1310,-7792,1745175976277564457
646244,6,21,-16,1949,1291,-7809,1745175976277564457
646436,7,23,-18,1956,1269,-7829,1745175976277564457
646628,7,27,-16,1943,1242,-7819,1745175976277564457
646820,7,25,-13,1938,1232,-7802,1745175976277564457
647012,6,24,-11,1923,1212,-7816,1745175976277564457
647204,4,26,-12,1931,1184,-7821,1745175976277564457
647396,0,28,-13,1928,1157,-7812,1745175976277564457
647588,-7,32,-11,1938,1122,-7814,1745175976277564457
647780,-16,35,-10,1928,1134,-7802,1745175976277564457
647972,-22,36,-9,1938,1164,-7796,1745175976277564457
648164,-26,38,-10,1921,1184,-7794,1745175976277564457
648356,-30,42,-12,1943,1199,-7807,1745175976344604522
648548,-33,43,-14,1960,1234,-7812,1745175976344604522
648740,-34,44,-15,1982,1277,-7800,1745175976344604522
648932,-34,44,-15,1994,1296,-7765,1745175976344604522
649124,-31,43,-15,2011,1314,-7798,1745175976344604522
649316,-28,41,-16,2025,1323,-7798,1745175976344604522
649508,-24,39,-18,2013,1325,-7787,1745175976344604522
649700,-21,38,-18,1985,1338,-7785,1745175976344604522
649892,-17,38,-17,1987,1324,-7799,1745175976344604522
650084,-11,37,-19,1974,1323,-7812,1745175976344604522
650276,-6,37,-20,1957,1329,-7809,1745175976344604522
650468,-2,39,-24,1957,1300,-7823,1745175976344604522
650660,0,39,-27,1973,1286,-7834,1745175976394907917
650852,3,41,-29,1958,1276,-7815,1745175976394907917
651044,4,43,-32,1959,1263,-7797,1745175976394907917
651236,3,44,-33,1963,1232,-7804,1745175976394907917
651428,3,45,-33,1980,1238,-7803,1745175976394907917
651620,2,47,-34,1966,1218,-7828,1745175976394907917
651812,-2,49,-35,1955,1202,-7824,1745175976394907917
652004,-6,52,-38,1934,1187,-7816,1745175976394907917
652196,-10,55,-42,1948,1167,-7818,1745175976394907917
652388,-1,75,-40,2108,1116,-7892,1745175976394907917
652580,29,60,-41,1926,1307,-7879,1745175976394907917
652772,0,56,-52,1924,1264,-7741,1745175976394907917
652964,-10,64,-61,1954,1166,-7833,1745175976454728516
653156,1,69,-51,1945,1123,-7785,1745175976454728516
653348,-1,71,-43,1933,1145,-7792,1745175976454728516
653540,-5,79,-35,1951,1161,-7817,1745175976454728516
653732,-9,84,-36,1931,1206,-7817,1745175976454728516
653924,-14,91,-38,1942,1243,-7819,1745175976454728516
654116,-14,95,-40,1953,1278,-7807,1745175976454728516
654308,-11,101,-41,1987,1316,-7820,1745175976454728516
654500,0,107,-38,1993,1370,-7831,1745175976454728516
654692,13,109,-34,2021,1410,-7800,1745175976454728516
654884,24,107,-33,2024,1448,-7773,1745175976454728516
655076,28,104,-35,2047,1425,-7741,1745175976454728516
655268,33,104,-32,2078,1379,-7749,1745175976517119509
655460,49,101,-25,2120,1387,-7753,1745175976517119509
655652,65,94,-20,2102,1375,-7799,1745175976517119509
655844,66,89,-23,2088,1352,-7784,1745175976517119509
656036,69,89,-26,2082,1286,-7771,1745175976517119509
656228,85,89,-22,2105,1245,-7787,1745175976517119509
656420,90,84,-23,2083,1204,-7783,1745175976517119509
656612,73,81,-28,2061,1142,-7770,1745175976517119509
656804,58,84,-32,2070,1120,-7747,1745175976517119509
656996,51,89,-30,2100,1095,-7746,1745175976517119509
657188,49,90,-25,2106,1122,-7755,1745175976517119509
657380,43,88,-24,2112,1150,-7773,1745175976517119509
657572,34,88,-30,2137,1168,-7790,1745175976573830501
657764,31,90,-38,2127,1174,-7809,1745175976573830501
657956,33,90,-44,2136,1162,-7823,1745175976573830501
658148,32,90,-52,2114,1146,-7860,1745175976573830501
658340,23,92,-62,2097,1108,-7890,1745175976573830501
658532,15,100,-70,2099,1066,-7953,1745175976573830501
658724,14,108,-76,2055,1051,-7988,1745175976573830501
658916,17,120,-81,2046,1008,-8024,1745175976573830501
659108,33,131,-85,2023,984,-8071,1745175976573830501
659300,35,139,-100,2005,949,-8114,1745175976573830501
659492,10,154,-116,2025,879,-8047,1745175976573830501
659684,-12,165,-128,2007,839,-8073,1745175976573830501
659876,-35,177,-133,2060,771,-8027,1745175976628136567
660068,-46,187,-133,2098,748,-8027,1745175976628136567
660260,-54,194,-137,2171,748,-8030,1745175976628136567
660452,-70,198,-146,2205,757,-8080,1745175976628136567
660644,-90,201,-162,2241,741,-8183,1745175976628136567
660836,-107,208,-181,2322,699,-8288,1745175976628136567
661028,-107,212,-197,2414,662,-8404,1745175976628136567
661220,-99,205,-216,2512,587,-8528,1745175976628136567
661412,-93,193,-239,2652,481,-8618,1745175976628136567
661604,-82,175,-259,2792,291,-8742,1745175976628136567
661796,-77,155,-269,2941,42,-8915,1745175976628136567
661988,-97,148,-277,3102,-212,-9155,1745175976628136567
662180,-146,145,-285,3176,-419,-9411,1745175976686660460
662372,-202,142,-294,3198,-534,-9625,1745175976686660460
662564,-253,130,-308,3246,-565,-9667,1745175976686660460
662756,-333,137,-347,3508,-554,-10600,1745175976686660460
662948,-413,226,-442,3830,-694,-11311,1745175976686660460
663140,-406,246,-535,3848,-555,-11382,1745175976686660460
663332,-412,230,-567,3803,-495,-11577,1745175976686660460
663524,-339,191,-514,4409,-680,-13583,1745175976686660460
663716,-123,155,-406,5195,-854,-14072,1745175976686660460
663908,370,276,-98,5907,-430,-13554,1745175976686660460
664100,952,254,269,6608,-817,-13206,1745175976686660460
664292,1318,90,524,6428,-1328,-13145,1745175976686660460
664484,1550,-138,596,5615,-1908,-12190,1745175976746939128
664676,1664,-318,530,5740,-3296,-12222,1745175976746939128
664868,1714,-488,563,6570,-5235,-12199,1745175976746939128
665060,1785,-676,821,7154,-6795,-12109,1745175976746939128
665252,1812,-856,1214,7314,-7789,-11919,1745175976746939128
665444,1749,-995,1600,7185,-8524,-12175,1745175976746939128
665636,1530,-1088,1908,6843,-9089,-12344,1745175976746939128
665828,1181,-1142,2134,6351,-9539,-12282,1745175976746939128
666020,801,-1172,2309,5997,-9792,-12219,1745175976746939128
666212,455,-1188,2447,5808,-9730,-12208,1745175976746939128
666404,158,-1200,2552,5826,-9247,-12208,1745175976746939128
666596,-109,-1210,2628,6015,-8499,-12177,1745175976746939128
666788,-351,-1224,2683,6250,-7565,-12110,1745175976805059743
666980,-538,-1237,2732,6382,-6554,-11984,1745175976805059743
667172,-636,-1253,2802,6547,-5513,-11798,1745175976805059743
667364,-635,-1282,2895,6693,-4487,-11587,1745175976805059743
667556,-557,-1313,3001,6765,-3589,-11451,1745175976805059743
667748,-428,-1341,3102,6775,-2862,-11280,1745175976805059743
667940,-266,-1371,3197,6731,-2354,-11100,1745175976805059743
668132,-87,-1402,3285,6611,-2036,-10810,1745175976805059743
668324,94,-1412,3366,6364,-1863,-10493,1745175976805059743
668516,263,-1396,3464,6051,-1800,-10139,1745175976805059743
668708,406,-1364,3585,5813,-1827,-9785,1745175976805059743
668900,511,-1322,3720,5670,-1957,-9429,1745175976805059743
669092,578,-1271,3858,5618,-2130,-8973,1745175976865946999
669284,617,-1214,3983,5576,-2270,-8484,1745175976865946999
669476,626,-1146,4082,5546,-2303,-7996,1745175976865946999
669668,595,-1075,4155,5600,-2269,-7662,1745175976865946999
669860,531,-1014,4203,5622,-2102,-7355,1745175976865946999
670052,447,-952,4224,5640,-1861,-7138,1745175976865946999
670244,355,-890,4234,5763,-1568,-7059,1745175976865946999
670436,273,-832,4234,5841,-1114,-6996,1745175976865946999
670628,208,-767,4235,5921,-589,-6946,1745175976865946999
670820,164,-711,4244,6038,-66,-6967,1745175976865946999
671012,147,-657,4259,6137,423,-6971,1745175976865946999
671204,160,-608,4287,6167,863,-6902,1745175976865946999
671396,206,-563,4324,6173,1196,-6875,1745175976924300529
671588,273,-520,4361,6097,1406,-6798,1745175976924300529
671780,348,-469,4397,5995,1543,-6617,1745175976924300529
671972,421,-414,4431,5931,1573,-6395,1745175976924300529
672164,471,-363,4466,5920,1510,-6158,1745175976924300529
672356,493,-313,4506,5934,1340,-5949,1745175976924300529
672548,496,-264,4558,5974,1125,-5704,1745175976924300529
672740,484,-213,4606,5980,925,-5377,1745175976924300529
672932,452,-165,4641,6059,771,-5167,1745175976924300529
673124,398,-131,4659,6136,663,-5011,1745175976924300529
673316,331,-114,4663,6199,689,-4893,1745175976924300529
673508,257,-101,4646,6232,883,-4967,1745175976924300529
673700,175,-86,4608,6280,1235,-5017,1745175976978851541
673892,86,-65,4558,6300,1636,-5134,1745175976978851541
674084,-1,-46,4516,6337,2026,-5129,1745175976978851541
674276,-82,-36,4488,6369,2355,-5075,1745175976978851541
674468,-159,-37,4465,6397,2653,-5133,1745175976978851541
674660,-230,-38,4447,6299,2913,-5069,1745175976978851541
674852,-292,-39,4422,6100,3089,-5139,1745175976978851541
675044,-349,-36,4395,5822,3197,-5148,1745175976978851541
675236,-399,-26,4361,5554,3268,-5185,1745175976978851541
675428,-442,-4,4317,5312,3313,-5162,1745175976978851541
675620,-481,31,4267,5079,3381,-5090,1745175976978851541
675812,-523,71,4223,4946,3403,-5061,1745175976978851541
676004,-567,105,4190,4879,3344,-5039,1745175977053783096
676196,-598,130,4160,4853,3298,-4896,1745175977053783096
676388,-616,142,4125,4861,3233,-4792,1745175977053783096
676580,-618,144,4071,4854,3191,-4755,1745175977053783096
676772,-608,133,3994,4800,3206,-4807,1745175977053783096
676964,-585,115,3894,4651,3327,-4869,1745175977053783096
677156,-553,90,3776,4420,3556,-4985,1745175977053783096
677348,-517,67,3658,4093,3898,-5115,1745175977053783096
677540,-482,55,3548,3807,4229,-5206,1745175977053783096
677732,-447,33,3437,3540,4473,-5258,1745175977053783096
677924,-413,11,3341,3281,4614,-5295,1745175977053783096
678116,-386,-26,3252,3083,4575,-5352,1745175977053783096
678308,-368,-70,3166,2865,4464,-5324,1745175977102886033
678500,-361,-108,3073,2569,4320,-5332,1745175977102886033
678692,-372,-133,2976,2213,4218,-5341,1745175977102886033
678884,-404,-142,2872,1863,4087,-5482,1745175977102886033
679076,-450,-142,2762,1498,3983,-5618,1745175977102886033
679268,-504,-136,2654,1082,3968,-5715,1745175977102886033
679460,-557,-118,2550,722,3969,-5867,1745175977102886033
679652,-606,-90,2454,429,4023,-6074,1745175977102886033
679844,-651,-70,2357,173,4110,-6164,1745175977102886033
680036,-687,-46,2253,-65,4232,-6193,1745175977102886033
680228,-715,-21,2142,-212,4332,-6266,1745175977102886033
680420,-727,6,2031,-324,4389,-6341,1745175977102886033
680612,-717,20,1921,-284,4409,-6376,1745175977158355578
680804,-689,20,1795,-220,4473,-6439,1745175977158355578
680996,-652,26,1651,-193,4552,-6534,1745175977158355578
681188,-612,23,1504,-186,4578,-6647,1745175977158355578
681380,-563,10,1359,-142,4597,-6777,1745175977158355578
681572,-504,-9,1215,-124,4593,-6876,1745175977158355578
681764,-442,-28,1074,-189,4618,-6938,1745175977158355578
681956,-378,-46,947,-259,4621,-7002,1745175977158355578
682148,-312,-66,831,-369,4606,-7099,1745175977158355578
682340,-243,-86,729,-493,4528,-7133,1745175977158355578
682532,-173,-102,644,-577,4381,-7132,1745175977158355578
682724,-103,-105,580,-688,4140,-7153,1745175977158355578
682916,-38,-94,534,-706,3848,-7182,1745175977220186315
683108,15,-74,498,-682,3508,-7246,1745175977220186315
683300,59,-48,471,-633,3199,-7299,1745175977220186315
683492,87,-24,453,-544,2905,-7350,1745175977220186315
683684,102,-6,443,-450,2668,-7381,1745175977220186315
683876,109,10,435,-332,2471,-7413,1745175977220186315
684068,115,3,422,-92,2328,-7402,1745175977220186315
684260,111,-18,374,-119,2216,-7392,1745175977220186315
684452,85,-8,297,-296,2223,-7466,1745175977220186315
684644,50,0,221,-110,2051,-7548,1745175977220186315
684836,34,-29,135,-132,2014,-7642,1745175977220186315
685028,42,24,105,-580,2076,-7484,1745175977220186315
685220,55,58,154,-718,1980,-7407,1745175977338710597
685412,75,62,236,-526,1889,-7468,1745175977338710597
685604,84,70,316,-384,1801,-7561,1745175977338710597
685796,78,77,371,-284,1748,-7580,1745175977338710597
685988,76,79,384,-194,1717,-7669,1745175977338710597
686180,74,82,362,-127,1697,-7770,1745175977338710597
686372,67,77,324,-89,1635,-7820,1745175977338710597
686564,67,63,285,-19,1581,-7858,1745175977338710597
686756,77,50,252,3,1512,-7887,1745175977338710597
686948,84,40,227,-56,1478,-7851,1745175977338710597
687140,87,34,212,-139,1432,-7856,1745175977338710597
687332,93,35,205,-242,1395,-7858,1745175977338710597
687524,99,38,204,-352,1377,-7868,1745175977345940010
687716,104,55,208,-464,1363,-7872,1745175977345940010
687908,108,75,212,-462,1300,-7898,1745175977345940010
688100,110,89,211,-418,1185,-7950,1745175977345940010
688292,111,95,202,-315,1092,-8028,1745175977345940010
688484,111,95,184,-258,1032,-8078,1745175977345940010
688676,110,100,167,-251,989,-8103,1745175977345940010
688868,108,109,157,-255,983,-8155,1745175977345940010
689060,104,114,149,-253,952,-8171,1745175977345940010
689252,99,114,141,-236,931,-8184,1745175977345940010
689444,94,109,126,-223,899,-8216,1745175977345940010
689636,91,106,109,-212,877,-8209,1745175977345940010
689828,91,107,92,-212,842,-8198,1745175977399049213
690020,91,105,78,-189,811,-8214,1745175977399049213
690212,90,99,66,-178,791,-8250,1745175977399049213
690404,88,89,53,-185,756,-8277,1745175977399049213
690596,87,81,42,-195,739,-8268,1745175977399049213
690788,82,76,34,-209,701,-8267,1745175977399049213
690980,76,73,29,-180,688,-8249,1745175977399049213
691172,68,67,25,-134,612,-8217,1745175977399049213
691364,60,57,23,-92,536,-8177,1745175977399049213
691556,51,42,23,-25,468,-8140,1745175977399049213
691748,39,24,17,19,406,-8151,1745175977399049213
691940,23,0,-1,14,389,-8182,1745175977399049213
692132,5,-16,-24,-66,407,-8173,1745175977465124755
692324,-19,-23,-54,-164,433,-8163,1745175977465124755
692516,-43,-27,-90,-215,402,-8172,1745175977465124755
692708,-59,-33,-123,-188,363,-8185,1745175977465124755
692900,-71,-34,-144,-206,382,-8195,1745175977465124755
693092,-81,-17,-143,-292,464,-8209,1745175977465124755
693284,-79,-6,-118,-315,453,-8185,1745175977465124755
693476,-69,3,-79,-200,430,-8177,1745175977465124755
693668,-59,12,-45,-117,383,-8181,1745175977465124755
693860,-45,17,-22,-75,393,-8145,1745175977465124755
694052,-29,22,-12,-44,411,-8141,1745175977465124755
694244,-16,29,-13,-13,433,-8192,1745175977465124755
694436,0,31,-15,-6,468,-8225,1745175977511395738
694628,24,29,-16,0,489,-8243,1745175977511395738
694820,48,27,-15,-2,470,-8259,1745175977511395738
695012,69,28,-14,-17,419,-8237,1745175977511395738
695204,85,30,-16,-10,353,-8228,1745175977511395738
695396,95,35,-23,-33,304,-8222,1745175977511395738
695588,101,37,-28,-38,267,-8212,1745175977511395738
695780,103,38,-30,-25,235,-8211,1745175977511395738
695972,102,38,-32,-5,212,-8178,1745175977511395738
696164,98,38,-34,2,213,-8164,1745175977511395738
696356,88,37,-37,40,229,-8149,1745175977511395738
696548,80,33,-42,50,240,-8126,1745175977511395738
696740,72,24,-48,65,244,-8117,1745175977571421180
696932,67,13,-53,46,236,-8106,1745175977571421180
697124,59,2,-61,43,214,-8122,1745175977571421180
697316,47,-6,-72,44,179,-8146,1745175977571421180
697508,30,-15,-87,37,118,-8117,1745175977571421180
697700,13,-21,-101,24,64,-8132,1745175977571421180
697892,0,-23,-112,-19,48,-8165,1745175977571421180
698084,-11,-22,-115,-82,70,-8159,1745175977571421180
698276,-21,-19,-111,-104,113,-8169,1745175977571421180
698468,-28,-13,-105,-108,175,-8223,1745175977571421180
698660,-30,-7,-104,-65,191,-8263,1745175977571421180
698852,-24,-2,-107,-37,194,-8250,1745175977571421180
699044,-13,0,-113,17,208,-8242,1745175977629196485
699236,1,0,-117,28,225,-8240,1745175977629196485
699428,14,-3,-118,30,230,-8208,1745175977629196485
699620,27,-7,-115,10,220,-8190,1745175977629196485
699812,42,-10,-110,14,195,-8162,1745175977629196485
700004,57,-11,-106,3,182,-8152,1745175977629196485
700196,66,-13,-104,6,141,-8156,1745175977629196485
700388,71,-18,-102,13,39,-8145,1745175977629196485
700580,74,-25,-100,32,-35,-8159,1745175977629196485
700772,77,-31,-102,-6,-67,-8215,1745175977629196485
700964,75,-32,-103,-29,-80,-8242,1745175977629196485
701156,72,-32,-106,-83,-93,-8234,1745175977629196485
701348,66,-32,-106,-89,-101,-8226,1745175977684368533
701540,63,-34,-103,-101,-106,-8238,1745175977684368533
701732,62,-33,-96,-90,-122,-8227,1745175977684368533
701924,61,-29,-92,-91,-112,-8218,1745175977684368533
702116,56,-25,-89,-66,-118,-8202,1745175977684368533
702308,52,-24,-87,-48,-126,-8201,1745175977684368533
702500,47,-23,-86,-30,-142,-8232,1745175977684368533
702692,43,-22,-86,-13,-138,-8248,1745175977684368533
702884,41,-20,-85,3,-155,-8225,1745175977684368533
703076,41,-21,-83,15,-160,-8222,1745175977684368533
703268,41,-24,-82,-1,-185,-8215,1745175977684368533
703460,41,-29,-81,-44,-179,-8205,1745175977684368533
703652,45,-33,-81,-101,-180,-8190,1745175977747565144
703844,48,-35,-80,-143,-143,-8175,1745175977747565144
704036,46,-34,-79,-154,-157,-8157,1745175977747565144
704228,42,-33,-75,-124,-227,-8140,1745175977747565144
704420,41,-31,-67,-61,-307,-8135,1745175977747565144
704612,43,-28,-58,13,-338,-8150,1745175977747565144
704804,41,-25,-51,61,-326,-8157,1745175977747565144
704996,35,-24,-45,64,-281,-8145,1745175977747565144
705188,27,-29,-42,50,-224,-8117,1745175977747565144
705380,19,-35,-42,23,-183,-8082,1745175977747565144
705572,12,-41,-43,-25,-154,-8041,1745175977747565144
705764,5,-45,-45,-45,-195,-8036,1745175977747565144
705956,1,-48,-44,-61,-238,-8036,1745175977805729404
706148,-6,-49,-45,-83,-262,-8073,1745175977805729404
706340,-18,-49,-44,-105,-279,-8054,1745175977805729404
706532,-34,-47,-44,-120,-288,-8080,1745175977805729404
706724,-47,-46,-42,-150,-237,-8066,1745175977805729404
706916,-51,-41,-37,-188,-177,-8059,1745175977805729404
707108,-51,-32,-33,-183,-104,-8074,1745175977805729404
707300,-47,-26,-29,-165,-48,-8062,1745175977805729404
707492,-41,-23,-24,-135,-38,-8070,1745175977805729404
707684,-30,-23,-18,-118,-18,-8082,1745175977805729404
707876,-18,-22,-14,-132,26,-8099,1745175977805729404
708068,-5,-18,-12,-135,52,-8095,1745175977805729404
708260,4,-14,-12,-122,29,-8106,1745175977871093130
708452,14,-12,-12,-94,-19,-8086,1745175977871093130
708644,26,-11,-12,-93,-49,-8078,1745175977871093130
708836,33,-8,-12,-108,-65,-8078,1745175977871093130
709028,33,-6,-15,-116,-58,-8063,1745175977871093130
709220,28,-7,-17,-113,-53,-8092,1745175977871093130
709412,23,-9,-19,-107,-39,-8090,1745175977871093130
709604,20,-11,-21,-82,-72,-8083,1745175977871093130
709796,16,-15,-23,-56,-116,-8069,1745175977871093130
709988,12,-22,-23,-43,-109,-8051,1745175977871093130
710180,4,-29,-25,-60,-88,-8033,1745175977871093130
710372,-8,-37,-27,-89,-105,-8031,1745175977871093130
710564,-19,-44,-26,-127,-126,-8030,1745175977919265763
710756,-24,-47,-24,-158,-148,-8000,1745175977919265763
710948,-27,-45,-23,-185,-138,-8031,1745175977919265763
711140,-36,-38,-22,-192,-116,-8058,1745175977919265763
711332,-45,-34,-21,-175,-92,-8061,1745175977919265763
711524,-50,-32,-20,-159,-77,-8032,1745175977919265763
711716,-50,-30,-19,-158,-51,-7997,1745175977919265763
711908,-45,-26,-19,-143,-12,-7980,1745175977919265763
712100,-36,-22,-21,-142,9,-7976,1745175977919265763
712292,-26,-19,-23,-158,27,-7973,1745175977919265763
712484,-17,-17,-26,-167,49,-7980,1745175977919265763
712676,-10,-13,-28,-178,46,-7971,1745175977919265763
712868,-3,-10,-27,-164,19,-7977,1745175977978438191
713060,5,-8,-26,-159,-10,-7984,1745175977978438191
713252,10,-6,-27,-160,-9,-8003,1745175977978438191
713444,12,-5,-28,-199,-9,-8007,1745175977978438191
713636,10,-3,-31,-226,9,-8009,1745175977978438191
713828,9,-3,-33,-225,-15,-8023,1745175977978438191
714020,7,1,-35,-185,-61,-8015,1745175977978438191
714212,4,4,-34,-131,-125,-8031,1745175977978438191
714404,0,3,-33,-77,-171,-8039,1745175977978438191
714596,-1,0,-31,-58,-175,-8043,1745175977978438191
714788,-3,-3,-32,-70,-140,-8039,1745175977978438191
714980,-5,-5,-33,-110,-77,-8070,1745175977978438191
715172,-7,-6,-35,-137,-46,-8063,1745175978037053176
715364,-6,-9,-35,-155,-45,-8045,1745175978037053176
715556,-3,-12,-34,-150,-79,-8027,1745175978037053176
715748,-2,-13,-31,-158,-137,-8036,1745175978037053176
715940,-5,-12,-27,-152,-150,-8044,1745175978037053176
716132,-8,-9,-19,-159,-177,-8045,1745175978037053176
716324,-11,-6,-11,-172,-172,-8057,1745175978037053176
716516,-13,-2,-5,-196,-155,-8047,1745175978037053176
716708,-17,3,1,-202,-121,-8041,1745175978037053176
716900,-18,7,5,-217,-92,-8028,1745175978037053176
717092,-17,10,8,-209,-70,-8007,1745175978037053176
717284,-14,13,10,-196,-23,-8010,1745175978037053176
717476,-11,18,9,-183,-15,-8043,1745175978096292687
717668,-8,20,5,-148,-7,-8059,1745175978096292687
717860,0,19,1,-142,13,-8053,1745175978096292687
718052,9,17,-5,-146,23,-8077,1745175978096292687
718244,13,15,-12,-146,28,-8115,1745175978096292687
718436,11,14,-20,-152,26,-8139,1745175978096292687
718628,10,12,-25,-179,12,-8155,1745175978096292687
718820,8,10,-29,-183,33,-8148,1745175978096292687
719012,3,11,-33,-199,24,-8162,1745175978096292687
719204,-1,12,-34,-178,23,-8156,1745175978096292687
719396,-2,11,-33,-149,11,-8149,1745175978096292687
719588,0,10,-31,-134,-21,-8159,1745175978096292687
719780,3,8,-29,-111,-17,-8169,1745175978154109555
719972,4,3,-28,-104,-25,-8175,1745175978154109555
720164,4,1,-27,-122,-27,-8188,1745175978154109555
720356,4,0,-27,-150,-14,-8188,1745175978154109555
720548,4,-2,-26,-189,12,-8164,1745175978154109555
720740,1,-3,-25,-199,7,-8155,1745175978154109555
720932,0,-2,-21,-207,4,-8169,1745175978154109555
721124,2,1,-17,-183,0,-8174,1745175978154109555
721316,3,4,-11,-159,1,-8165,1745175978154109555
721508,3,7,-9,-129,23,-8156,1745175978154109555
721700,2,8,-8,-94,9,-8135,1745175978154109555
721892,4,7,-8,-71,26,-8153,1745175978154109555
722084,5,6,-11,-73,35,-8156,1745175978212430532
722276,7,3,-15,-89,36,-8154,1745175978212430532
722468,12,-2,-20,-126,35,-8142,1745175978212430532
722660,14,-6,-26,-170,53,-8119,1745175978212430532
722852,14,-6,-30,-196,33,-8118,1745175978212430532
723044,11,-6,-31,-217,16,-8115,1745175978212430532
723236,10,-5,-32,-206,5,-8126,1745175978212430532
723428,10,-3,-32,-173,23,-8132,1745175978212430532
723620,10,-3,-34,-161,33,-8129,1745175978212430532
723812,11,-3,-35,-134,58,-8132,1745175978212430532
724004,13,-3,-35,-138,60,-8126,1745175978212430532
724196,17,-4,-36,-116,67,-8113,1745175978212430532
724388,21,-6,-37,-101,36,-8125,1745175978282677130
724580,22,-11,-39,-100,-5,-8126,1745175978282677130
724772,24,-13,-41,-98,-59,-8124,1745175978282677130
724964,23,-14,-42,-105,-95,-8132,1745175978282677130
725156,17,-15,-43,-123,-106,-8123,1745175978282677130
725348,13,-15,-42,-148,-137,-8124,1745175978282677130
725540,10,-15,-39,-170,-120,-8136,1745175978282677130
725732,8,-11,-35,-189,-105,-8108,1745175978282677130
725924,6,-5,-28,-194,-108,-8111,1745175978282677130
726116,5,-3,-22,-160,-123,-8112,1745175978282677130
726308,5,-3,-16,-163,-135,-8135,1745175978282677130
726500,3,-1,-12,-145,-119,-8143,1745175978282677130
726692,-1,-1,-9,-129,-124,-8121,1745175978328845875
726884,-7,-1,-8,-115,-139,-8133,1745175978328845875
727076,-13,0,-7,-123,-140,-8119,1745175978328845875
727268,-18,1,-9,-153,-97,-8115,1745175978328845875
727460,-26,0,-11,-184,-61,-8112,1745175978328845875
727652,-33,0,-15,-183,-33,-8088,1745175978328845875
727844,-37,-3,-19,-182,-17,-8087,1745175978328845875
728036,-38,-5,-20,-189,-28,-8085,1745175978328845875
728228,-36,-6,-21,-180,-20,-8107,1745175978328845875
728420,-33,-5,-24,-181,3,-8121,1745175978328845875
728612,-29,-2,-25,-181,30,-8121,1745175978328845875
728804,-24,1,-25,-170,31,-8122,1745175978328845875
728996,-16,1,-24,-159,26,-8126,1745175978389081262
729188,-4,0,-24,-195,24,-8151,1745175978389081262
729380,7,1,-24,-215,27,-8168,1745175978389081262
729572,17,3,-23,-229,15,-8189,1745175978389081262
729764,22,8,-23,-199,-21,-8186,1745175978389081262
729956,25,10,-20,-165,-42,-8180,1745175978389081262
730148,27,11,-17,-153,-82,-8192,1745175978389081262
730340,31,9,-13,-145,-71,-8163,1745175978389081262
730532,35,6,-10,-129,-25,-8123,1745175978389081262
730724,36,3,-8,-123,-22,-8104,1745175978389081262
730916,33,-1,-7,-106,-42,-8055,1745175978389081262
731108,29,-6,-5,-87,-99,-8070,1745175978389081262
731300,26,-13,-6,-106,-91,-8082,1745175978453751870
731492,21,-18,-8,-137,-103,-8080,1745175978453751870
731684,14,-19,-13,-172,-90,-8107,1745175978453751870
731876,4,-18,-15,-199,-90,-8116,1745175978453751870
732068,-4,-14,-17,-207,-80,-8125,1745175978453751870
732260,-6,-10,-18,-194,-73,-8148,1745175978453751870
732452,-6,-6,-20,-179,-34,-8137,1745175978453751870
732644,-5,-5,-24,-169,-37,-8137,1745175978453751870
732836,-3,-5,-27,-145,-50,-8107,1745175978453751870
733028,-1,-7,-29,-116,-93,-8080,1745175978453751870
733220,0,-9,-30,-130,-136,-8043,1745175978453751870
733412,0,-10,-31,-173,-134,-8049,1745175978453751870
733604,-4,-11,-31,-227,-128,-8056,1745175978504156513
733796,-10,-10,-30,-261,-113,-8054,1745175978504156513
733988,-17,-8,-27,-266,-124,-8065,1745175978504156513
734180,-20,-4,-22,-223,-138,-8084,1745175978504156513
734372,-22,1,-17,-185,-151,-8081,1745175978504156513
734564,-23,3,-11,-122,-126,-8097,1745175978504156513
734756,-21,7,-8,-121,-92,-8099,1745175978504156513
734948,-18,7,-7,-115,-34,-8134,1745175978504156513
735140,-10,6,-9,-128,6,-8137,1745175978504156513
735332,2,4,-12,-142,39,-8145,1745175978504156513
735524,18,3,-17,-164,65,-8132,1745175978504156513
735716,32,3,-23,-178,58,-8130,1745175978504156513
735908,39,3,-27,-129,-2,-8135,1745175978564581118
736100,43,0,-28,-127,-85,-8115,1745175978564581118
736292,44,-5,-28,-132,-154,-8095,1745175978564581118
736484,43,-9,-28,-177,-190,-8109,1745175978564581118
736676,37,-11,-29,-226,-193,-8096,1745175978564581118
736868,24,-9,-29,-241,-215,-8097,1745175978564581118
737060,13,-7,-26,-249,-240,-8111,1745175978564581118
737252,5,-5,-18,-219,-265,-8108,1745175978564581118
737444,0,-5,-11,-214,-240,-8119,1745175978564581118
737636,-6,-2,-6,-194,-195,-8133,1745175978564581118
737828,-11,-1,-4,-182,-152,-8142,1745175978564581118
738020,-14,-3,-2,-129,-152,-8108,1745175978564581118
738212,-13,-6,-1,-113,-161,-8075,1745175978623235061
738404,-9,-9,-2,-137,-132,-8093,1745175978623235061
738596,-8,-10,-5,-157,-112,-8121,1745175978623235061
738788,-9,-11,-10,-206,-76,-8115,1745175978623235061
738980,-10,-11,-13,-218,-80,-8140,1745175978623235061
739172,-10,-11,-18,-236,-70,-8119,1745175978623235061
739364,-10,-9,-20,-240,-104,-8097,1745175978623235061
739556,-5,-7,-19,-229,-119,-8092,1745175978623235061
739748,-1,-4,-18,-202,-125,-8105,1745175978623235061
739940,3,-1,-16,-194,-113,-8119,1745175978623235061
740132,7,0,-15,-191,-103,-8146,1745175978623235061
740324,13,2,-14,-188,-102,-8163,1745175978623235061
740516,20,4,-12,-193,-119,-8167,1745175978692962862
740708,26,5,-8,-197,-114,-8168,1745175978692962862
740900,32,3,-5,-184,-140,-8137,1745175978692962862
741092,33,1,-1,-166,-150,-8135,1745175978692962862
741284,30,0,0,-159,-193,-8126,1745175978692962862
741476,24,-3,1,-154,-198,-8114,1745175978692962862
741668,14,-6,0,-132,-199,-8117,1745175978692962862
741860,2,-9,-1,-140,-206,-8090,1745175978692962862
742052,-10,-13,-2,-151,-191,-8071,1745175978692962862
742244,-22,-18,-4,-156,-160,-8049,1745175978692962862
742436,-32,-23,-5,-193,-126,-8054,1745175978692962862
742628,-39,-26,-7,-215,-98,-8049,1745175978692962862
742820,-43,-25,-10,-237,-69,-8061,1745175978736989178
743012,-42,-22,-13,-243,-55,-8091,1745175978736989178
743204,-38,-19,-14,-237,-43,-8101,1745175978736989178
743396,-31,-16,-13,-231,-42,-8109,1745175978736989178
743588,-20,-12,-13,-219,-31,-8111,1745175978736989178
743780,-10,-8,-13,-251,-13,-8113,1745175978736989178
743972,0,-2,-14,-273,32,-8113,1745175978736989178
744164,11,1,-15,-284,45,-8117,1745175978736989178
744356,20,6,-15,-276,27,-8107,1745175978736989178
744548,26,8,-14,-234,-6,-8086,1745175978736989178
744740,26,9,-12,-195,-84,-8064,1745175978736989178
744932,23,9,-9,-157,-121,-8038,1745175978736989178
745124,18,8,-8,-147,-132,-8041,1745175978800906563
745316,12,8,-8,-159,-113,-8046,1745175978800906563
745508,5,6,-10,-161,-91,-8061,1745175978800906563
745700,0,2,-13,-165,-90,-8066,1745175978800906563
745892,-4,-2,-14,-176,-127,-8074,1745175978800906563
746084,-5,-8,-15,-204,-125,-8088,1745175978800906563
746276,-4,-9,-16,-230,-105,-8107,1745175978800906563
746468,-5,-9,-17,-265,-95,-8120,1745175978800906563
746660,-8,-5,-17,-268,-109,-8112,1745175978800906563
746852,-9,0,-14,-258,-108,-8087,1745175978800906563
747044,-10,4,-12,-224,-97,-8085,1745175978800906563
747236,-10,7,-10,-203,-92,-8098,1745175978800906563
747428,-10,10,-10,-194,-61,-8067,1745175978854244044
747620,-9,10,-12,-187,-40,-8068,1745175978854244044
747812,-8,11,-15,-168,-20,-8078,1745175978854244044
748004,-6,11,-19,-205,-21,-8103,1745175978854244044
748196,-2,10,-21,-213,-35,-8083,1745175978854244044
748388,4,8,-23,-240,-18,-8086,1745175978854244044
748580,8,9,-24,-254,-6,-8066,1745175978854244044
748772,9,10,-25,-250,-41,-8041,1745175978854244044
748964,9,11,-24,-234,-66,-8054,1745175978854244044
749156,9,9,-23,-203,-103,-8058,1745175978854244044
749348,9,7,-23,-200,-122,-8054,1745175978854244044
749540,6,6,-24,-196,-128,-8083,1745175978854244044
749732,1,7,-25,-215,-130,-8100,1745175978914722763
749924,-2,9,-24,-243,-113,-8109,1745175978914722763
750116,-3,10,-23,-236,-89,-8116,1745175978914722763
750308,-2,9,-23,-216,-86,-8103,1745175978914722763
750500,0,8,-23,-199,-82,-8096,1745175978914722763
750692,2,8,-24,-194,-88,-8069,1745175978914722763
750884,0,8,-24,-179,-100,-8074,1745175978914722763
751076,-3,7,-23,-173,-120,-8084,1745175978914722763
751268,-5,5,-23,-172,-150,-8072,1745175978914722763
751460,-4,5,-22,-206,-148,-8076,1745175978914722763
751652,-4,6,-21,-219,-110,-8115,1745175978914722763
751844,-7,9,-21,-250,-71,-8115,1745175978914722763
752036,-9,12,-18,-250,-76,-8116,1745175978980295133
752228,-7,14,-15,-209,-89,-8129,1745175978980295133
752420,-1,15,-10,-189,-101,-8107,1745175978980295133
752612,5,15,-8,-187,-100,-8108,1745175978980295133
752804,9,15,-8,-190,-91,-8119,1745175978980295133
752996,12,17,-9,-194,-79,-8130,1745175978980295133
753188,15,18,-10,-198,-47,-8120,1745175978980295133
753380,18,17,-11,-211,-49,-8121,1745175978980295133
753572,19,16,-12,-194,-50,-8132,1745175978980295133
753764,17,16,-14,-176,-73,-8143,1745175978980295133
753956,15,15,-16,-178,-99,-8134,1745175978980295133
754148,13,14,-17,-185,-113,-8132,1745175978980295133
754340,11,12,-19,-194,-85,-8138,1745175979032809392
754532,9,11,-22,-201,-71,-8124,1745175979032809392
754724,8,9,-24,-210,-71,-8091,1745175979032809392
754916,8,5,-25,-210,-98,-8084,1745175979032809392
755108,11,3,-25,-226,-108,-8099,1745175979032809392
755300,11,3,-23,-205,-130,-8125,1745175979032809392
755492,10,3,-22,-200,-138,-8128,1745175979032809392
755684,7,4,-22,-177,-174,-8114,1745175979032809392
755876,4,3,-20,-171,-188,-8102,1745175979032809392
756068,3,1,-19,-167,-186,-8069,1745175979032809392
756260,2,1,-18,-178,-191,-8052,1745175979032809392
756452,0,2,-18,-193,-176,-8044,1745175979032809392
756644,0,2,-16,-201,-165,-8049,1745175979101475901
756836,0,3,-16,-230,-117,-8055,1745175979101475901
757028,-1,6,-15,-219,-105,-8058,1745175979101475901
757220,1,7,-15,-196,-101,-8049,1745175979101475901
757412,3,8,-15,-177,-118,-8061,1745175979101475901
757604,5,9,-14,-181,-122,-8076,1745175979101475901
757796,7,9,-15,-216,-117,-8095,1745175979101475901
757988,10,11,-17,-229,-109,-8114,1745175979101475901
758180,11,13,-19,-216,-139,-8089,1745175979101475901
758372,11,16,-18,-205,-187,-8082,1745175979101475901
758564,11,16,-17,-198,-226,-8067,1745175979101475901
758756,11,15,-16,-199,-224,-8072,1745175979101475901
758948,9,15,-16,-194,-210,-8075,1745175979149877490
759140,3,15,-18,-178,-226,-8052,1745175979149877490
759332,-1,14,-17,-144,-269,-8049,1745175979149877490
759524,-4,10,-15,-137,-307,-8041,1745175979149877490
759716,-7,7,-13,-141,-306,-8052,1745175979149877490
759908,-10,5,-13,-179,-270,-8083,1745175979149877490
760100,-11,5,-12,-192,-257,-8113,1745175979149877490
760292,-11,6,-10,-207,-258,-8114,1745175979149877490
760484,-9,9,-6,-172,-278,-8096,1745175979149877490
760676,-4,10,-2,-155,-321,-8093,1745175979149877490
760868,1,11,2,-152,-319,-8084,1745175979149877490
761060,7,14,3,-161,-295,-8077,1745175979149877490
761252,10,16,6,-172,-301,-8057,1745175979205742240
761444,9,18,10,-176,-301,-8040,1745175979205742240
761636,9,17,13,-176,-325,-8021,1745175979205742240
761828,9,18,18,-198,-338,-8014,1745175979205742240
762020,7,20,23,-206,-348,-8024,1745175979205742240
762212,4,22,28,-241,-341,-8045,1745175979205742240
762404,-1,23,31,-241,-356,-8064,1745175979205742240
762596,-3,27,35,-258,-362,-8088,1745175979205742240
762788,-5,30,40,-251,-319,-8101,1745175979205742240
762980,-5,36,42,-240,-294,-8122,1745175979205742240
763172,-5,41,46,-224,-273,-8120,1745175979205742240
763364,-1,44,51,-171,-261,-8137,1745175979205742240
763556,2,43,53,-134,-238,-8164,1745175979267050273
763748,4,43,53,-88,-241,-8179,1745175979267050273
763940,6,40,51,-90,-222,-8197,1745175979267050273
764132,9,34,46,-114,-212,-8197,1745175979267050273
764324,9,31,42,-144,-171,-8215,1745175979267050273
764516,5,28,39,-177,-166,-8246,1745175979267050273
764708,1,24,40,-182,-176,-8221,1745175979267050273
764900,-2,19,41,-197,-187,-8218,1745175979267050273
765092,-5,14,41,-210,-198,-8221,1745175979267050273
765284,-10,14,42,-217,-186,-8221,1745175979267050273
765476,-15,15,42,-200,-183,-8213,1745175979267050273
765668,-20,15,41,-178,-192,-8221,1745175979267050273
765860,-23,14,42,-162,-153,-8223,1745175979324453187
766052,-23,14,43,-170,-119,-8229,1745175979324453187
766244,-19,15,41,-189,-83,-8227,1745175979324453187
766436,-14,17,41,-158,-47,-8208,1745175979324453187
766628,-8,16,40,-130,-44,-8198,1745175979324453187
766820,0,15,39,-83,-48,-8185,1745175979324453187
767012,8,13,36,-100,-56,-8189,1745175979324453187
767204,12,8,33,-96,-49,-8172,1745175979324453187
767396,12,3,26,-127,-36,-8159,1745175979324453187
767588,9,-2,21,-156,-71,-8130,1745175979324453187
767780,6,-6,19,-197,-111,-8123,1745175979324453187
767972,4,-7,20,-217,-117,-8106,1745175979324453187
768164,0,-6,22,-220,-121,-8117,1745175979381805267
