timestamp,gyr_x,gyr_y,gyr_z,acc_x,acc_y,acc_z,pkt_time_ns
79458,110,-37,43,1412,2162,-7307,1745173816047654288
79650,114,-80,38,1510,1267,-8062,1745173816047654288
79842,-17,-83,48,1369,1716,-7613,1745173816047654288
80034,-33,-61,45,1237,1890,-7598,1745173816047654288
80226,-8,-62,46,1283,1912,-7686,1745173816047654288
80418,-15,-85,48,1346,2098,-7597,1745173816047654288
80610,14,-88,49,1461,2240,-7712,1745173816047654288
80802,41,-119,49,1539,2243,-7735,1745173816047654288
80994,51,-140,47,1581,2105,-7791,1745173816047654288
81186,54,-139,39,1473,1922,-7852,1745173816047654288
81378,44,-137,34,1328,1793,-7897,1745173816047654288
81570,26,-120,31,1219,1667,-7986,1745173816047654288
81762,9,-104,30,1212,1625,-8115,1745173816104691684
81954,-16,-86,32,1201,1558,-8208,1745173816104691684
82146,-50,-56,29,1160,1389,-8258,1745173816104691684
82338,-84,-25,21,1129,1434,-8362,1745173816104691684
82530,-103,4,12,1151,1635,-8425,1745173816104691684
82722,-102,32,0,1194,1891,-8485,1745173816104691684
82914,-89,53,-18,1257,2100,-8450,1745173816104691684
83106,-62,61,-37,1390,2315,-8291,1745173816104691684
83298,-12,55,-46,1508,2590,-8139,1745173816104691684
83490,57,35,-45,1525,2895,-7902,1745173816104691684
83682,130,7,-41,1437,2733,-7765,1745173816104691684
83874,176,12,-39,1466,2347,-6921,1745173816104691684
84066,188,59,-13,1260,3071,-8585,1745173816160828410
84258,396,-44,-24,1307,3389,-7190,1745173816160828410
84450,498,-43,-20,1170,2923,-7604,1745173816160828410
84642,569,-39,-50,1109,2372,-7806,1745173816160828410
84834,585,-4,-91,786,1266,-7770,1745173816160828410
85026,294,129,-135,-817,-3690,-7729,1745173816160828410
85218,-103,285,-90,-749,-3001,-7567,1745173816160828410
85410,-401,321,57,166,-1604,-7390,1745173816160828410
85602,-602,363,225,1010,-49,-7648,1745173816160828410
85794,-684,353,312,1492,1529,-7607,1745173816160828410
85986,-672,333,292,2100,2732,-7589,1745173816160828410
86178,-599,269,173,2642,3486,-7688,1745173816160828410
86370,-477,196,25,2880,3841,-7661,1745173816221482179
86562,-331,94,-86,2856,3798,-7606,1745173816221482179
86754,-185,2,-147,2541,3529,-7549,1745173816221482179
86946,-69,-56,-169,2094,3143,-7545,1745173816221482179
87138,9,-83,-168,1596,2739,-7577,1745173816221482179
87330,51,-82,-155,1233,2363,-7632,1745173816221482179
87522,62,-63,-138,999,2038,-7669,1745173816221482179
87714,53,-40,-116,963,1802,-7717,1745173816221482179
87906,31,-17,-87,1064,1660,-7765,1745173816221482179
88098,2,2,-52,1203,1627,-7776,1745173816221482179
88290,-24,13,-9,1344,1673,-7777,1745173816221482179
88482,-45,14,23,1453,1754,-7800,1745173816221482179
88674,-58,7,27,1497,1849,-7812,1745173816283381562
88866,-60,-3,8,1469,1921,-7783,1745173816283381562
89058,-56,-10,-23,1463,1948,-7772,1745173816283381562
89250,-50,-16,-53,1401,1965,-7762,1745173816283381562
89442,-47,-22,-74,1359,1939,-7748,1745173816283381562
89634,-45,-27,-90,1306,1924,-7743,1745173816283381562
89826,-47,-31,-100,1284,1901,-7736,1745173816283381562
90018,-47,-34,-102,1275,1897,-7734,1745173816283381562
90210,-50,-35,-98,1283,1897,-7741,1745173816283381562
90402,-53,-37,-88,1283,1918,-7765,1745173816283381562
90594,-58,-38,-76,1253,1938,-7792,1745173816283381562
90786,-62,-39,-67,1245,1974,-7790,1745173816283381562
90978,-65,-39,-63,1223,2013,-7798,1745173816341866236
91170,-67,-36,-61,1219,2027,-7806,1745173816341866236
91362,-69,-32,-61,1241,2042,-7804,1745173816341866236
91554,-69,-28,-61,1262,2054,-7827,1745173816341866236
91746,-69,-25,-61,1292,2080,-7808,1745173816341866236
91938,-66,-20,-62,1335,2100,-7827,1745173816341866236
92130,-61,-17,-61,1335,2127,-7822,1745173816341866236
92322,-55,-17,-61,1356,2127,-7798,1745173816341866236
92514,-49,-19,-62,1360,2117,-7762,1745173816341866236
92706,-44,-20,-62,1354,2108,-7729,1745173816341866236
92898,-41,-20,-60,1319,2099,-7714,1745173816341866236
93090,-41,-21,-57,1300,2098,-7725,1745173816341866236
93282,-44,-21,-55,1257,2093,-7731,1745173816397744527
93474,-45,-21,-52,1237,2099,-7755,1745173816397744527
93666,-45,-21,-50,1207,2107,-7782,1745173816397744527
93858,-43,-20,-48,1209,2101,-7797,1745173816397744527
94050,-39,-17,-47,1178,2099,-7826,1745173816397744527
94242,-35,-12,-47,1178,2073,-7838,1745173816397744527
94434,-31,-7,-46,1179,2055,-7840,1745173816397744527
94626,-28,0,-43,1199,2046,-7837,1745173816397744527
94818,-29,6,-40,1222,2043,-7835,1745173816397744527
95010,-30,12,-34,1267,2043,-7844,1745173816397744527
95202,-30,18,-28,1283,2071,-7821,1745173816397744527
95394,-29,24,-25,1308,2082,-7793,1745173816397744527
95586,-30,29,-23,1325,2098,-7774,1745173816458116215
95778,-29,33,-21,1371,2108,-7757,1745173816458116215
95970,-26,34,-20,1381,2103,-7734,1745173816458116215
96162,-23,34,-19,1405,2122,-7751,1745173816458116215
96354,-19,34,-20,1387,2143,-7747,1745173816458116215
96546,-15,36,-21,1372,2163,-7736,1745173816458116215
96738,-10,37,-22,1360,2183,-7755,1745173816458116215
96930,-3,36,-23,1352,2190,-7756,1745173816458116215
97122,5,37,-23,1345,2179,-7763,1745173816458116215
97314,11,37,-24,1330,2126,-7748,1745173816458116215
97506,16,37,-24,1339,2108,-7754,1745173816458116215
97698,19,37,-22,1326,2057,-7768,1745173816458116215
97890,19,37,-18,1312,2035,-7795,1745173816514863457
98082,17,37,-13,1294,2010,-7819,1745173816514863457
98274,14,38,-10,1282,1999,-7803,1745173816514863457
98466,9,38,-9,1295,1975,-7780,1745173816514863457
98658,4,39,-9,1317,1971,-7755,1745173816514863457
98850,-2,39,-7,1331,1960,-7750,1745173816514863457
99042,-10,37,-4,1346,1986,-7754,1745173816514863457
99234,-18,36,0,1357,2012,-7732,1745173816514863457
99426,-25,35,3,1370,2053,-7734,1745173816514863457
99618,-29,33,10,1401,2079,-7740,1745173816514863457
99810,-31,28,15,1406,2125,-7721,1745173816514863457
100002,-33,25,19,1396,2164,-7711,1745173816514863457
100194,-32,21,24,1363,2206,-7703,1745173816574353435
100386,-26,18,28,1338,2252,-7710,1745173816574353435
100578,-16,15,33,1322,2290,-7729,1745173816574353435
100770,-1,12,37,1328,2284,-7753,1745173816574353435
100962,13,8,40,1342,2281,-7726,1745173816574353435
101154,22,5,43,1374,2240,-7693,1745173816574353435
101346,31,0,47,1396,2167,-7684,1745173816574353435
101538,34,-6,54,1423,2095,-7706,1745173816574353435
101730,34,-13,59,1396,2059,-7734,1745173816574353435
101922,31,-17,64,1384,2018,-7736,1745173816574353435
102114,26,-20,68,1357,1984,-7740,1745173816574353435
102306,18,-22,71,1360,1951,-7747,1745173816574353435
102498,10,-24,72,1371,1945,-7736,1745173816639566016
102690,2,-28,72,1397,1946,-7726,1745173816639566016
102882,-7,-33,71,1422,1954,-7708,1745173816639566016
103074,-13,-38,70,1436,1976,-7685,1745173816639566016
103266,-17,-43,70,1406,2022,-7691,1745173816639566016
103458,-18,-48,71,1414,2059,-7700,1745173816639566016
103650,-18,-53,73,1395,2104,-7714,1745173816639566016
103842,-18,-59,74,1401,2127,-7728,1745173816639566016
104034,-16,-62,76,1386,2141,-7736,1745173816639566016
104226,-10,-65,79,1364,2129,-7743,1745173816639566016
104418,-4,-66,82,1357,2117,-7743,1745173816639566016
104610,0,-69,85,1363,2100,-7749,1745173816639566016
104802,2,-70,86,1339,2071,-7771,1745173816692504699
104994,2,-70,88,1318,2046,-7787,1745173816692504699
105186,2,-68,90,1306,2016,-7792,1745173816692504699
105378,-1,-66,90,1292,1998,-7790,1745173816692504699
105570,-6,-64,89,1295,2006,-7775,1745173816692504699
105762,-10,-62,87,1284,2003,-7771,1745173816692504699
105954,-13,-61,83,1283,2019,-7778,1745173816692504699
106146,-12,-58,80,1279,2033,-7783,1745173816692504699
106338,-8,-57,74,1295,2037,-7792,1745173816692504699
106530,-4,-55,69,1285,2033,-7805,1745173816692504699
106722,-1,-55,64,1294,2010,-7804,1745173816692504699
106914,0,-53,60,1297,1984,-7819,1745173816692504699
107106,0,-52,56,1296,1942,-7819,1745173816751654315
107298,-1,-50,54,1283,1915,-7819,1745173816751654315
107490,-2,-47,51,1249,1901,-7823,1745173816751654315
107682,-3,-41,49,1234,1898,-7829,1745173816751654315
107874,-7,-35,45,1218,1903,-7834,1745173816751654315
108066,-10,-28,41,1225,1899,-7833,1745173816751654315
108258,-13,-22,37,1224,1926,-7852,1745173816751654315
108450,-15,-16,31,1223,1950,-7863,1745173816751654315
108642,-15,-8,26,1251,1978,-7858,1745173816751654315
108834,-15,0,20,1232,2007,-7848,1745173816751654315
109026,-14,6,15,1237,2025,-7838,1745173816751654315
109218,-9,12,12,1231,2051,-7819,1745173816751654315
109410,-5,18,11,1250,2078,-7807,1745173816811354082
109602,1,22,9,1259,2080,-7811,1745173816811354082
109794,5,28,8,1255,2081,-7799,1745173816811354082
109986,8,31,7,1267,2073,-7796,1745173816811354082
110178,12,34,6,1278,2056,-7794,1745173816811354082
110370,14,37,5,1259,2041,-7814,1745173816811354082
110562,15,41,4,1273,2018,-7792,1745173816811354082
110754,18,45,3,1297,1995,-7801,1745173816811354082
110946,21,48,3,1316,1966,-7812,1745173816811354082
111138,22,50,2,1331,1953,-7815,1745173816811354082
111330,21,52,0,1337,1938,-7805,1745173816811354082
111522,18,55,-2,1336,1938,-7801,1745173816811354082
111714,14,56,-3,1348,1919,-7798,1745173816866487120
111906,9,58,-6,1345,1930,-7788,1745173816866487120
112098,2,59,-7,1345,1962,-7771,1745173816866487120
112290,-5,62,-9,1357,1993,-7780,1745173816866487120
112482,-11,63,-10,1348,2032,-7771,1745173816866487120
112674,-15,63,-12,1364,2087,-7752,1745173816866487120
112866,-15,65,-14,1355,2132,-7729,1745173816866487120
113058,-12,63,-15,1387,2169,-7714,1745173816866487120
113250,-7,60,-15,1392,2176,-7717,1745173816866487120
113442,-1,56,-14,1392,2170,-7727,1745173816866487120
113634,7,51,-11,1409,2164,-7737,1745173816866487120
113826,15,47,-8,1384,2125,-7758,1745173816866487120
114018,23,44,-7,1370,2081,-7758,1745173816926821361
114210,27,41,-7,1344,2017,-7778,1745173816926821361
114402,26,36,-6,1332,1947,-7778,1745173816926821361
114594,24,31,-5,1299,1867,-7767,1745173816926821361
114786,19,26,-2,1306,1817,-7754,1745173816926821361
114978,11,22,0,1295,1783,-7734,1745173816926821361
115170,0,17,1,1290,1766,-7730,1745173816926821361
115362,-12,13,-1,1297,1779,-7729,1745173816926821361
115554,-25,9,-4,1294,1816,-7736,1745173816926821361
115746,-38,5,-7,1319,1850,-7735,1745173816926821361
115938,-49,-1,-11,1319,1906,-7730,1745173816926821361
116130,-58,-4,-15,1323,1963,-7729,1745173816926821361
116322,-64,-7,-20,1331,2019,-7746,1745173816985026819
116514,-65,-11,-23,1313,2073,-7756,1745173816985026819
116706,-62,-15,-24,1322,2127,-7752,1745173816985026819
116898,-58,-17,-25,1323,2148,-7748,1745173816985026819
117090,-52,-20,-26,1339,2159,-7742,1745173816985026819
117282,-45,-22,-27,1325,2144,-7742,1745173816985026819
117474,-38,-26,-28,1345,2120,-7745,1745173816985026819
117666,-33,-28,-28,1352,2086,-7743,1745173816985026819
117858,-30,-28,-27,1366,2065,-7759,1745173816985026819
118050,-27,-28,-29,1360,2039,-7756,1745173816985026819
118242,-27,-28,-32,1374,2010,-7800,1745173816985026819
118434,-27,-27,-36,1374,1980,-7789,1745173816985026819
118626,-26,-26,-40,1362,1963,-7776,1745173817044162685
118818,-27,-25,-42,1376,1936,-7773,1745173817044162685
119010,-29,-25,-43,1367,1938,-7765,1745173817044162685
119202,-32,-23,-42,1372,1964,-7770,1745173817044162685
119394,-35,-22,-41,1374,1992,-7777,1745173817044162685
119586,-38,-22,-42,1344,2035,-7769,1745173817044162685
119778,-37,-23,-43,1327,2042,-7761,1745173817044162685
119970,-35,-23,-44,1316,2067,-7757,1745173817044162685
120162,-32,-22,-46,1301,2083,-7743,1745173817044162685
120354,-30,-20,-47,1294,2093,-7751,1745173817044162685
120546,-28,-19,-47,1273,2132,-7766,1745173817044162685
120738,-25,-18,-46,1265,2150,-7777,1745173817044162685
120930,-21,-16,-45,1276,2159,-7778,1745173817099356347
121122,-16,-15,-43,1277,2153,-7781,1745173817099356347
121314,-12,-17,-41,1295,2144,-7764,1745173817099356347
121506,-11,-18,-41,1299,2124,-7734,1745173817099356347
121698,-9,-19,-40,1300,2102,-7756,1745173817099356347
121890,-8,-18,-38,1314,2090,-7781,1745173817099356347
122082,-8,-18,-36,1295,2081,-7793,1745173817099356347
122274,-8,-17,-35,1303,2055,-7796,1745173817099356347
122466,-7,-17,-35,1298,2039,-7791,1745173817099356347
122658,-8,-16,-35,1319,2025,-7799,1745173817099356347
122850,-10,-14,-34,1317,2026,-7784,1745173817099356347
123042,-13,-12,-31,1320,2041,-7776,1745173817099356347
123234,-14,-12,-28,1312,2048,-7784,1745173817158000603
123426,-16,-13,-26,1300,2052,-7769,1745173817158000603
123618,-17,-14,-23,1304,2073,-7744,1745173817158000603
123810,-17,-16,-19,1292,2066,-7750,1745173817158000603
124002,-17,-17,-16,1270,2084,-7746,1745173817158000603
124194,-17,-20,-13,1279,2103,-7757,1745173817158000603
124386,-20,-23,-10,1283,2104,-7744,1745173817158000603
124578,-21,-25,-9,1283,2101,-7744,1745173817158000603
124770,-22,-26,-8,1284,2107,-7741,1745173817158000603
124962,-23,-28,-6,1278,2123,-7732,1745173817158000603
125154,-23,-30,-4,1277,2119,-7716,1745173817158000603
125346,-24,-32,-2,1297,2110,-7711,1745173817158000603
125538,-25,-35,0,1307,2133,-7707,1745173817226789402
125730,-23,-39,2,1323,2126,-7721,1745173817226789402
125922,-20,-41,4,1319,2125,-7744,1745173817226789402
126114,-15,-41,3,1326,2154,-7757,1745173817226789402
126306,-11,-40,2,1306,2154,-7760,1745173817226789402
126498,-9,-40,2,1288,2131,-7771,1745173817226789402
126690,-7,-41,3,1290,2120,-7759,1745173817226789402
126882,-4,-44,6,1285,2083,-7762,1745173817226789402
127074,-4,-45,11,1278,2057,-7758,1745173817226789402
127266,-8,-45,15,1255,2029,-7763,1745173817226789402
127458,-14,-45,19,1242,2026,-7772,1745173817226789402
127650,-18,-46,22,1226,2028,-7776,1745173817226789402
127842,-20,-45,23,1223,2034,-7797,1745173817275640935
128034,-21,-43,23,1216,2031,-7808,1745173817275640935
128226,-23,-40,21,1195,2056,-7811,1745173817275640935
128418,-26,-39,19,1180,2068,-7797,1745173817275640935
128610,-27,-37,18,1195,2083,-7778,1745173817275640935
128802,-25,-36,17,1196,2094,-7777,1745173817275640935
128994,-23,-35,18,1201,2126,-7784,1745173817275640935
129186,-20,-35,19,1210,2131,-7801,1745173817275640935
129378,-17,-32,19,1181,2142,-7798,1745173817275640935
129570,-14,-30,20,1190,2137,-7796,1745173817275640935
129762,-10,-27,20,1177,2117,-7796,1745173817275640935
129954,-7,-25,18,1192,2086,-7798,1745173817275640935
130146,-5,-22,17,1185,2071,-7802,1745173817335973821
130338,-4,-21,16,1197,2052,-7796,1745173817335973821
130530,-4,-18,15,1173,2029,-7799,1745173817335973821
130722,-6,-15,15,1192,2026,-7791,1745173817335973821
130914,-8,-12,15,1193,2027,-7786,1745173817335973821
131106,-12,-9,14,1201,2029,-7810,1745173817335973821
131298,-14,-5,12,1184,2030,-7803,1745173817335973821
131490,-15,-2,9,1196,2033,-7807,1745173817335973821
131682,-15,0,6,1219,2051,-7797,1745173817335973821
131874,-16,3,4,1218,2059,-7783,1745173817335973821
132066,-16,6,4,1195,2072,-7767,1745173817335973821
132258,-15,9,4,1206,2103,-7781,1745173817335973821
132450,-15,12,3,1207,2103,-7805,1745173817392538304
132642,-12,13,1,1201,2116,-7812,1745173817392538304
132834,-9,15,-2,1186,2115,-7810,1745173817392538304
133026,-4,18,-3,1195,2108,-7784,1745173817392538304
133218,-1,22,-5,1200,2092,-7795,1745173817392538304
133410,1,25,-6,1213,2078,-7789,1745173817392538304
133602,1,27,-6,1206,2074,-7788,1745173817392538304
133794,0,29,-6,1223,2075,-7795,1745173817392538304
133986,-1,30,-5,1213,2075,-7785,1745173817392538304
134178,0,32,-5,1212,2077,-7787,1745173817392538304
134370,2,32,-6,1228,2073,-7779,1745173817392538304
134562,2,32,-7,1224,2075,-7764,1745173817392538304
134754,2,32,-9,1237,2067,-7765,1745173817453112022
134946,2,32,-9,1244,2074,-7760,1745173817453112022
135138,1,31,-8,1260,2063,-7771,1745173817453112022
135330,0,31,-9,1263,2077,-7765,1745173817453112022
135522,1,32,-9,1253,2087,-7765,1745173817453112022
135714,2,32,-9,1259,2087,-7752,1745173817453112022
135906,3,31,-9,1271,2096,-7750,1745173817453112022
136098,3,29,-8,1271,2111,-7748,1745173817453112022
136290,2,29,-6,1277,2124,-7763,1745173817453112022
136482,2,29,-6,1282,2133,-7760,1745173817453112022
136674,3,27,-7,1281,2118,-7762,1745173817453112022
136866,6,24,-7,1275,2119,-7762,1745173817453112022
137058,8,22,-8,1260,2091,-7767,1745173817509721349
137250,9,20,-7,1252,2081,-7747,1745173817509721349
137442,8,19,-5,1254,2074,-7751,1745173817509721349
137634,5,18,-1,1247,2053,-7758,1745173817509721349
137826,2,18,2,1243,2076,-7757,1745173817509721349
138018,1,16,4,1264,2086,-7757,1745173817509721349
138210,0,15,5,1268,2097,-7757,1745173817509721349
138402,0,13,6,1278,2097,-7761,1745173817509721349
138594,1,10,5,1286,2124,-7729,1745173817509721349
138786,3,7,6,1299,2095,-7739,1745173817509721349
138978,6,3,6,1299,2090,-7736,1745173817509721349
139170,6,-1,8,1300,2068,-7743,1745173817509721349
139362,4,-5,10,1294,2067,-7745,1745173817572069060
139554,2,-7,14,1283,2051,-7757,1745173817572069060
139746,0,-8,15,1270,2066,-7736,1745173817572069060
139938,-2,-7,16,1265,2084,-7760,1745173817572069060
140130,-3,-8,16,1267,2096,-7777,1745173817572069060
140322,-4,-10,15,1264,2123,-7762,1745173817572069060
140514,-4,-11,15,1253,2125,-7742,1745173817572069060
140706,-1,-12,15,1263,2107,-7738,1745173817572069060
140898,3,-15,17,1270,2116,-7754,1745173817572069060
141090,4,-18,18,1275,2102,-7772,1745173817572069060
141282,3,-20,19,1262,2081,-7779,1745173817572069060
141474,1,-22,20,1253,2066,-7782,1745173817572069060
141666,-1,-21,21,1229,2049,-7776,1745173817626158827
141858,-3,-21,21,1222,2043,-7772,1745173817626158827
142050,-4,-22,21,1235,2026,-7776,1745173817626158827
142242,-7,-22,20,1229,2032,-7778,1745173817626158827
142434,-8,-24,20,1231,2044,-7762,1745173817626158827
142626,-10,-25,21,1221,2033,-7781,1745173817626158827
142818,-11,-25,22,1226,2047,-7786,1745173817626158827
143010,-10,-25,21,1227,2049,-7779,1745173817626158827
143202,-8,-26,21,1222,2051,-7775,1745173817626158827
143394,-7,-25,20,1228,2062,-7776,1745173817626158827
143586,-4,-25,19,1236,2062,-7789,1745173817626158827
143778,-2,-24,18,1217,2079,-7790,1745173817626158827
143970,-1,-23,17,1234,2071,-7799,1745173817686632962
144162,0,-21,17,1231,2079,-7778,1745173817686632962
144354,2,-21,18,1259,2071,-7755,1745173817686632962
144546,2,-21,19,1245,2070,-7778,1745173817686632962
144738,0,-23,18,1254,2057,-7792,1745173817686632962
144930,-1,-23,18,1234,2054,-7805,1745173817686632962
145122,-1,-22,17,1204,2052,-7787,1745173817686632962
145314,-1,-19,15,1202,2047,-7788,1745173817686632962
145506,-2,-16,13,1179,2038,-7792,1745173817686632962
145698,-1,-14,13,1186,2055,-7800,1745173817686632962
145890,0,-11,12,1183,2058,-7808,1745173817686632962
146082,1,-8,12,1192,2075,-7803,1745173817686632962
146274,2,-7,12,1186,2082,-7783,1745173817743185518
146466,4,-6,14,1215,2081,-7804,1745173817743185518
146658,6,-4,13,1217,2061,-7835,1745173817743185518
146850,7,-1,12,1200,2057,-7816,1745173817743185518
147042,9,1,13,1202,2046,-7776,1745173817743185518
147234,9,0,13,1203,2041,-7781,1745173817743185518
147426,9,-3,14,1191,2024,-7777,1745173817743185518
147618,7,-3,14,1182,2030,-7778,1745173817743185518
147810,4,-1,15,1189,2038,-7785,1745173817743185518
148002,2,1,14,1175,2055,-7787,1745173817743185518
148194,0,4,11,1173,2068,-7786,1745173817743185518
148386,0,4,7,1217,2075,-7784,1745173817743185518
148578,2,4,4,1239,2061,-7781,1745173817803584966
148770,2,3,3,1267,2045,-7772,1745173817803584966
148962,0,1,3,1271,2025,-7793,1745173817803584966
149154,-2,0,4,1248,2016,-7804,1745173817803584966
149346,-2,-1,7,1231,2021,-7786,1745173817803584966
149538,-3,1,8,1234,2021,-7794,1745173817803584966
149730,-4,3,7,1212,2028,-7782,1745173817803584966
149922,-5,3,5,1207,2031,-7766,1745173817803584966
150114,-9,4,4,1209,2046,-7764,1745173817803584966
150306,-11,4,3,1206,2059,-7794,1745173817803584966
150498,-12,3,2,1205,2069,-7801,1745173817803584966
150690,-11,2,1,1201,2059,-7818,1745173817803584966
150882,-9,4,0,1190,2060,-7819,1745173817860997202
151074,-5,8,-3,1190,2039,-7841,1745173817860997202
151266,-4,13,-5,1195,2028,-7852,1745173817860997202
151458,-4,19,-6,1186,1986,-7853,1745173817860997202
151650,-3,25,-7,1192,1949,-7847,1745173817860997202
151842,-3,30,-8,1207,1945,-7868,1745173817860997202
152034,-6,36,-9,1196,1926,-7885,1745173817860997202
152226,-11,43,-11,1177,1922,-7919,1745173817860997202
152418,-15,54,-16,1184,1892,-7983,1745173817860997202
152610,-19,64,-23,1179,1863,-8028,1745173817860997202
152802,-21,78,-30,1193,1808,-8058,1745173817860997202
152994,-23,93,-38,1240,1747,-8079,1745173817860997202
153186,-30,116,-44,1272,1675,-8148,1745173817920627855
153378,-43,139,-50,1293,1614,-8186,1745173817920627855
153570,-65,165,-54,1319,1557,-8284,1745173817920627855
153762,-88,189,-56,1319,1528,-8354,1745173817920627855
153954,-106,215,-58,1289,1523,-8437,1745173817920627855
154146,-120,246,-65,1280,1492,-8582,1745173817920627855
154338,-134,281,-76,1319,1434,-8683,1745173817920627855
154530,-144,314,-83,1455,1309,-8861,1745173817920627855
154722,-146,346,-89,1677,1101,-9126,1745173817920627855
154914,-139,375,-96,1943,882,-9397,1745173817920627855
155106,-121,408,-99,2201,715,-9634,1745173817920627855
155298,-105,430,-103,2610,477,-9905,1745173817920627855
155490,-105,427,-109,3102,206,-10452,1745173817979479714
155682,-103,402,-98,3631,-32,-10738,1745173817979479714
155874,-32,353,-22,4029,-146,-11253,1745173817979479714
156066,51,312,53,3840,29,-11750,1745173817979479714
156258,128,380,99,4205,-83,-11395,1745173817979479714
156450,136,292,125,4936,-579,-11326,1745173817979479714
156642,108,185,170,5345,-971,-11530,1745173817979479714
156834,21,103,243,5653,-1146,-12218,1745173817979479714
157026,-110,25,308,5757,-1181,-12518,1745173817979479714
157218,-223,-19,369,6128,-1809,-13955,1745173817979479714
157410,-162,-4,486,6873,-2619,-14377,1745173817979479714
157602,172,159,964,8558,-1473,-14769,1745173817979479714
157794,668,147,1525,10976,-2156,-15068,1745173818035352068
157986,1201,-244,1795,11146,-3345,-15572,1745173818035352068
158178,1894,-676,1895,10124,-4697,-14998,1745173818035352068
158370,2490,-1040,1876,8991,-5780,-14895,1745173818035352068
158562,2729,-1188,1831,8394,-7116,-14614,1745173818035352068
158754,2484,-1273,1793,7521,-8513,-14224,1745173818035352068
158946,2080,-1273,1913,7425,-9732,-13360,1745173818035352068
159138,1721,-1261,2157,7304,-10336,-13017,1745173818035352068
159330,1326,-1124,2567,6922,-10162,-13221,1745173818035352068
159522,882,-1093,3040,6734,-9606,-13390,1745173818035352068
159714,496,-1197,3388,6879,-8935,-13270,1745173818035352068
159906,183,-1324,3561,7219,-8177,-13137,1745173818035352068
160098,-47,-1460,3618,7392,-7423,-12861,1745173818093514557
160290,-214,-1548,3610,7430,-6591,-12483,1745173818093514557
160482,-327,-1625,3600,7339,-5610,-12113,1745173818093514557
160674,-367,-1662,3625,7121,-4551,-11664,1745173818093514557
160866,-361,-1675,3701,6813,-3618,-11305,1745173818093514557
161058,-318,-1682,3800,6663,-2866,-10981,1745173818093514557
161250,-236,-1729,3889,6524,-2257,-10666,1745173818093514557
161442,-131,-1753,3937,6316,-1785,-10503,1745173818093514557
161634,-23,-1735,3952,5973,-1355,-10296,1745173818093514557
161826,89,-1697,3974,5627,-927,-10058,1745173818093514557
162018,199,-1636,4029,5310,-515,-9847,1745173818093514557
162210,296,-1558,4117,5164,-154,-9615,1745173818093514557
162402,374,-1469,4230,5031,215,-9354,1745173818159241353
162594,427,-1364,4358,5055,528,-9093,1745173818159241353
162786,459,-1258,4477,5148,769,-8715,1745173818159241353
162978,476,-1152,4572,5331,969,-8317,1745173818159241353
163170,495,-1051,4641,5566,1112,-7899,1745173818159241353
163362,517,-960,4679,5771,1285,-7470,1745173818159241353
163554,525,-880,4700,6003,1517,-6998,1745173818159241353
163746,516,-812,4711,6233,1768,-6661,1745173818159241353
163938,495,-752,4729,6410,2012,-6305,1745173818159241353
164130,482,-698,4756,6509,2325,-6068,1745173818159241353
164322,480,-646,4785,6602,2705,-5932,1745173818159241353
164514,493,-603,4813,6643,3096,-5738,1745173818159241353
164706,525,-559,4839,6703,3451,-5537,1745173818244854321
164898,578,-528,4855,6783,3668,-5389,1745173818244854321
165090,638,-507,4865,6891,3827,-5251,1745173818244854321
165282,689,-497,4870,6986,3886,-5186,1745173818244854321
165474,724,-482,4868,6989,3935,-5118,1745173818244854321
165666,738,-459,4863,6946,3990,-5006,1745173818244854321
165858,730,-423,4851,6896,4053,-4918,1745173818244854321
166050,696,-370,4832,6861,4148,-4889,1745173818244854321
166242,642,-310,4809,6856,4284,-4836,1745173818244854321
166434,581,-243,4791,6835,4423,-4670,1745173818244854321
166626,517,-191,4783,6926,4511,-4366,1745173818244854321
166818,454,-153,4758,6941,4566,-4024,1745173818244854321
167010,389,-109,4729,6808,4690,-3780,1745173818265901316
167202,318,-62,4711,6679,4787,-3631,1745173818265901316
167394,251,-6,4688,6511,4886,-3608,1745173818265901316
167586,199,60,4659,6301,5048,-3648,1745173818265901316
167778,159,129,4630,6116,5177,-3772,1745173818265901316
167970,137,195,4590,5973,5290,-3934,1745173818265901316
168162,131,249,4544,5924,5325,-4057,1745173818265901316
168354,147,291,4485,5907,5217,-4108,1745173818265901316
168546,196,325,4412,5807,5153,-4123,1745173818265901316
168738,275,350,4348,5736,5083,-4296,1745173818265901316
168930,359,371,4269,5651,5079,-4481,1745173818265901316
169122,422,394,4164,5505,5129,-4570,1745173818265901316
169314,456,415,4051,5365,5218,-4634,1745173818341439167
169506,466,420,3948,5215,5232,-4540,1745173818341439167
169698,456,397,3858,5027,5177,-4520,1745173818341439167
169890,425,358,3773,4759,5093,-4472,1745173818341439167
170082,368,318,3687,4409,5017,-4469,1745173818341439167
170274,277,284,3602,4057,4911,-4641,1745173818341439167
170466,155,249,3519,3680,4741,-4825,1745173818341439167
170658,16,209,3442,3310,4545,-4900,1745173818341439167
170850,-119,168,3369,2871,4398,-4984,1745173818341439167
171042,-246,136,3304,2575,4146,-5198,1745173818341439167
171234,-369,136,3199,2234,4021,-5320,1745173818341439167
171426,-482,130,3088,1795,4083,-5441,1745173818341439167
171618,-566,157,3008,1532,4067,-5518,1745173818391055850
171810,-630,203,2939,1413,4079,-5645,1745173818391055850
172002,-691,234,2856,1285,4194,-5876,1745173818391055850
172194,-734,226,2751,1096,4412,-5959,1745173818391055850
172386,-743,216,2622,857,4663,-6002,1745173818391055850
172578,-732,213,2484,663,4834,-6076,1745173818391055850
172770,-710,209,2343,547,4879,-6084,1745173818391055850
172962,-687,210,2199,454,4891,-6081,1745173818391055850
173154,-669,203,2058,444,4783,-6056,1745173818391055850
173346,-654,189,1921,404,4594,-6164,1745173818391055850
173538,-635,175,1789,390,4373,-6299,1745173818391055850
173730,-611,159,1660,327,4233,-6434,1745173818391055850
173922,-585,150,1538,282,4133,-6544,1745173818445891026
174114,-566,135,1423,223,4042,-6622,1745173818445891026
174306,-553,118,1317,166,3939,-6658,1745173818445891026
174498,-542,101,1218,111,3849,-6741,1745173818445891026
174690,-532,83,1127,18,3781,-6787,1745173818445891026
174882,-523,71,1044,-31,3732,-6876,1745173818445891026
175074,-512,66,965,-105,3661,-7030,1745173818445891026
175266,-495,63,889,-165,3608,-7109,1745173818445891026
175458,-469,75,824,-185,3518,-7190,1745173818445891026
175650,-445,95,772,-144,3351,-7303,1745173818445891026
175842,-421,118,729,-84,3190,-7382,1745173818445891026
176034,-395,142,694,-49,3084,-7420,1745173818445891026
176226,-367,156,665,5,2969,-7437,1745173818516590692
176418,-339,164,640,27,2868,-7446,1745173818516590692
176610,-305,181,618,61,2793,-7454,1745173818516590692
176802,-273,197,601,118,2733,-7526,1745173818516590692
176994,-243,197,587,215,2716,-7589,1745173818516590692
177186,-216,195,570,231,2737,-7608,1745173818516590692
177378,-193,195,564,223,2783,-7661,1745173818516590692
177570,-172,185,569,278,2781,-7671,1745173818516590692
177762,-150,168,576,359,2796,-7671,1745173818516590692
177954,-117,144,568,627,2660,-7758,1745173818516590692
178146,-112,126,478,590,2517,-7774,1745173818516590692
178338,-155,140,333,244,2522,-7865,1745173818516590692
178530,-185,141,241,104,2514,-7910,1745173818567133512
178722,-150,143,234,-39,2568,-7918,1745173818567133512
178914,-100,195,305,-222,2670,-7817,1745173818567133512
179106,-57,186,433,37,2671,-7906,1745173818567133512
179298,-18,191,532,251,2565,-8033,1745173818567133512
179490,-5,220,565,177,2440,-8111,1745173818567133512
179682,1,235,552,202,2277,-8131,1745173818567133512
179874,13,239,480,305,2101,-8230,1745173818567133512
180066,21,230,377,334,2017,-8256,1745173818567133512
180258,18,224,291,408,1927,-8198,1745173818567133512
180450,12,226,249,398,1912,-8158,1745173818567133512
180642,8,240,253,377,1956,-8107,1745173818567133512
180834,10,250,285,418,1972,-7978,1745173818626785207
181026,15,238,310,475,1913,-7888,1745173818626785207
181218,28,232,310,463,1815,-7830,1745173818626785207
181410,50,228,289,407,1745,-7795,1745173818626785207
181602,83,224,257,435,1646,-7833,1745173818626785207
181794,110,216,203,516,1535,-7914,1745173818626785207
181986,125,207,130,578,1503,-8021,1745173818626785207
182178,133,198,62,595,1522,-8129,1745173818626785207
182370,139,189,25,605,1533,-8127,1745173818626785207
182562,151,172,20,630,1548,-8091,1745173818626785207
182754,167,157,30,623,1586,-8097,1745173818626785207
182946,185,141,41,666,1560,-8105,1745173818626785207
183138,202,126,37,676,1461,-8051,1745173818684138172
183330,212,115,21,692,1312,-7923,1745173818684138172
183522,209,105,1,680,1115,-8011,1745173818684138172
183714,201,103,-20,676,887,-8162,1745173818684138172
183906,192,104,-37,637,771,-8192,1745173818684138172
184098,175,113,-36,595,706,-8197,1745173818684138172
184290,150,123,-24,556,696,-8185,1745173818684138172
184482,124,138,-7,568,712,-8176,1745173818684138172
184674,105,152,10,582,736,-8152,1745173818684138172
184866,92,163,23,652,752,-8152,1745173818684138172
185058,87,167,31,754,751,-8140,1745173818684138172
185250,84,165,42,822,764,-8128,1745173818684138172
185442,78,157,57,896,768,-8103,1745173818743961740
185634,65,141,64,942,769,-8109,1745173818743961740
185826,48,120,62,945,745,-8144,1745173818743961740
186018,29,98,51,960,696,-8154,1745173818743961740
186210,17,83,30,948,655,-8127,1745173818743961740
186402,6,69,3,866,636,-8116,1745173818743961740
186594,-4,64,-22,811,596,-8148,1745173818743961740
186786,-17,57,-46,751,597,-8149,1745173818743961740
186978,-30,55,-57,717,550,-8207,1745173818743961740
187170,-44,61,-62,707,567,-8212,1745173818743961740
187362,-49,62,-57,755,563,-8237,1745173818743961740
187554,-51,71,-51,801,571,-8282,1745173818743961740
187746,-49,74,-46,864,600,-8301,1745173818801042521
187938,-44,77,-39,929,612,-8310,1745173818801042521
188130,-34,76,-35,985,612,-8317,1745173818801042521
188322,-20,70,-34,1013,568,-8335,1745173818801042521
188514,-5,57,-41,1060,553,-8345,1745173818801042521
188706,7,47,-57,1088,550,-8396,1745173818801042521
188898,12,39,-89,1098,515,-8422,1745173818801042521
189090,5,38,-143,991,426,-8445,1745173818801042521
189282,-6,37,-205,766,418,-8474,1745173818801042521
189474,3,42,-232,635,429,-8429,1745173818801042521
189666,28,47,-203,575,489,-8415,1745173818801042521
189858,53,70,-132,596,546,-8381,1745173818801042521
190050,76,89,-60,681,573,-8411,1745173818860779215
190242,95,105,-15,810,530,-8432,1745173818860779215
190434,104,111,-14,915,434,-8455,1745173818860779215
190626,112,109,-37,997,340,-8489,1745173818860779215
190818,121,99,-49,1071,296,-8518,1745173818860779215
191010,126,86,-37,1145,235,-8522,1745173818860779215
191202,121,70,-15,1186,167,-8525,1745173818860779215
191394,113,54,-1,1136,96,-8532,1745173818860779215
191586,104,43,2,1100,36,-8526,1745173818860779215
191778,94,36,-9,1084,-47,-8585,1745173818860779215
191970,87,34,-25,1092,-104,-8574,1745173818860779215
192162,83,33,-40,1087,-151,-8550,1745173818860779215
192354,80,33,-45,1060,-159,-8507,1745173818924700558
192546,74,31,-39,1007,-136,-8492,1745173818924700558
192738,66,33,-23,952,-117,-8480,1745173818924700558
192930,55,26,-11,958,-96,-8473,1745173818924700558
193122,46,17,-8,975,-90,-8469,1745173818924700558
193314,34,8,-12,1003,-87,-8470,1745173818924700558
193506,25,1,-16,1026,-47,-8428,1745173818924700558
193698,15,-4,-19,1089,-23,-8341,1745173818924700558
193890,8,-13,-15,1108,-13,-8265,1745173818924700558
194082,4,-23,-6,1134,-8,-8227,1745173818924700558
194274,6,-34,5,1133,33,-8213,1745173818924700558
194466,8,-45,13,1131,77,-8217,1745173818924700558
194658,8,-56,15,1113,115,-8214,1745173818975589104
194850,7,-67,13,1046,157,-8213,1745173818975589104
195042,6,-72,11,974,187,-8215,1745173818975589104
195234,7,-69,10,916,202,-8188,1745173818975589104
195426,10,-67,11,895,199,-8152,1745173818975589104
195618,12,-65,10,902,172,-8126,1745173818975589104
195810,14,-63,10,930,154,-8077,1745173818975589104
196002,13,-61,11,979,149,-8012,1745173818975589104
196194,11,-60,11,1002,130,-7986,1745173818975589104
196386,5,-61,12,1001,135,-7974,1745173818975589104
196578,-2,-65,13,991,132,-7969,1745173818975589104
196770,-12,-69,11,968,150,-7982,1745173818975589104
196962,-18,-73,7,937,183,-7965,1745173819035996677
197154,-16,-71,3,894,233,-7962,1745173819035996677
197346,-9,-62,4,879,296,-7969,1745173819035996677
197538,-3,-48,13,895,346,-7946,1745173819035996677
197730,6,-35,25,947,361,-7917,1745173819035996677
197922,16,-28,35,1012,345,-7883,1745173819035996677
198114,29,-27,40,1044,332,-7845,1745173819035996677
198306,42,-28,43,1044,351,-7839,1745173819035996677
198498,51,-27,44,990,355,-7820,1745173819035996677
198690,59,-27,42,913,386,-7788,1745173819035996677
198882,64,-25,40,858,383,-7817,1745173819035996677
199074,69,-21,37,787,368,-7845,1745173819035996677
199266,76,-14,34,742,353,-7847,1745173819090571855
199458,78,-7,33,740,319,-7848,1745173819090571855
199650,76,-1,35,757,298,-7813,1745173819090571855
199842,73,4,37,769,303,-7800,1745173819090571855
200034,68,8,38,786,353,-7829,1745173819090571855
200226,60,8,38,793,393,-7814,1745173819090571855
200418,50,5,35,812,439,-7810,1745173819090571855
200610,43,0,28,821,476,-7831,1745173819090571855
200802,39,-3,18,828,460,-7853,1745173819090571855
200994,40,-4,7,866,427,-7879,1745173819090571855
201186,45,-4,-4,861,403,-7897,1745173819090571855
201378,48,-7,-15,853,382,-7906,1745173819090571855
201570,48,-13,-25,818,370,-7903,1745173819151774161
201762,44,-17,-33,769,338,-7909,1745173819151774161
201954,41,-17,-39,728,313,-7910,1745173819151774161
202146,39,-16,-42,691,270,-7909,1745173819151774161
202338,39,-11,-42,668,249,-7933,1745173819151774161
202530,36,-3,-40,674,242,-7968,1745173819151774161
202722,33,10,-36,704,232,-8003,1745173819151774161
202914,31,20,-32,738,252,-7994,1745173819151774161
203106,28,26,-29,780,235,-7971,1745173819151774161
203298,26,29,-27,794,198,-7970,1745173819151774161
203490,27,29,-25,803,162,-7954,1745173819151774161
203682,29,32,-22,803,149,-7965,1745173819151774161
203874,27,37,-18,803,141,-7969,1745173819211343408
204066,20,41,-13,795,167,-7968,1745173819211343408
204258,13,43,-12,794,151,-7960,1745173819211343408
204450,7,43,-15,829,124,-7942,1745173819211343408
204642,4,39,-20,858,87,-7911,1745173819211343408
204834,2,34,-27,879,77,-7875,1745173819211343408
205026,0,31,-31,889,81,-7931,1745173819211343408
205218,-5,29,-35,879,95,-7961,1745173819211343408
205410,-10,25,-36,875,131,-7991,1745173819211343408
205602,-14,21,-36,842,149,-8033,1745173819211343408
205794,-16,17,-37,808,143,-8072,1745173819211343408
205986,-11,16,-37,792,142,-8063,1745173819211343408
206178,-2,19,-35,738,162,-8106,1745173819278283266
206370,5,26,-31,735,211,-8136,1745173819278283266
206562,7,35,-26,720,252,-8130,1745173819278283266
206754,12,43,-21,745,253,-8142,1745173819278283266
206946,18,50,-17,786,255,-8116,1745173819278283266
207138,27,54,-16,836,253,-8073,1745173819278283266
207330,33,54,-18,881,214,-8045,1745173819278283266
207522,38,52,-19,920,197,-8043,1745173819278283266
207714,42,52,-20,933,192,-8032,1745173819278283266
207906,42,54,-21,971,206,-8026,1745173819278283266
208098,37,54,-23,989,240,-8032,1745173819278283266
208290,31,50,-25,1037,258,-8029,1745173819278283266
208482,26,43,-29,1063,277,-7998,1745173819334493898
208674,24,31,-34,1057,252,-7980,1745173819334493898
208866,23,20,-39,1061,254,-8009,1745173819334493898
209058,24,12,-43,1035,255,-8025,1745173819334493898
209250,25,8,-44,1027,242,-8044,1745173819334493898
209442,26,5,-43,1005,245,-8062,1745173819334493898
209634,29,6,-41,979,245,-8048,1745173819334493898
209826,35,8,-37,954,251,-8016,1745173819334493898
210018,43,12,-31,952,249,-8020,1745173819334493898
210210,56,18,-26,944,274,-8020,1745173819334493898
210402,73,24,-22,924,303,-8006,1745173819334493898
210594,89,30,-19,917,357,-8000,1745173819334493898
210786,104,34,-16,919,373,-7973,1745173819385445099
210978,119,37,-16,929,342,-7944,1745173819385445099
211170,134,36,-18,930,271,-7924,1745173819385445099
211362,146,33,-21,935,192,-7925,1745173819385445099
211554,156,33,-21,929,141,-7961,1745173819385445099
211746,160,36,-19,918,114,-8019,1745173819385445099
211938,156,37,-19,872,101,-8042,1745173819385445099
212130,145,37,-19,842,87,-8046,1745173819385445099
212322,135,36,-22,822,76,-8030,1745173819385445099
212514,126,35,-27,800,77,-8055,1745173819385445099
212706,121,39,-31,799,76,-8055,1745173819385445099
212898,117,45,-35,821,69,-8100,1745173819385445099
213090,114,51,-38,859,69,-8121,1745173819445216168
213282,111,53,-40,871,84,-8130,1745173819445216168
213474,108,50,-42,891,100,-8145,1745173819445216168
213666,107,49,-44,891,111,-8144,1745173819445216168
213858,110,49,-48,895,88,-8140,1745173819445216168
214050,115,50,-51,897,58,-8138,1745173819445216168
214242,122,50,-55,942,-14,-8136,1745173819445216168
214434,129,48,-60,978,-74,-8168,1745173819445216168
214626,131,48,-64,1013,-133,-8213,1745173819445216168
214818,126,45,-65,1044,-189,-8219,1745173819445216168
215010,117,38,-65,1061,-231,-8188,1745173819445216168
215202,108,28,-65,1045,-278,-8154,1745173819445216168
215394,96,17,-64,990,-299,-8117,1745173819514853500
215586,79,9,-63,937,-319,-8124,1745173819514853500
215778,61,3,-63,880,-316,-8111,1745173819514853500
215970,38,2,-60,854,-333,-8129,1745173819514853500
216162,14,6,-55,849,-351,-8161,1745173819514853500
216354,-8,11,-47,862,-376,-8181,1745173819514853500
216546,-25,17,-37,855,-385,-8202,1745173819514853500
216738,-37,21,-28,844,-365,-8211,1745173819514853500
216930,-48,27,-21,825,-329,-8216,1745173819514853500
217122,-60,35,-12,776,-277,-8231,1745173819514853500
217314,-70,44,-4,753,-232,-8257,1745173819514853500
217506,-75,52,1,775,-188,-8277,1745173819514853500
217698,-75,60,5,810,-142,-8317,1745173819562850718
217890,-70,70,7,915,-107,-8352,1745173819562850718
218082,-57,79,10,1050,-38,-8354,1745173819562850718
218274,-39,82,12,1202,30,-8341,1745173819562850718
218466,-15,77,15,1330,82,-8290,1745173819562850718
218658,7,63,19,1429,105,-8222,1745173819562850718
218850,25,43,20,1456,121,-8164,1745173819562850718
219042,40,19,19,1440,105,-8125,1745173819562850718
219234,54,-6,15,1375,54,-8109,1745173819562850718
219426,63,-25,8,1279,4,-8159,1745173819562850718
219618,62,-39,-1,1199,-72,-8209,1745173819562850718
219810,50,-46,-10,1097,-150,-8240,1745173819562850718
220002,32,-46,-12,1058,-218,-8236,1745173819621182165
220194,9,-46,-8,1007,-270,-8229,1745173819621182165
220386,-15,-42,0,931,-260,-8214,1745173819621182165
220578,-37,-38,13,867,-189,-8188,1745173819621182165
220770,-55,-34,26,788,-78,-8149,1745173819621182165
220962,-68,-30,35,716,62,-8115,1745173819621182165
221154,-69,-25,42,685,190,-8107,1745173819621182165
221346,-60,-13,44,696,311,-8116,1745173819621182165
221538,-44,3,42,736,411,-8112,1745173819621182165
221730,-25,16,37,840,443,-8120,1745173819621182165
221922,-3,24,31,944,447,-8100,1745173819621182165
222114,22,24,23,1063,439,-8067,1745173819621182165
222306,48,19,15,1109,408,-8076,1745173819684169610
222498,71,12,7,1108,418,-8084,1745173819684169610
222690,93,3,0,1082,414,-8044,1745173819684169610
222882,111,-6,-10,1035,402,-8014,1745173819684169610
223074,125,-13,-23,1011,338,-7995,1745173819684169610
223266,134,-22,-37,984,252,-7979,1745173819684169610
223458,138,-31,-49,961,133,-7980,1745173819684169610
223650,135,-37,-58,940,26,-7965,1745173819684169610
223842,124,-41,-58,898,-43,-7950,1745173819684169610
224034,101,-43,-54,851,-104,-7976,1745173819684169610
224226,71,-43,-48,821,-132,-7981,1745173819684169610
224418,41,-39,-42,778,-101,-7973,1745173819684169610
224610,17,-33,-37,712,-49,-7969,1745173819742070279
224802,0,-26,-36,688,38,-7998,1745173819742070279
224994,-9,-18,-37,685,126,-8000,1745173819742070279
225186,-9,-8,-43,714,215,-8004,1745173819742070279
225378,0,3,-49,765,259,-7969,1745173819742070279
225570,11,11,-58,836,300,-7940,1745173819742070279
225762,21,14,-68,912,312,-7906,1745173819742070279
225954,31,14,-79,962,302,-7865,1745173819742070279
226146,41,12,-90,1002,275,-7845,1745173819742070279
226338,46,9,-100,1025,203,-7809,1745173819742070279
226530,47,4,-113,1015,118,-7791,1745173819742070279
226722,43,1,-125,1015,-2,-7787,1745173819742070279
226914,37,-1,-137,1013,-111,-7779,1745173819796066973
227106,27,1,-148,1034,-251,-7783,1745173819796066973
227298,14,2,-154,1066,-378,-7791,1745173819796066973
227490,0,2,-156,1074,-489,-7812,1745173819796066973
227682,-12,-1,-152,1079,-548,-7847,1745173819796066973
227874,-21,-1,-148,1077,-561,-7862,1745173819796066973
228066,-30,3,-141,1058,-525,-7892,1745173819796066973
228258,-37,10,-130,1074,-492,-7901,1745173819796066973
228450,-39,18,-116,1093,-468,-7896,1745173819796066973
228642,-33,23,-98,1130,-456,-7894,1745173819796066973
228834,-20,26,-76,1125,-452,-7895,1745173819796066973
229026,-7,28,-56,1111,-411,-7920,1745173819796066973
229218,0,30,-35,1045,-408,-7935,1745173819853126660
229410,1,33,-15,975,-399,-7951,1745173819853126660
229602,0,36,3,896,-393,-7953,1745173819853126660
229794,-5,43,19,837,-392,-7961,1745173819853126660
229986,-12,50,30,788,-395,-7957,1745173819853126660
230178,-21,57,36,750,-360,-7958,1745173819853126660
230370,-32,64,39,753,-288,-7991,1745173819853126660
230562,-46,72,38,772,-210,-7996,1745173819853126660
230754,-59,77,35,824,-124,-7972,1745173819853126660
230946,-67,78,29,891,-62,-7974,1745173819853126660
231138,-68,72,20,964,-21,-7954,1745173819853126660
231330,-59,63,7,1018,48,-7947,1745173819853126660
231522,-48,51,-9,1054,123,-7973,1745173819912980749
231714,-40,40,-26,1033,181,-8020,1745173819912980749
231906,-36,31,-42,992,219,-8057,1745173819912980749
232098,-30,21,-55,990,181,-8070,1745173819912980749
232290,-17,14,-65,977,105,-8061,1745173819912980749
232482,-1,9,-73,966,6,-8088,1745173819912980749
232674,10,8,-78,935,-61,-8135,1745173819912980749
232866,12,12,-78,887,-97,-8165,1745173819912980749
233058,8,17,-75,874,-125,-8155,1745173819912980749
233250,4,22,-71,870,-139,-8139,1745173819912980749
233442,6,28,-67,867,-179,-8123,1745173819912980749
233634,11,34,-65,887,-194,-8098,1745173819912980749
233826,17,35,-66,897,-177,-8094,1745173819970325538
234018,20,37,-67,886,-163,-8089,1745173819970325538
234210,20,38,-67,892,-167,-8071,1745173819970325538
234402,21,42,-62,889,-167,-8037,1745173819970325538
234594,27,45,-57,930,-181,-8020,1745173819970325538
234786,32,48,-54,950,-219,-7991,1745173819970325538
234978,39,49,-51,984,-246,-7990,1745173819970325538
235170,43,51,-48,1018,-282,-8013,1745173819970325538
235362,47,54,-42,1061,-292,-8034,1745173819970325538
235554,51,54,-36,1082,-323,-8055,1745173819970325538
235746,55,53,-32,1064,-334,-8072,1745173819970325538
235938,58,50,-31,1045,-358,-8080,1745173819970325538
236130,61,47,-33,996,-363,-8111,1745173820027716472
236322,64,48,-34,954,-361,-8162,1745173820027716472
236514,67,52,-34,953,-359,-8216,1745173820027716472
236706,69,58,-32,983,-365,-8227,1745173820027716472
236898,71,62,-27,1014,-389,-8224,1745173820027716472
237090,75,63,-21,1068,-404,-8216,1745173820027716472
237282,79,63,-13,1075,-413,-8221,1745173820027716472
237474,82,63,-7,1088,-374,-8212,1745173820027716472
237666,81,61,-3,1065,-373,-8202,1745173820027716472
237858,80,59,4,1065,-377,-8194,1745173820027716472
238050,81,55,9,1063,-425,-8193,1745173820027716472
238242,82,50,13,1051,-473,-8202,1745173820027716472
238434,80,48,18,1060,-488,-8225,1745173820089491584
238626,71,47,22,1073,-496,-8261,1745173820089491584
238818,56,49,31,1095,-504,-8292,1745173820089491584
239010,40,48,43,1131,-490,-8280,1745173820089491584
239202,27,47,58,1155,-451,-8262,1745173820089491584
239394,15,44,74,1177,-390,-8247,1745173820089491584
239586,2,40,88,1192,-326,-8229,1745173820089491584
239778,-5,34,99,1180,-254,-8226,1745173820089491584
239970,-6,28,104,1142,-163,-8244,1745173820089491584
240162,-4,22,103,1112,-53,-8267,1745173820089491584
240354,-1,15,98,1069,14,-8280,1745173820089491584
240546,5,8,89,1043,69,-8271,1745173820089491584
240738,13,3,78,1001,108,-8274,1745173820152902255
240930,21,0,66,989,121,-8252,1745173820152902255
241122,25,-2,56,988,139,-8215,1745173820152902255
241314,30,-3,49,988,110,-8155,1745173820152902255
241506,37,-7,45,1004,104,-8118,1745173820152902255
241698,42,-11,40,1015,117,-8079,1745173820152902255
241890,41,-16,36,1008,135,-8044,1745173820152902255
242082,36,-21,32,996,125,-7983,1745173820152902255
242274,31,-24,28,998,98,-7961,1745173820152902255
242466,24,-26,23,1014,75,-7939,1745173820152902255
242658,15,-28,17,1022,38,-7906,1745173820152902255
242850,2,-30,10,1027,-16,-7893,1745173820152902255
243042,-14,-29,5,1034,-66,-7883,1745173820202607947
243234,-30,-28,0,1011,-94,-7861,1745173820202607947
243426,-46,-22,-4,1001,-87,-7858,1745173820202607947
243618,-57,-14,-7,960,-35,-7829,1745173820202607947
243810,-63,-4,-11,932,33,-7820,1745173820202607947
244002,-63,6,-19,943,77,-7817,1745173820202607947
244194,-57,16,-27,967,104,-7799,1745173820202607947
244386,-41,21,-36,981,90,-7800,1745173820202607947
244578,-20,24,-43,1003,54,-7825,1745173820202607947
244770,1,27,-52,986,30,-7853,1745173820202607947
244962,16,33,-59,963,-35,-7896,1745173820202607947
245154,25,41,-63,969,-98,-7915,1745173820202607947
245346,30,52,-60,975,-194,-7938,1745173820262997187
245538,35,64,-55,1013,-249,-7956,1745173820262997187
245730,39,74,-48,1063,-272,-7992,1745173820262997187
245922,39,82,-40,1118,-282,-8005,1745173820262997187
246114,36,88,-31,1173,-273,-8020,1745173820262997187
246306,34,90,-24,1204,-229,-8048,1745173820262997187
246498,35,87,-18,1239,-210,-8083,1745173820262997187
246690,40,81,-14,1255,-192,-8118,1745173820262997187
246882,47,74,-12,1274,-202,-8150,1745173820262997187
247074,52,65,-10,1284,-215,-8154,1745173820262997187
247266,54,54,-8,1275,-243,-8155,1745173820262997187
247458,55,44,-3,1226,-272,-8149,1745173820262997187
247650,54,35,1,1170,-274,-8149,1745173820319781877
247842,49,30,9,1105,-286,-8158,1745173820319781877
248034,42,28,20,1076,-292,-8181,1745173820319781877
248226,33,28,28,1081,-275,-8200,1745173820319781877
248418,24,28,36,1080,-249,-8180,1745173820319781877
248610,17,26,41,1067,-210,-8174,1745173820319781877
248802,13,25,42,1044,-162,-8155,1745173820319781877
248994,10,22,41,1029,-114,-8136,1745173820319781877
249186,8,18,37,1006,-64,-8125,1745173820319781877
249378,5,15,32,997,-26,-8121,1745173820319781877
249570,3,14,25,997,-14,-8099,1745173820319781877
249762,-1,13,14,1015,-19,-8049,1745173820319781877
249954,-7,10,0,1047,-43,-8001,1745173820380076222
250146,-18,7,-15,1070,-89,-7981,1745173820380076222
250338,-29,6,-28,1073,-112,-7954,1745173820380076222
250530,-37,6,-38,1081,-111,-7960,1745173820380076222
250722,-44,7,-47,1085,-98,-7930,1745173820380076222
250914,-49,6,-56,1092,-84,-7919,1745173820380076222
251106,-47,8,-64,1116,-101,-7913,1745173820380076222
251298,-38,10,-71,1153,-133,-7927,1745173820380076222
251490,-24,11,-77,1183,-181,-7943,1745173820380076222
251682,-9,11,-80,1207,-201,-7950,1745173820380076222
251874,4,10,-83,1188,-227,-7964,1745173820380076222
252066,14,11,-82,1141,-260,-7966,1745173820380076222
252258,24,14,-81,1104,-315,-7980,1745173820439192869
252450,30,19,-82,1089,-361,-8015,1745173820439192869
252642,33,25,-81,1082,-442,-8018,1745173820439192869
252834,34,33,-77,1121,-537,-8005,1745173820439192869
253026,35,42,-72,1152,-623,-8028,1745173820439192869
253218,37,50,-63,1201,-652,-8063,1745173820439192869
253410,35,55,-52,1227,-644,-8049,1745173820439192869
253602,31,57,-38,1242,-616,-8024,1745173820439192869
253794,29,55,-24,1255,-592,-8017,1745173820439192869
253986,32,51,-12,1239,-573,-8016,1745173820439192869
254178,35,49,-3,1232,-555,-8050,1745173820439192869
254370,36,44,2,1235,-567,-8080,1745173820439192869
254562,36,40,6,1256,-581,-8100,1745173820495685061
254754,36,35,11,1273,-625,-8106,1745173820495685061
254946,33,32,18,1270,-632,-8091,1745173820495685061
255138,26,29,25,1239,-623,-8105,1745173820495685061
255330,16,27,32,1196,-570,-8107,1745173820495685061
255522,8,26,39,1144,-515,-8110,1745173820495685061
255714,5,26,44,1110,-480,-8129,1745173820495685061
255906,7,29,47,1116,-451,-8187,1745173820495685061
256098,14,34,49,1099,-408,-8202,1745173820495685061
256290,24,40,49,1117,-360,-8210,1745173820495685061
256482,34,44,52,1128,-330,-8205,1745173820495685061
256674,42,47,58,1128,-278,-8185,1745173820495685061
256866,49,45,63,1095,-239,-8183,1745173820553113808
257058,56,43,66,1050,-212,-8195,1745173820553113808
257250,60,44,67,1034,-173,-8186,1745173820553113808
257442,65,43,65,1041,-179,-8176,1745173820553113808
257634,67,43,62,1062,-175,-8163,1745173820553113808
257826,63,43,60,1088,-198,-8162,1745173820553113808
258018,54,41,57,1101,-194,-8133,1745173820553113808
258210,39,35,54,1153,-217,-8098,1745173820553113808
258402,22,26,51,1166,-252,-8110,1745173820553113808
258594,7,17,48,1170,-254,-8107,1745173820553113808
258786,-6,11,43,1144,-258,-8112,1745173820553113808
258978,-19,7,36,1126,-220,-8106,1745173820553113808
259170,-32,5,30,1108,-202,-8098,1745173820613698723
259362,-43,4,23,1119,-199,-8090,1745173820613698723
259554,-47,4,21,1139,-205,-8065,1745173820613698723
259746,-45,3,21,1152,-213,-8064,1745173820613698723
259938,-42,1,21,1167,-208,-8095,1745173820613698723
260130,-38,2,18,1148,-197,-8126,1745173820613698723
260322,-32,6,16,1127,-186,-8158,1745173820613698723
260514,-25,12,16,1102,-137,-8178,1745173820613698723
260706,-19,17,18,1109,-110,-8175,1745173820613698723
260898,-13,23,22,1139,-91,-8159,1745173820613698723
261090,-7,27,28,1218,-120,-8114,1745173820613698723
261282,1,26,34,1299,-161,-8061,1745173820613698723
261474,8,23,38,1344,-194,-8041,1745173820670360184
261666,10,17,42,1357,-206,-8034,1745173820670360184
261858,7,10,48,1325,-175,-8005,1745173820670360184
262050,-1,4,56,1299,-168,-7992,1745173820670360184
262242,-9,-1,64,1261,-161,-7978,1745173820670360184
262434,-14,-4,67,1229,-150,-7972,1745173820670360184
262626,-17,-6,66,1185,-115,-7999,1745173820670360184
262818,-23,-5,63,1151,-77,-8029,1745173820670360184
263010,-32,-3,60,1156,-42,-8009,1745173820670360184
263202,-40,0,59,1157,-32,-7995,1745173820670360184
263394,-44,6,60,1183,-15,-7979,1745173820670360184
263586,-43,11,61,1195,31,-7950,1745173820670360184
263778,-40,13,60,1151,87,-7954,1745173820737769204
263970,-38,13,55,1105,179,-7957,1745173820737769204
264162,-36,12,47,1055,215,-7947,1745173820737769204
264354,-31,14,38,1022,213,-7934,1745173820737769204
264546,-22,17,31,1027,184,-7909,1745173820737769204
264738,-14,21,22,1034,159,-7921,1745173820737769204
264930,-13,24,13,1048,151,-7909,1745173820737769204
265122,-18,27,5,1066,136,-7926,1745173820737769204
265314,-27,31,-3,1093,110,-7911,1745173820737769204
265506,-31,32,-11,1126,84,-7891,1745173820737769204
265698,-31,33,-21,1140,71,-7873,1745173820737769204
265890,-29,32,-33,1145,82,-7889,1745173820737769204
266082,-28,30,-44,1133,86,-7928,1745173820787542343
266274,-28,25,-56,1134,81,-7966,1745173820787542343
266466,-26,19,-66,1150,73,-8003,1745173820787542343
266658,-21,14,-75,1142,59,-8039,1745173820787542343
266850,-14,13,-83,1151,31,-8055,1745173820787542343
267042,-5,12,-88,1157,21,-8058,1745173820787542343
267234,4,11,-90,1158,-17,-8072,1745173820787542343
267426,13,11,-91,1187,-84,-8057,1745173820787542343
267618,24,11,-87,1198,-165,-8032,1745173820787542343
267810,38,12,-82,1212,-240,-8037,1745173820787542343
268002,50,14,-79,1205,-276,-8071,1745173820787542343
268194,55,18,-76,1168,-278,-8099,1745173820787542343
268386,56,21,-73,1128,-283,-8105,1745173820847136538
268578,57,25,-69,1113,-304,-8096,1745173820847136538
268770,60,29,-64,1122,-324,-8091,1745173820847136538
268962,65,33,-59,1168,-345,-8085,1745173820847136538
269154,66,35,-52,1214,-373,-8063,1745173820847136538
269346,60,34,-46,1239,-389,-8069,1745173820847136538
269538,51,31,-39,1280,-424,-8043,1745173820847136538
269730,41,27,-31,1311,-466,-8024,1745173820847136538
269922,32,23,-24,1306,-502,-8036,1745173820847136538
270114,21,20,-21,1304,-498,-8034,1745173820847136538
270306,6,17,-21,1271,-488,-8022,1745173820847136538
270498,-11,13,-22,1249,-473,-8034,1745173820847136538
270690,-25,13,-24,1241,-467,-8019,1745173820912812865
270882,-33,12,-24,1234,-456,-8024,1745173820912812865
271074,-34,13,-26,1228,-452,-8044,1745173820912812865
271266,-32,15,-29,1248,-444,-8068,1745173820912812865
271458,-24,19,-29,1232,-413,-8065,1745173820912812865
271650,-15,22,-26,1234,-372,-8062,1745173820912812865
271842,-6,22,-24,1199,-347,-8044,1745173820912812865
272034,3,22,-21,1181,-354,-8044,1745173820912812865
272226,15,23,-17,1168,-369,-8020,1745173820912812865
272418,29,28,-12,1171,-388,-8005,1745173820912812865
272610,40,32,-5,1171,-416,-8040,1745173820912812865
272802,45,35,2,1199,-438,-8058,1745173820912812865
272994,44,35,6,1221,-449,-8037,1745173820962277466
273186,40,33,9,1237,-491,-8003,1745173820962277466
273378,36,30,12,1237,-529,-7993,1745173820962277466
273570,31,27,13,1216,-554,-8009,1745173820962277466
273762,22,23,13,1186,-549,-7997,1745173820962277466
273954,11,22,11,1152,-532,-7986,1745173820962277466
274146,-2,22,8,1116,-521,-7989,1745173820962277466
274338,-12,19,5,1121,-546,-7985,1745173820962277466
274530,-16,20,4,1129,-567,-7954,1745173820962277466
274722,-16,22,4,1166,-582,-7972,1745173820962277466
274914,-14,26,5,1202,-560,-7993,1745173820962277466
275106,-14,30,7,1227,-557,-8032,1745173820962277466
275298,-13,32,9,1262,-551,-8065,1745173821020902347
275490,-9,33,10,1273,-536,-8066,1745173821020902347
275682,0,33,11,1258,-535,-8057,1745173821020902347
275874,11,34,12,1245,-506,-8062,1745173821020902347
276066,18,38,14,1228,-472,-8078,1745173821020902347
276258,25,42,19,1221,-460,-8075,1745173821020902347
276450,33,47,25,1229,-478,-8066,1745173821020902347
276642,43,48,34,1272,-504,-8058,1745173821020902347
276834,52,48,45,1312,-523,-8047,1745173821020902347
277026,57,46,55,1328,-533,-8004,1745173821020902347
277218,54,43,66,1320,-542,-7998,1745173821020902347
277410,45,40,72,1291,-550,-8012,1745173821020902347
277602,34,38,77,1255,-560,-8039,1745173821081294451
277794,22,36,80,1226,-548,-8068,1745173821081294451
277986,10,35,80,1213,-536,-8120,1745173821081294451
278178,-3,34,79,1249,-507,-8152,1745173821081294451
278370,-15,33,78,1261,-460,-8163,1745173821081294451
278562,-23,30,79,1304,-393,-8159,1745173821081294451
278754,-23,25,79,1308,-307,-8160,1745173821081294451
278946,-20,18,77,1304,-224,-8151,1745173821081294451
279138,-15,10,71,1277,-147,-8126,1745173821081294451
279330,-8,3,65,1233,-126,-8089,1745173821081294451
279522,-1,-5,59,1239,-151,-8064,1745173821081294451
279714,3,-10,55,1226,-232,-8058,1745173821081294451
279906,3,-13,52,1215,-285,-8072,1745173821134470528
280098,2,-11,52,1209,-301,-8087,1745173821134470528
280290,-6,-6,55,1194,-276,-8080,1745173821134470528
280482,-15,0,59,1188,-217,-8084,1745173821134470528
280674,-21,5,63,1173,-178,-8047,1745173821134470528
280866,-19,11,67,1174,-118,-8009,1745173821134470528
281058,-8,16,68,1193,-73,-8004,1745173821134470528
281250,2,20,66,1224,-25,-8025,1745173821134470528
281442,10,21,63,1248,11,-8028,1745173821134470528
281634,14,22,61,1273,17,-8007,1745173821134470528
281826,18,22,61,1274,40,-7992,1745173821134470528
282018,23,20,58,1257,69,-7952,1745173821134470528
282210,25,16,51,1226,95,-7916,1745173821196360900
282402,21,9,42,1190,137,-7887,1745173821196360900
282594,12,2,32,1159,152,-7881,1745173821196360900
282786,-1,-7,20,1144,154,-7909,1745173821196360900
282978,-14,-12,7,1132,160,-7970,1745173821196360900
283170,-25,-15,-3,1111,201,-8031,1745173821196360900
283362,-36,-13,-12,1112,286,-8067,1745173821196360900
283554,-51,-11,-20,1098,391,-8099,1745173821196360900
283746,-66,-7,-27,1093,538,-8116,1745173821196360900
283938,-79,-3,-36,1065,688,-8128,1745173821196360900
284130,-87,1,-48,1054,796,-8158,1745173821196360900
284322,-87,3,-61,1049,902,-8211,1745173821196360900
284514,-77,6,-77,1037,1077,-8296,1745173821256020876
284706,-68,9,-98,1029,1270,-8362,1745173821256020876
284898,-70,10,-124,1021,1513,-8367,1745173821256020876
285090,-86,2,-157,1017,1703,-8367,1745173821256020876
285282,-104,-14,-198,1012,1852,-8361,1745173821256020876
285474,-119,-34,-250,1006,2008,-8413,1745173821256020876
285666,-127,-53,-308,986,2220,-8562,1745173821256020876
285858,-128,-68,-374,936,2509,-8679,1745173821256020876
286050,-132,-79,-444,864,2924,-8716,1745173821256020876
286242,-144,-91,-518,821,3391,-8722,1745173821256020876
286434,-165,-107,-601,811,3893,-8763,1745173821256020876
286626,-183,-130,-701,778,4393,-8811,1745173821256020876
286818,-187,-161,-816,729,4954,-8830,1745173821317542866
287010,-181,-194,-947,676,5547,-8856,1745173821317542866
287202,-180,-227,-1093,672,6096,-8906,1745173821317542866
287394,-193,-264,-1251,702,6585,-8864,1745173821317542866
287586,-211,-300,-1419,733,6929,-8773,1745173821317542866
287778,-225,-336,-1593,800,7225,-8669,1745173821317542866
287970,-229,-366,-1768,896,7520,-8588,1745173821317542866
288162,-225,-397,-1948,1039,7831,-8471,1745173821317542866
288354,-220,-427,-2133,1176,8163,-8336,1745173821317542866
288546,-208,-444,-2315,1321,8505,-8187,1745173821317542866
288738,-187,-464,-2494,1426,8701,-8015,1745173821317542866
288930,-142,-473,-2652,1533,8893,-7880,1745173821317542866
289122,-110,-469,-2801,1754,9205,-7729,1745173821372059712
289314,-86,-469,-2965,2072,9441,-7504,1745173821372059712
289506,-73,-475,-3147,2433,9539,-7224,1745173821372059712
289698,-66,-491,-3349,2898,9567,-7053,1745173821372059712
289890,-57,-518,-3560,3424,9528,-6942,1745173821372059712
290082,-44,-557,-3773,3932,9465,-6883,1745173821372059712
290274,-43,-598,-3972,4461,9367,-6781,1745173821372059712
290466,-60,-640,-4157,4946,9210,-6622,1745173821372059712
290658,-87,-670,-4324,5371,9019,-6431,1745173821372059712
290850,-109,-684,-4472,5697,8803,-6256,1745173821372059712
291042,-124,-685,-4611,5921,8657,-6104,1745173821372059712
291234,-133,-659,-4745,6087,8525,-6016,1745173821372059712
291426,-133,-592,-4871,6179,8372,-6019,1745173821434441017
291618,-115,-516,-4971,6347,8120,-6014,1745173821434441017
291810,-65,-448,-5074,6334,7926,-5986,1745173821434441017
292002,16,-373,-5172,6128,7804,-5942,1745173821434441017
292194,119,-303,-5249,5940,7638,-5866,1745173821434441017
292386,224,-237,-5319,5856,7364,-5760,1745173821434441017
292578,327,-181,-5396,5762,7077,-5587,1745173821434441017
292770,428,-123,-5459,5738,6724,-5419,1745173821434441017
292962,530,-66,-5501,5809,6361,-5131,1745173821434441017
293154,614,-2,-5532,5813,6110,-4765,1745173821434441017
293346,666,63,-5531,5888,5858,-4552,1745173821434441017
293538,694,127,-5507,6015,5550,-4445,1745173821434441017
293730,729,202,-5486,6093,5329,-4515,1745173821488471721
293922,781,291,-5459,6109,5133,-4617,1745173821488471721
294114,861,373,-5419,6089,5019,-4778,1745173821488471721
294306,965,440,-5369,6104,4855,-4898,1745173821488471721
294498,1087,490,-5314,6187,4562,-4952,1745173821488471721
294690,1224,523,-5252,6232,4214,-4964,1745173821488471721
294882,1365,542,-5184,6293,3755,-4899,1745173821488471721
295074,1498,542,-5122,6332,3255,-4806,1745173821488471721
295266,1612,527,-5072,6330,2691,-4707,1745173821488471721
295458,1707,495,-5036,6264,2150,-4593,1745173821488471721
295650,1780,465,-5012,6163,1606,-4499,1745173821488471721
295842,1820,442,-5002,6077,1142,-4406,1745173821488471721
296034,1820,420,-5008,5996,807,-4168,1745173821550660060
296226,1766,430,-5019,6103,596,-4164,1745173821550660060
296418,1663,478,-5019,6339,499,-4301,1745173821550660060
296610,1528,545,-5005,6751,475,-4452,1745173821550660060
296802,1387,627,-4959,7297,421,-4675,1745173821550660060
296994,1276,694,-4870,7764,350,-4876,1745173821550660060
297186,1215,728,-4747,8167,248,-5158,1745173821550660060
297378,1211,718,-4609,8363,140,-5371,1745173821550660060
297570,1263,668,-4479,8464,-35,-5415,1745173821550660060
297762,1345,589,-4386,8413,-367,-5429,1745173821550660060
297954,1437,497,-4341,8229,-829,-5374,1745173821550660060
298146,1517,402,-4337,7957,-1380,-5365,1745173821550660060
298338,1569,317,-4345,7620,-1972,-5380,1745173821606703193
298530,1585,241,-4345,7278,-2501,-5403,1745173821606703193
298722,1554,171,-4321,6957,-2980,-5223,1745173821606703193
298914,1480,114,-4268,6642,-3405,-4859,1745173821606703193
299106,1369,103,-4186,6535,-3769,-4731,1745173821606703193
299298,1221,118,-4077,6608,-4077,-4850,1745173821606703193
299490,1026,155,-3946,6780,-4248,-5219,1745173821606703193
299682,766,158,-3867,6783,-3985,-5800,1745173821606703193
299874,479,160,-3919,7094,-4290,-6074,1745173821606703193
300066,295,257,-3875,7526,-4373,-6388,1745173821606703193
300258,163,300,-3739,8027,-4496,-6153,1745173821606703193
300450,35,337,-3523,8130,-4275,-6291,1745173821606703193
300642,-83,335,-3267,8076,-4159,-6262,1745173821665996246
300834,-188,307,-3031,7964,-4187,-6345,1745173821665996246
301026,-255,256,-2875,7716,-4256,-6413,1745173821665996246
301218,-316,189,-2828,7497,-4583,-6501,1745173821665996246
301410,-353,134,-2819,7367,-5050,-6638,1745173821665996246
301602,-389,87,-2810,6850,-5206,-6707,1745173821665996246
301794,-482,63,-2826,6413,-5416,-6696,1745173821665996246
301986,-597,67,-2873,6088,-5677,-6805,1745173821665996246
302178,-684,142,-2889,5864,-5736,-6980,1745173821665996246
302370,-767,230,-2882,5607,-5559,-7265,1745173821665996246
302562,-892,352,-2810,5574,-5284,-7692,1745173821665996246
302754,-998,445,-2672,5823,-4918,-7874,1745173821665996246
302946,-1087,535,-2498,6332,-4577,-8059,1745173821725346016
303138,-1152,605,-2307,6908,-4225,-8250,1745173821725346016
303330,-1178,640,-2114,7334,-3840,-8326,1745173821725346016
303522,-1162,639,-1959,7641,-3526,-8358,1745173821725346016
303714,-1111,610,-1849,7832,-3354,-8433,1745173821725346016
303906,-1036,554,-1766,7902,-3324,-8455,1745173821725346016
304098,-939,478,-1687,7764,-3419,-8470,1745173821725346016
304290,-832,389,-1607,7395,-3563,-8484,1745173821725346016
304482,-741,306,-1531,6936,-3682,-8471,1745173821725346016
304674,-681,239,-1462,6425,-3786,-8501,1745173821725346016
304866,-657,205,-1398,5897,-3820,-8564,1745173821725346016
305058,-663,193,-1335,5458,-3831,-8640,1745173821725346016
305250,-687,197,-1283,5106,-3820,-8730,1745173821781604148
305442,-720,217,-1238,4807,-3739,-8828,1745173821781604148
305634,-751,245,-1186,4598,-3569,-8937,1745173821781604148
305826,-776,277,-1120,4512,-3320,-9042,1745173821781604148
306018,-799,310,-1045,4533,-3014,-9123,1745173821781604148
306210,-815,341,-962,4626,-2726,-9226,1745173821781604148
306402,-821,361,-871,4743,-2462,-9300,1745173821781604148
306594,-809,364,-781,4840,-2262,-9367,1745173821781604148
306786,-779,362,-700,4838,-2078,-9425,1745173821781604148
306978,-738,357,-632,4730,-1881,-9397,1745173821781604148
307170,-700,353,-584,4562,-1699,-9295,1745173821781604148
307362,-668,352,-548,4366,-1524,-9174,1745173821781604148
307554,-639,358,-515,4112,-1332,-9084,1745173821850547528
307746,-609,367,-490,3826,-1138,-8964,1745173821850547528
307938,-586,380,-464,3587,-941,-8795,1745173821850547528
308130,-561,399,-430,3436,-804,-8703,1745173821850547528
308322,-556,372,-386,3553,-835,-7987,1745173821850547528
308514,-573,277,-339,3940,-972,-8345,1745173821850547528
308706,-620,109,-306,4324,-919,-8953,1745173821850547528
308898,-716,-32,-305,4330,-611,-9073,1745173821850547528
309090,-777,-102,-329,3966,-82,-9142,1745173821850547528
309282,-733,-152,-366,3527,587,-9357,1745173821850547528
309474,-585,-172,-395,3241,1134,-9516,1745173821850547528
309666,-399,-198,-399,3230,1432,-9741,1745173821850547528
309858,-250,-249,-354,3350,1555,-9939,1745173821902269452
310242,-43,-400,-221,3385,1348,-9979,1745173821902269452
310434,69,-463,-165,3566,1091,-10190,1745173821902269452
310626,168,-516,-104,3632,935,-10315,1745173821902269452
310818,216,-529,-39,3524,796,-10276,1745173821902269452
311010,201,-522,16,3252,633,-10089,1745173821902269452
311202,139,-497,54,2928,451,-9972,1745173821902269452
311394,36,-485,32,2359,367,-9933,1745173821902269452
311586,-69,-438,2,1966,349,-9792,1745173821902269452
311778,-164,-354,-6,1783,365,-9616,1745173821902269452
311970,-213,-248,8,1605,727,-9549,1745173821902269452
312162,-209,-186,1,1609,1127,-9379,1745173821902269452
312354,-210,-138,-7,1849,1354,-9207,1745173821968051611
312546,-204,-117,0,2068,1534,-8987,1745173821968051611
312738,-151,-119,-3,2320,1660,-8753,1745173821968051611
312930,-80,-121,-11,2450,1764,-8597,1745173821968051611
313122,-15,-124,-6,2513,1802,-8446,1745173821968051611
313314,52,-137,-1,2506,1820,-8318,1745173821968051611
313506,108,-147,-8,2459,1753,-8250,1745173821968051611
313698,142,-153,-23,2410,1636,-8205,1745173821968051611
313890,166,-158,-36,2355,1497,-8141,1745173821968051611
314082,171,-162,-48,2287,1385,-8065,1745173821968051611
314274,154,-160,-45,2243,1279,-8008,1745173821968051611
314466,131,-160,-26,2186,1207,-7870,1745173821968051611
314658,89,-158,-1,2153,1156,-7800,1745173822025337338
314850,47,-160,18,2094,1185,-7720,1745173822025337338
315042,6,-158,28,2029,1209,-7656,1745173822025337338
315234,-25,-158,28,2013,1242,-7609,1745173822025337338
315426,-48,-160,20,2001,1246,-7603,1745173822025337338
315618,-32,-146,13,2054,1256,-7566,1745173822025337338
315810,10,-149,17,2028,1406,-7714,1745173822025337338
316002,17,-155,24,2094,1439,-7665,1745173822025337338
316194,44,-163,20,2080,1492,-7800,1745173822025337338
316386,43,-177,3,2004,1476,-7846,1745173822025337338
316578,54,-185,-11,1945,1421,-7883,1745173822025337338
316770,65,-181,-23,1881,1428,-7975,1745173822025337338
316962,61,-184,-28,1756,1406,-8017,1745173822075722138
317154,54,-183,-37,1805,1409,-8106,1745173822075722138
317346,35,-206,-59,1618,1466,-8118,1745173822075722138
317538,52,-222,-52,1655,1468,-8099,1745173822075722138
317730,68,-226,-43,1523,1425,-8173,1745173822075722138
317922,79,-195,33,1737,1237,-8003,1745173822075722138
318114,86,-122,93,1885,1131,-8162,1745173822075722138
318306,55,-117,152,1880,1126,-8064,1745173822075722138
318498,22,-138,192,1822,1162,-8039,1745173822075722138
318690,-5,-134,222,1746,1174,-7973,1745173822075722138
318882,-28,-103,252,1772,1139,-7939,1745173822075722138
319074,-36,-100,285,1774,1113,-7959,1745173822075722138
319266,-43,-111,332,1755,1077,-7980,1745173822140444516
319458,-81,-117,409,1483,961,-8026,1745173822140444516
319650,-223,-103,536,2041,1036,-7565,1745173822140444516
319842,-533,-58,47,1475,1497,-8703,1745173822140444516
320034,-781,-573,-344,-185,484,-6655,1745173822140444516
320226,-104,-579,-312,1360,232,-7199,1745173822140444516
320418,45,-197,-309,1995,193,-9478,1745173822140444516
320610,-136,-166,-124,1356,834,-8390,1745173822140444516
320802,-287,-128,97,1419,1093,-9029,1745173822140444516
320994,-345,-196,153,1283,1422,-8770,1745173822140444516
321186,-327,-147,75,1180,1687,-8813,1745173822140444516
321378,-276,-148,-18,1358,1830,-8739,1745173822140444516
321570,-255,-140,-77,1643,1795,-8683,1745173822201647863
321762,-258,-149,-95,1634,1831,-8552,1745173822201647863
321954,-259,-157,-80,1498,1819,-8343,1745173822201647863
322146,-234,-155,-67,1312,1874,-8201,1745173822201647863
322338,-205,-143,-53,1186,1852,-8083,1745173822201647863
322530,-181,-131,-35,1141,1797,-7997,1745173822201647863
322722,-161,-117,-15,1166,1741,-7928,1745173822201647863
322914,-143,-102,3,1212,1728,-7882,1745173822201647863
323106,-127,-89,13,1272,1720,-7854,1745173822201647863
323298,-110,-78,11,1323,1709,-7804,1745173822201647863
323490,-92,-70,3,1424,1679,-7792,1745173822201647863
323682,-75,-64,-3,1474,1644,-7799,1745173822201647863
323874,-63,-61,-5,1498,1615,-7827,1745173822253503535
324066,-58,-62,-9,1504,1575,-7881,1745173822253503535
324258,-60,-63,-16,1478,1539,-7911,1745173822253503535
324450,-59,-63,-20,1460,1483,-7952,1745173822253503535
324642,-58,-60,-24,1443,1460,-7989,1745173822253503535
324834,-66,-56,-29,1421,1444,-8016,1745173822253503535
325026,-76,-50,-37,1424,1442,-8017,1745173822253503535
325218,-87,-43,-47,1409,1450,-8009,1745173822253503535
325410,-96,-34,-53,1420,1478,-7995,1745173822253503535
325602,-107,-19,-54,1475,1476,-8003,1745173822253503535
325794,-126,32,-52,1598,1494,-7990,1745173822253503535
325986,-137,42,-55,1526,1623,-7962,1745173822253503535
326178,-134,30,-49,1487,1711,-7896,1745173822377058083
326370,-121,19,-45,1427,1788,-7925,1745173822377058083
326562,-108,19,-50,1418,1794,-7902,1745173822377058083
326754,-99,18,-57,1469,1747,-7869,1745173822377058083
326946,-93,17,-60,1506,1678,-7846,1745173822377058083
327138,-88,14,-57,1491,1629,-7833,1745173822377058083
327330,-83,17,-54,1448,1650,-7826,1745173822377058083
327522,-81,28,-53,1423,1661,-7813,1745173822377058083
327714,-76,31,-54,1418,1675,-7785,1745173822377058083
327906,-68,31,-53,1442,1691,-7779,1745173822377058083
328098,-61,34,-52,1501,1734,-7799,1745173822377058083
328290,-54,35,-53,1522,1755,-7812,1745173822377058083
328482,-48,32,-55,1550,1749,-7826,1745173822384622650
328674,-44,31,-57,1555,1739,-7858,1745173822384622650
328866,-41,32,-59,1556,1692,-7896,1745173822384622650
329058,-41,28,-60,1540,1669,-7876,1745173822384622650
329250,-42,27,-65,1499,1627,-7866,1745173822384622650
329442,-46,30,-71,1481,1583,-7884,1745173822384622650
329634,-50,30,-73,1472,1558,-7877,1745173822384622650
329826,-57,35,-74,1454,1542,-7863,1745173822384622650
330018,-63,40,-70,1450,1548,-7857,1745173822384622650
330210,-68,47,-64,1427,1595,-7846,1745173822384622650
330402,-74,53,-59,1449,1625,-7869,1745173822384622650
330594,-78,57,-55,1466,1680,-7847,1745173822384622650
330786,-77,56,-50,1499,1719,-7814,1745173822429243596
330786,-77,56,-50,1499,1719,-7814,1745173822429243596
330978,-75,54,-47,1535,1734,-7792,1745173822429243596
331170,-73,50,-47,1587,1751,-7787,1745173822429243596
331362,-69,43,-48,1574,1746,-7769,1745173822429243596
331554,-62,37,-47,1545,1772,-7775,1745173822429243596
331746,-55,34,-51,1526,1804,-7810,1745173822429243596
331938,-51,32,-54,1487,1813,-7802,1745173822429243596
332130,-44,31,-54,1471,1804,-7796,1745173822429243596
332322,-40,31,-54,1485,1786,-7797,1745173822429243596
332514,-36,30,-52,1477,1777,-7799,1745173822429243596
332706,-30,31,-47,1476,1774,-7814,1745173822429243596
332898,-24,32,-42,1470,1807,-7808,1745173822489067425
333090,-20,32,-39,1472,1804,-7816,1745173822489067425
333282,-15,31,-35,1474,1777,-7808,1745173822489067425
333474,-10,29,-32,1503,1755,-7809,1745173822489067425
333666,-7,27,-27,1509,1753,-7812,1745173822489067425
333858,-5,25,-22,1492,1737,-7797,1745173822489067425
334050,-2,24,-17,1496,1722,-7801,1745173822489067425
334242,-2,23,-15,1494,1702,-7801,1745173822489067425
334434,-1,23,-10,1492,1682,-7800,1745173822489067425
334626,-1,23,-6,1486,1694,-7796,1745173822489067425
334818,-6,24,-5,1494,1718,-7804,1745173822489067425
335010,-8,23,-4,1505,1737,-7787,1745173822489067425
335202,-5,21,-2,1517,1766,-7806,1745173822551576333
335394,-4,19,-1,1520,1774,-7791,1745173822551576333
335586,-2,17,0,1526,1775,-7791,1745173822551576333
335778,0,14,2,1521,1773,-7784,1745173822551576333
335970,3,13,2,1505,1759,-7800,1745173822551576333
336162,4,11,3,1515,1763,-7822,1745173822551576333
336354,6,10,3,1503,1726,-7833,1745173822551576333
336546,6,9,2,1503,1713,-7829,1745173822551576333
336738,5,8,1,1513,1689,-7815,1745173822551576333
336930,4,8,2,1495,1679,-7777,1745173822551576333
337122,2,8,4,1493,1661,-7788,1745173822551576333
337314,-1,9,5,1501,1662,-7790,1745173822551576333
337506,-5,9,6,1522,1658,-7783,1745173822610485482
337698,-8,12,6,1533,1659,-7808,1745173822610485482
337890,-11,11,9,1520,1692,-7809,1745173822610485482
338082,-11,11,8,1523,1715,-7811,1745173822610485482
338274,-9,11,7,1517,1743,-7825,1745173822610485482
338466,-6,11,6,1522,1745,-7829,1745173822610485482
338658,-3,11,5,1517,1741,-7828,1745173822610485482
338850,1,9,3,1524,1745,-7832,1745173822610485482
339042,4,7,1,1527,1719,-7813,1745173822610485482
339234,5,7,0,1502,1721,-7816,1745173822610485482
339426,8,8,0,1497,1710,-7827,1745173822610485482
339618,9,9,-1,1492,1701,-7810,1745173822610485482
339810,8,9,-1,1489,1687,-7811,1745173822662255009
340002,5,10,-1,1486,1670,-7816,1745173822662255009
340194,1,10,0,1524,1670,-7819,1745173822662255009
340386,-2,11,0,1531,1660,-7821,1745173822662255009
340578,-6,11,-1,1501,1680,-7795,1745173822662255009
340770,-8,12,-1,1506,1705,-7775,1745173822662255009
340962,-9,12,-2,1533,1709,-7770,1745173822662255009
341154,-9,10,-1,1554,1736,-7782,1745173822662255009
341346,-7,8,-1,1564,1751,-7793,1745173822662255009
341538,-2,5,-1,1555,1790,-7797,1745173822662255009
341730,3,3,-1,1551,1801,-7804,1745173822662255009
341922,10,0,-1,1539,1777,-7808,1745173822662255009
342114,17,-3,-3,1549,1746,-7807,1745173822722735134
342306,21,-5,-3,1542,1724,-7809,1745173822722735134
342498,24,-5,-2,1535,1704,-7819,1745173822722735134
342690,25,-6,-1,1516,1666,-7842,1745173822722735134
342882,24,-5,0,1496,1647,-7850,1745173822722735134
343074,23,-2,-1,1503,1623,-7853,1745173822722735134
343266,19,0,-1,1494,1592,-7848,1745173822722735134
343458,12,1,0,1513,1588,-7853,1745173822722735134
343650,4,2,1,1500,1584,-7834,1745173822722735134
343842,-3,4,0,1519,1613,-7819,1745173822722735134
344034,-10,4,1,1515,1638,-7820,1745173822722735134
344226,-15,4,1,1508,1658,-7805,1745173822722735134
344418,-19,4,2,1530,1699,-7803,1745173822776806307
344610,-21,3,3,1533,1723,-7786,1745173822776806307
344802,-21,0,4,1537,1748,-7785,1745173822776806307
344994,-18,-3,6,1536,1793,-7782,1745173822776806307
345186,-12,-7,8,1522,1831,-7769,1745173822776806307
345378,-4,-10,8,1523,1825,-7765,1745173822776806307
345570,4,-14,8,1536,1810,-7775,1745173822776806307
345762,14,-17,10,1527,1811,-7769,1745173822776806307
345954,22,-20,12,1509,1796,-7797,1745173822776806307
346146,30,-19,13,1516,1793,-7819,1745173822776806307
346338,38,-19,14,1513,1736,-7825,1745173822776806307
346530,42,-20,16,1533,1699,-7835,1745173822776806307
346722,44,-21,19,1570,1648,-7826,1745173822843207471
346914,41,-24,23,1570,1603,-7827,1745173822843207471
347106,35,-29,26,1579,1572,-7798,1745173822843207471
347298,26,-32,28,1564,1541,-7790,1745173822843207471
347490,15,-31,28,1556,1533,-7785,1745173822843207471
347682,7,-34,32,1535,1555,-7798,1745173822843207471
347874,1,-37,34,1533,1606,-7801,1745173822843207471
348066,-6,-37,34,1529,1641,-7780,1745173822843207471
348258,-8,-38,33,1500,1683,-7799,1745173822843207471
348450,-8,-39,33,1507,1739,-7781,1745173822843207471
348642,-2,-41,31,1483,1788,-7812,1745173822843207471
348834,8,-47,22,1462,1822,-7804,1745173822843207471
349026,13,-44,16,1502,1798,-7841,1745173822896020218
349218,24,-48,18,1476,1802,-7836,1745173822896020218
349410,29,-51,21,1459,1761,-7844,1745173822896020218
349602,34,-50,21,1439,1739,-7846,1745173822896020218
349794,38,-49,22,1435,1688,-7839,1745173822896020218
349986,39,-47,26,1440,1632,-7833,1745173822896020218
350178,36,-46,33,1465,1617,-7835,1745173822896020218
350370,33,-44,37,1450,1594,-7836,1745173822896020218
350562,28,-40,36,1451,1574,-7821,1745173822896020218
350754,22,-35,36,1471,1570,-7834,1745173822896020218
350946,17,-34,36,1465,1597,-7813,1745173822896020218
351138,17,-35,34,1493,1613,-7790,1745173822896020218
351330,14,-34,35,1508,1643,-7801,1745173822960925562
351522,13,-35,37,1511,1642,-7798,1745173822960925562
351714,15,-40,38,1505,1642,-7819,1745173822960925562
351906,16,-42,36,1485,1622,-7834,1745173822960925562
352098,18,-43,27,1448,1606,-7857,1745173822960925562
352290,18,-42,21,1424,1591,-7872,1745173822960925562
352482,19,-43,11,1388,1556,-7880,1745173822960925562
352674,16,-40,2,1392,1508,-7879,1745173822960925562
352866,7,-36,-1,1382,1485,-7849,1745173822960925562
353058,-4,-35,-1,1370,1460,-7825,1745173822960925562
353250,-15,-31,-2,1379,1450,-7831,1745173822960925562
353442,-26,-25,-2,1371,1464,-7865,1745173822960925562
353634,-36,-20,-4,1373,1523,-7900,1745173823013050711
353826,-45,-17,-9,1410,1599,-7885,1745173823013050711
354018,-49,-11,-16,1419,1632,-7863,1745173823013050711
354210,-50,-7,-21,1423,1668,-7849,1745173823013050711
354402,-48,-6,-24,1457,1675,-7851,1745173823013050711
354594,-45,-4,-26,1478,1688,-7846,1745173823013050711
354786,-41,-5,-27,1487,1697,-7826,1745173823013050711
354978,-37,-6,-28,1461,1700,-7805,1745173823013050711
355170,-31,-7,-26,1438,1703,-7805,1745173823013050711
355362,-25,-7,-26,1421,1665,-7815,1745173823013050711
355554,-21,-6,-26,1442,1628,-7833,1745173823013050711
355746,-21,-6,-24,1451,1597,-7858,1745173823013050711
355938,-24,-8,-23,1423,1614,-7848,1745173823075109155
356130,-28,-9,-25,1390,1611,-7829,1745173823075109155
356322,-30,-6,-28,1359,1614,-7819,1745173823075109155
356514,-33,-3,-32,1345,1600,-7848,1745173823075109155
356706,-38,1,-33,1356,1606,-7852,1745173823075109155
356898,-41,4,-31,1357,1613,-7850,1745173823075109155
357090,-46,7,-29,1341,1630,-7852,1745173823075109155
357282,-50,11,-27,1364,1624,-7852,1745173823075109155
357474,-52,14,-23,1369,1658,-7867,1745173823075109155
357666,-55,15,-22,1393,1677,-7869,1745173823075109155
357858,-59,19,-23,1431,1681,-7875,1745173823075109155
358050,-61,19,-20,1425,1706,-7849,1745173823075109155
358242,-59,19,-19,1421,1711,-7830,1745173823133490236
358434,-57,17,-22,1432,1708,-7821,1745173823133490236
358626,-54,20,-23,1407,1697,-7839,1745173823133490236
358818,-52,19,-24,1405,1693,-7821,1745173823133490236
359010,-51,20,-24,1428,1682,-7831,1745173823133490236
359202,-49,22,-25,1423,1683,-7855,1745173823133490236
359394,-48,22,-26,1435,1685,-7832,1745173823133490236
359586,-49,21,-28,1448,1684,-7827,1745173823133490236
359778,-49,20,-29,1469,1684,-7821,1745173823133490236
359970,-49,20,-30,1470,1707,-7823,1745173823133490236
360162,-48,19,-31,1455,1736,-7803,1745173823133490236
360354,-46,17,-31,1442,1774,-7787,1745173823133490236
360546,-39,15,-32,1428,1788,-7775,1745173823187966717
360738,-33,14,-33,1446,1791,-7785,1745173823187966717
360930,-28,11,-33,1461,1788,-7789,1745173823187966717
361122,-25,11,-30,1466,1786,-7796,1745173823187966717
361314,-21,8,-27,1482,1790,-7817,1745173823187966717
361506,-15,5,-27,1489,1815,-7828,1745173823187966717
361698,-9,1,-29,1465,1810,-7815,1745173823187966717
361890,-3,-2,-33,1469,1797,-7813,1745173823187966717
362082,1,-4,-36,1462,1756,-7794,1745173823187966717
362274,4,-6,-37,1471,1716,-7792,1745173823187966717
362466,6,-7,-36,1452,1699,-7802,1745173823187966717
362658,6,-8,-35,1454,1673,-7815,1745173823187966717
362850,3,-8,-35,1442,1676,-7829,1745173823248828505
363042,0,-8,-35,1434,1666,-7815,1745173823248828505
363234,-6,-9,-32,1415,1679,-7792,1745173823248828505
363426,-13,-4,-29,1457,1660,-7799,1745173823248828505
363618,-14,-5,-26,1459,1684,-7825,1745173823248828505
363810,-16,-8,-24,1471,1710,-7811,1745173823248828505
364002,-17,-8,-25,1489,1727,-7827,1745173823248828505
364194,-16,-13,-28,1458,1748,-7830,1745173823248828505
364386,-16,-16,-31,1422,1734,-7816,1745173823248828505
364578,-16,-18,-35,1408,1707,-7817,1745173823248828505
364770,-17,-20,-36,1395,1680,-7823,1745173823248828505
364962,-17,-20,-34,1379,1683,-7844,1745173823248828505
365154,-20,-16,-33,1377,1699,-7840,1745173823306827194
365346,-21,-14,-31,1407,1715,-7844,1745173823306827194
365538,-22,-16,-30,1417,1744,-7832,1745173823306827194
365730,-22,-16,-31,1410,1766,-7788,1745173823306827194
365922,-19,-14,-30,1419,1769,-7799,1745173823306827194
366114,-13,-16,-28,1415,1791,-7808,1745173823306827194
366306,-10,-19,-27,1417,1778,-7801,1745173823306827194
366498,-6,-19,-27,1412,1768,-7819,1745173823306827194
366690,-1,-18,-27,1395,1761,-7851,1745173823306827194
366882,1,-18,-27,1402,1740,-7837,1745173823306827194
367074,3,-16,-27,1400,1720,-7846,1745173823306827194
367266,2,-15,-26,1399,1713,-7849,1745173823306827194
367458,1,-13,-26,1392,1725,-7845,1745173823365895821
367650,1,-9,-30,1396,1732,-7843,1745173823365895821
367842,8,-7,-34,1269,1885,-7548,1745173823365895821
368034,44,-8,-31,1114,2019,-7481,1745173823365895821
368226,8,-23,-31,1295,824,-8127,1745173823365895821
368418,-65,6,-13,1513,779,-8212,1745173823365895821
368610,-79,39,5,1191,1703,-7920,1745173823365895821
368802,-74,63,-7,1018,2065,-7836,1745173823365895821
368994,-81,67,-29,1270,1826,-7836,1745173823365895821
369186,-80,59,-35,1514,1620,-7825,1745173823365895821
369378,-86,55,-29,1600,1636,-7837,1745173823365895821
369570,-78,40,-24,1541,1837,-7826,1745173823365895821
369762,-69,27,-26,1518,1947,-7811,1745173823430140234
369954,-58,25,-31,1439,1941,-7813,1745173823430140234
370146,-46,26,-32,1339,1890,-7810,1745173823430140234
370338,-37,27,-32,1308,1808,-7787,1745173823430140234
370530,-33,35,-28,1291,1758,-7786,1745173823430140234
370722,-28,44,-18,1307,1786,-7787,1745173823430140234
370914,-22,45,-7,1352,1858,-7758,1745173823430140234
371106,-10,41,-1,1474,1945,-7777,1745173823430140234
371298,4,31,1,1575,2016,-7793,1745173823430140234
371490,16,21,-1,1624,2013,-7802,1745173823430140234
371682,26,10,-6,1597,1929,-7804,1745173823430140234
371874,35,1,-15,1551,1860,-7813,1745173823430140234
372066,40,-2,-24,1499,1785,-7815,1745173823480860292
372258,41,-4,-28,1441,1718,-7835,1745173823480860292
372450,37,-4,-30,1404,1649,-7812,1745173823480860292
372642,29,-2,-29,1377,1610,-7791,1745173823480860292
372834,22,-1,-26,1391,1598,-7801,1745173823480860292
373026,14,-1,-23,1401,1637,-7798,1745173823480860292
373218,7,-2,-21,1406,1644,-7819,1745173823480860292
373410,-3,0,-22,1394,1626,-7830,1745173823480860292
373602,-10,3,-23,1412,1665,-7840,1745173823480860292
373794,-15,3,-23,1418,1705,-7848,1745173823480860292
373986,-20,3,-23,1417,1727,-7851,1745173823480860292
374178,-22,2,-25,1425,1745,-7859,1745173823480860292
374370,-24,3,-28,1395,1722,-7864,1745173823541059325
374562,-27,8,-31,1344,1706,-7851,1745173823541059325
374754,-30,15,-33,1319,1675,-7853,1745173823541059325
374946,-34,21,-29,1318,1683,-7841,1745173823541059325
375138,-37,27,-23,1338,1732,-7824,1745173823541059325
375330,-36,31,-18,1358,1773,-7810,1745173823541059325
375522,-35,33,-15,1391,1788,-7814,1745173823541059325
375714,-32,30,-13,1450,1788,-7801,1745173823541059325
375906,-32,29,-12,1446,1788,-7812,1745173823541059325
376098,-31,29,-12,1425,1803,-7825,1745173823541059325
376290,-30,30,-12,1395,1798,-7831,1745173823541059325
376482,-30,31,-12,1394,1783,-7823,1745173823541059325
376674,-29,31,-10,1414,1806,-7817,1745173823601330910
376866,-28,32,-11,1433,1811,-7819,1745173823601330910
377058,-29,34,-11,1416,1784,-7810,1745173823601330910
377250,-29,36,-12,1430,1772,-7804,1745173823601330910
377442,-29,37,-12,1417,1747,-7798,1745173823601330910
377634,-31,40,-12,1401,1748,-7797,1745173823601330910
377826,-30,41,-12,1401,1805,-7792,1745173823601330910
378018,-26,42,-11,1436,1854,-7793,1745173823601330910
378210,-21,40,-9,1483,1882,-7787,1745173823601330910
378402,-13,35,-9,1533,1907,-7796,1745173823601330910
378594,-4,28,-9,1538,1923,-7801,1745173823601330910
378786,3,21,-10,1530,1885,-7794,1745173823601330910
378978,11,13,-10,1518,1847,-7786,1745173823666179172
379170,19,7,-9,1473,1854,-7774,1745173823666179172
379362,27,4,-9,1455,1863,-7775,1745173823666179172
379554,35,-2,-7,1457,1864,-7794,1745173823666179172
379746,40,-6,-5,1494,1812,-7818,1745173823666179172
379938,39,-7,-6,1463,1760,-7826,1745173823666179172
380130,38,-8,-7,1422,1735,-7814,1745173823666179172
380322,39,-8,-6,1398,1742,-7803,1745173823666179172
380514,38,-8,-2,1412,1738,-7798,1745173823666179172
380706,37,-8,1,1449,1740,-7804,1745173823666179172
380898,35,-8,1,1415,1743,-7801,1745173823666179172
381090,32,-5,0,1407,1709,-7808,1745173823666179172
381282,29,-2,0,1383,1698,-7816,1745173823714367013
381474,24,1,2,1375,1694,-7822,1745173823714367013
381666,19,7,5,1368,1675,-7810,1745173823714367013
381858,15,10,8,1378,1709,-7768,1745173823714367013
382050,13,13,12,1361,1770,-7736,1745173823714367013
382242,21,17,12,1405,1827,-7727,1745173823714367013
382434,30,11,17,1467,1810,-7722,1745173823714367013
382626,30,4,20,1521,1738,-7820,1745173823714367013
382818,26,-1,24,1479,1658,-7772,1745173823714367013
383010,23,-2,26,1407,1633,-7757,1745173823714367013
383202,18,-2,28,1423,1612,-7765,1745173823714367013
383394,13,-5,30,1457,1616,-7770,1745173823714367013
997410,324,-231,29,981,1981,-7101,1745173839371748254
997602,21,8,3,915,1698,-8215,1745173839371748254
997794,73,-57,4,883,1828,-7793,1745173839371748254
997986,15,-34,21,702,2038,-7803,1745173839371748254
998178,-1,-12,3,578,2043,-7900,1745173839371748254
998370,-9,-20,-1,620,1932,-7869,1745173839371748254
998562,-48,12,9,679,1834,-7887,1745173839371748254
998754,-64,25,10,729,1801,-7887,1745173839371748254
998946,-89,24,7,767,1846,-7881,1745173839371748254
999138,-116,41,7,759,1931,-7864,1745173839371748254
999330,-126,40,7,826,2061,-7886,1745173839371748254
999522,-132,34,6,911,2342,-7974,1745173839371748254
999714,-122,39,2,901,2649,-8050,1745173839437032136
999906,-110,33,-9,864,2766,-7995,1745173839437032136
1000098,-101,28,-13,860,2779,-7925,1745173839437032136
1000290,-74,27,-6,871,2900,-7934,1745173839437032136
1000482,-40,17,-5,868,3120,-7902,1745173839437032136
1000674,2,16,-26,801,3323,-7872,1745173839437032136
1000866,56,14,-41,717,3476,-7851,1745173839437032136
1001058,123,17,-37,621,3486,-7787,1745173839437032136
1001250,134,47,-36,509,2349,-7535,1745173839437032136
1001442,230,111,-9,719,4014,-8342,1745173839437032136
1001634,396,5,-16,588,3816,-7311,1745173839437032136
1001826,353,94,-17,595,3350,-7707,1745173839437032136
1002018,484,61,-13,855,2955,-7943,1745173839483184423
1002210,504,39,9,1201,1865,-8031,1745173839483184423
1002402,70,31,-52,1385,-4322,-7789,1745173839483184423
1002594,-161,61,-51,732,-3432,-6391,1745173839483184423
1002786,-109,-18,75,656,-1477,-6697,1745173839483184423
1002978,-404,11,71,535,205,-7692,1745173839483184423
1003170,-483,69,11,456,1819,-8549,1745173839483184423
1003362,-493,59,12,729,3108,-8184,1745173839483184423
1003554,-509,74,24,930,3934,-7801,1745173839483184423
1003746,-423,70,13,1021,4225,-7858,1745173839483184423
1003938,-333,26,-8,1223,3985,-7821,1745173839483184423
1004130,-263,-22,-22,1338,3495,-7721,1745173839483184423
1004322,-202,-64,-22,1259,3025,-7648,1745173839555059808
1004514,-163,-106,-22,1102,2629,-7594,1745173839555059808
1004706,-139,-130,-31,944,2370,-7620,1745173839555059808
1004898,-128,-139,-37,765,2276,-7636,1745173839555059808
1005090,-120,-132,-33,583,2314,-7616,1745173839555059808
1005282,-113,-110,-29,451,2443,-7605,1745173839555059808
1005474,-97,-78,-27,414,2584,-7650,1745173839555059808
1005666,-79,-47,-25,429,2675,-7692,1745173839555059808
1005858,-61,-14,-16,404,2764,-7739,1745173839555059808
1006050,-45,13,-4,534,2780,-7708,1745173839555059808
1006242,-26,18,10,785,2695,-7726,1745173839555059808
1006434,-14,19,-1,929,2509,-7769,1745173839555059808
1006626,-14,10,-18,966,2323,-7780,1745173839609525352
1006818,-19,-12,-10,936,2208,-7764,1745173839609525352
1007010,-33,-26,-17,887,2103,-7753,1745173839609525352
1007202,-49,-36,-19,836,2027,-7760,1745173839609525352
1007394,-66,-44,-17,745,2059,-7778,1745173839609525352
1007586,-85,-37,-14,654,2112,-7758,1745173839609525352
1007778,-100,-24,-11,599,2203,-7711,1745173839609525352
1007970,-110,-10,-5,627,2281,-7721,1745173839609525352
1008162,-113,-2,-4,687,2343,-7762,1745173839609525352
1008354,-119,6,-7,746,2417,-7772,1745173839609525352
1008546,-120,7,-6,754,2484,-7735,1745173839609525352
1008738,-118,5,-4,782,2517,-7676,1745173839609525352
1008930,-110,2,-6,769,2514,-7671,1745173839661954352
1009122,-103,0,-5,733,2538,-7686,1745173839661954352
1009314,-93,0,-4,702,2566,-7677,1745173839661954352
1009506,-86,5,-5,686,2599,-7671,1745173839661954352
1009698,-75,12,-4,660,2627,-7699,1745173839661954352
1009890,-64,19,-5,627,2643,-7686,1745173839661954352
1010082,-55,28,-2,636,2643,-7667,1745173839661954352
1010274,-44,37,1,638,2636,-7673,1745173839661954352
1010466,-34,47,2,657,2580,-7693,1745173839661954352
1010658,-29,53,5,687,2531,-7703,1745173839661954352
1010850,-24,59,8,702,2467,-7701,1745173839661954352
1011042,-24,65,9,725,2442,-7708,1745173839661954352
1011234,-27,66,9,759,2406,-7722,1745173839722104532
1011426,-30,67,10,773,2398,-7727,1745173839722104532
1011618,-33,67,11,791,2398,-7711,1745173839722104532
1011810,-36,66,10,806,2416,-7718,1745173839722104532
1012002,-39,64,9,822,2434,-7706,1745173839722104532
1012194,-40,61,8,815,2458,-7688,1745173839722104532
1012386,-41,57,9,821,2471,-7691,1745173839722104532
1012578,-39,54,8,831,2482,-7687,1745173839722104532
1012770,-37,51,7,831,2507,-7699,1745173839722104532
1012962,-35,48,6,821,2507,-7705,1745173839722104532
1013154,-34,45,6,823,2494,-7695,1745173839722104532
1013346,-32,43,6,798,2501,-7687,1745173839722104532
1013538,-30,44,6,788,2484,-7694,1745173839780476499
1013730,-30,44,5,781,2488,-7684,1745173839780476499
1013922,-28,41,7,793,2499,-7682,1745173839780476499
1014114,-26,41,9,801,2519,-7678,1745173839780476499
1014306,-24,41,9,797,2529,-7694,1745173839780476499
1014498,-22,41,10,796,2559,-7706,1745173839780476499
1014690,-19,43,11,788,2550,-7705,1745173839780476499
1014882,-16,46,11,786,2550,-7694,1745173839780476499
1015074,-12,46,13,814,2549,-7666,1745173839780476499
1015266,-6,46,14,815,2561,-7652,1745173839780476499
1015458,1,46,14,835,2577,-7662,1745173839780476499
1015650,9,45,14,840,2601,-7664,1745173839780476499
1015842,16,43,15,841,2627,-7664,1745173839845529082
1016034,25,40,15,865,2637,-7657,1745173839845529082
1016226,34,37,13,859,2621,-7672,1745173839845529082
1016418,43,34,12,855,2603,-7670,1745173839845529082
1016610,50,31,13,860,2573,-7668,1745173839845529082
1016802,58,30,14,831,2549,-7676,1745173839845529082
1016994,64,30,14,811,2538,-7696,1745173839845529082
1017186,69,29,15,821,2519,-7692,1745173839845529082
1017378,72,30,16,818,2509,-7699,1745173839845529082
1017570,76,31,17,821,2488,-7672,1745173839845529082
1017762,79,33,17,827,2483,-7675,1745173839845529082
1017954,83,32,18,826,2455,-7726,1745173839845529082
1018146,82,30,19,836,2427,-7756,1745173839895408262
1018338,77,31,19,827,2396,-7720,1745173839895408262
1018530,76,32,21,823,2373,-7660,1745173839895408262
1018722,76,33,23,832,2371,-7672,1745173839895408262
1018914,76,33,24,855,2397,-7715,1745173839895408262
1019106,75,31,26,871,2420,-7733,1745173839895408262
1019298,75,28,25,895,2462,-7726,1745173839895408262
1019490,77,24,24,902,2471,-7683,1745173839895408262
1019682,81,21,23,884,2454,-7672,1745173839895408262
1019874,86,18,23,881,2459,-7679,1745173839895408262
1020066,92,16,23,857,2463,-7709,1745173839895408262
1020258,97,14,22,887,2474,-7742,1745173839895408262
1020450,100,11,21,873,2468,-7730,1745173839957552381
1020642,103,10,22,862,2459,-7701,1745173839957552381
1020834,108,8,24,844,2441,-7703,1745173839957552381
1021026,114,9,23,860,2411,-7706,1745173839957552381
1021218,117,10,25,839,2391,-7719,1745173839957552381
1021410,119,10,28,840,2355,-7748,1745173839957552381
1021602,118,10,28,856,2341,-7766,1745173839957552381
1021794,116,12,28,847,2318,-7751,1745173839957552381
1021986,114,13,30,860,2291,-7725,1745173839957552381
1022178,112,14,31,852,2285,-7732,1745173839957552381
1022370,109,14,31,862,2277,-7748,1745173839957552381
1022562,105,16,31,863,2299,-7774,1745173839957552381
1022754,101,16,30,857,2298,-7764,1745173840019432597
1022946,98,17,31,850,2304,-7755,1745173840019432597
1023138,97,19,32,830,2304,-7752,1745173840019432597
1023330,94,22,33,827,2279,-7771,1745173840019432597
1023522,92,26,33,815,2265,-7761,1745173840019432597
1023714,90,30,33,826,2263,-7754,1745173840019432597
1023906,87,34,36,830,2264,-7769,1745173840019432597
1024098,84,38,38,836,2248,-7787,1745173840019432597
1024290,82,40,40,849,2231,-7763,1745173840019432597
1024482,77,44,46,850,2235,-7752,1745173840019432597
1024674,69,45,61,833,2215,-7748,1745173840019432597
1024866,61,43,90,867,2181,-7778,1745173840019432597
1025058,51,41,121,872,2174,-7786,1745173840068430014
1025250,42,39,143,868,2170,-7759,1745173840068430014
1025442,34,41,142,855,2173,-7756,1745173840068430014
1025634,29,50,128,852,2186,-7763,1745173840068430014
1025826,27,62,103,846,2210,-7784,1745173840068430014
1026018,25,71,83,870,2207,-7796,1745173840068430014
1026210,21,76,70,907,2192,-7779,1745173840068430014
1026402,18,78,60,942,2157,-7760,1745173840068430014
1026594,12,76,49,952,2125,-7748,1745173840068430014
1026786,3,75,40,981,2080,-7773,1745173840068430014
1026978,-6,72,34,985,2086,-7786,1745173840068430014
1027170,-16,69,28,961,2118,-7773,1745173840068430014
1027362,-24,66,23,950,2131,-7773,1745173840129545133
1027554,-30,66,21,932,2178,-7787,1745173840129545133
1027746,-35,67,18,935,2198,-7769,1745173840129545133
1027938,-38,68,16,929,2210,-7756,1745173840129545133
1028130,-39,70,14,962,2228,-7759,1745173840129545133
1028322,-40,71,15,948,2246,-7739,1745173840129545133
1028514,-39,72,15,977,2261,-7734,1745173840129545133
1028706,-39,72,16,993,2271,-7730,1745173840129545133
1028898,-39,71,16,1002,2289,-7749,1745173840129545133
1029090,-38,70,16,1018,2296,-7752,1745173840129545133
1029282,-37,69,16,1027,2306,-7742,1745173840129545133
1029474,-36,65,16,1034,2321,-7746,1745173840129545133
1029666,-34,61,15,1051,2331,-7734,1745173840187193825
1029858,-32,56,14,1046,2355,-7728,1745173840187193825
1030050,-30,49,11,1038,2337,-7722,1745173840187193825
1030242,-28,42,10,1049,2328,-7707,1745173840187193825
1030434,-26,36,8,1042,2322,-7711,1745173840187193825
1030626,-23,29,7,1038,2326,-7721,1745173840187193825
1030818,-22,23,6,1018,2321,-7738,1745173840187193825
1031010,-21,17,4,1022,2306,-7737,1745173840187193825
1031202,-20,13,3,1015,2296,-7726,1745173840187193825
1031394,-19,8,2,1019,2286,-7727,1745173840187193825
1031586,-18,6,2,1026,2284,-7718,1745173840187193825
1031778,-15,2,3,1012,2287,-7721,1745173840187193825
1031970,-12,0,3,1000,2293,-7707,1745173840255238881
1032162,-9,-2,3,1012,2293,-7719,1745173840255238881
1032354,-4,-3,3,1007,2288,-7729,1745173840255238881
1032546,-1,-5,4,1018,2297,-7738,1745173840255238881
1032738,3,-6,3,1025,2288,-7739,1745173840255238881
1032930,5,-8,3,1029,2296,-7731,1745173840255238881
1033122,8,-11,2,1028,2286,-7725,1745173840255238881
1033314,9,-13,1,1023,2288,-7720,1745173840255238881
1033506,11,-16,-1,1016,2287,-7738,1745173840255238881
1033698,11,-18,-2,996,2274,-7741,1745173840255238881
1033890,10,-20,-3,990,2241,-7730,1745173840255238881
1034082,8,-21,-3,976,2254,-7750,1745173840255238881
1034274,4,-23,-4,984,2222,-7757,1745173840304484889
1034466,-1,-22,-5,969,2221,-7755,1745173840304484889
1034658,-6,-22,-6,966,2223,-7741,1745173840304484889
1034850,-10,-21,-5,965,2227,-7732,1745173840304484889
1035042,-14,-21,-5,952,2253,-7734,1745173840304484889
1035234,-17,-20,-6,947,2280,-7741,1745173840304484889
1035426,-17,-19,-6,939,2303,-7718,1745173840304484889
1035618,-14,-16,-6,940,2333,-7718,1745173840304484889
1035810,-10,-15,-5,942,2354,-7732,1745173840304484889
1036002,-5,-12,-5,930,2361,-7737,1745173840304484889
1036194,1,-9,-4,929,2363,-7760,1745173840304484889
1036386,6,-6,-3,934,2338,-7759,1745173840304484889
1036578,11,-3,-3,943,2316,-7755,1745173840364794286
1036770,15,-1,-2,942,2276,-7751,1745173840364794286
1036962,17,1,-1,957,2246,-7753,1745173840364794286
1037154,17,3,0,948,2227,-7755,1745173840364794286
1037346,14,5,1,952,2193,-7748,1745173840364794286
1037538,12,5,1,948,2180,-7756,1745173840364794286
1037730,7,8,1,952,2170,-7751,1745173840364794286
1037922,2,10,1,939,2177,-7760,1745173840364794286
1038114,-4,12,1,945,2184,-7783,1745173840364794286
1038306,-12,15,1,951,2208,-7765,1745173840364794286
1038498,-19,17,0,955,2220,-7762,1745173840364794286
1038690,-22,17,0,964,2246,-7751,1745173840364794286
1038882,-26,18,0,960,2276,-7747,1745173840430619831
1039074,-28,19,-1,950,2287,-7750,1745173840430619831
1039266,-30,20,1,950,2301,-7739,1745173840430619831
1039458,-30,20,0,955,2309,-7726,1745173840430619831
1039650,-28,22,-1,940,2310,-7750,1745173840430619831
1039842,-27,23,0,952,2299,-7750,1745173840430619831
1040034,-26,25,0,944,2295,-7757,1745173840430619831
1040226,-25,28,0,955,2295,-7747,1745173840430619831
1040418,-23,28,1,952,2292,-7728,1745173840430619831
1040610,-21,30,1,970,2293,-7735,1745173840430619831
1040802,-20,30,1,982,2279,-7721,1745173840430619831
1040994,-18,31,2,984,2270,-7730,1745173840430619831
1041186,-17,31,2,992,2256,-7728,1745173840480014588
1041378,-17,30,2,996,2259,-7752,1745173840480014588
1041570,-18,31,3,1010,2242,-7762,1745173840480014588
1041762,-21,30,3,1021,2223,-7748,1745173840480014588
1041954,-23,28,3,1012,2225,-7741,1745173840480014588
1042146,-26,27,2,1000,2226,-7741,1745173840480014588
1042338,-30,24,2,1011,2243,-7737,1745173840480014588
1042530,-33,22,1,1010,2270,-7727,1745173840480014588
1042722,-36,19,1,1003,2281,-7729,1745173840480014588
1042914,-38,17,0,1005,2298,-7724,1745173840480014588
1043106,-37,15,1,1012,2329,-7715,1745173840480014588
1043298,-35,12,0,997,2351,-7716,1745173840480014588
1043490,-32,11,-1,999,2380,-7727,1745173840540189976
1043682,-27,8,-1,987,2394,-7726,1745173840540189976
1043874,-21,6,-1,1003,2408,-7723,1745173840540189976
1044066,-14,4,-2,1001,2412,-7721,1745173840540189976
1044258,-8,3,-1,998,2406,-7721,1745173840540189976
1044450,0,2,-1,996,2377,-7703,1745173840540189976
1044642,6,3,-1,991,2355,-7713,1745173840540189976
1044834,11,2,-1,996,2329,-7738,1745173840540189976
1045026,14,2,-1,993,2295,-7724,1745173840540189976
1045218,15,1,-1,1026,2268,-7731,1745173840540189976
1045410,14,0,-1,1027,2237,-7735,1745173840540189976
1045602,13,-2,-2,1023,2229,-7734,1745173840540189976
1045794,10,-5,-1,1037,2212,-7742,1745173840602628884
1045986,7,-9,-2,1010,2233,-7741,1745173840602628884
1046178,4,-12,-3,1013,2228,-7733,1745173840602628884
1046370,0,-14,-3,1004,2235,-7737,1745173840602628884
1046562,-3,-15,-4,992,2250,-7738,1745173840602628884
1046754,-5,-17,-5,977,2273,-7750,1745173840602628884
1046946,-8,-17,-5,979,2267,-7755,1745173840602628884
1047138,-10,-17,-4,957,2295,-7736,1745173840602628884
1047330,-10,-17,-4,968,2298,-7734,1745173840602628884
1047522,-10,-16,-3,969,2314,-7740,1745173840602628884
1047714,-8,-14,-4,955,2329,-7734,1745173840602628884
1047906,-7,-11,-4,934,2329,-7723,1745173840602628884
1048098,-5,-8,-3,935,2334,-7732,1745173840664437122
1048290,-3,-4,-3,946,2335,-7725,1745173840664437122
1048482,0,0,-2,948,2334,-7728,1745173840664437122
1048674,3,4,-2,968,2330,-7753,1745173840664437122
1048866,5,6,-1,969,2315,-7750,1745173840664437122
1049058,5,8,-2,981,2292,-7744,1745173840664437122
1049250,6,7,-2,998,2272,-7759,1745173840664437122
1049442,5,7,-3,1005,2257,-7743,1745173840664437122
1049634,3,5,-3,994,2232,-7740,1745173840664437122
1049826,2,3,-3,983,2215,-7737,1745173840664437122
1050018,-3,3,-5,987,2193,-7751,1745173840664437122
1050210,-8,3,-4,975,2191,-7740,1745173840664437122
1050402,-13,2,-5,970,2189,-7746,1745173840713471882
1050594,-18,4,-5,968,2176,-7757,1745173840713471882
1050786,-25,5,-5,967,2196,-7759,1745173840713471882
1050978,-31,6,-4,974,2229,-7753,1745173840713471882
1051170,-35,6,-5,959,2261,-7751,1745173840713471882
1051362,-37,5,-5,970,2292,-7754,1745173840713471882
1051554,-41,5,-5,983,2299,-7734,1745173840713471882
1051746,-42,5,-6,972,2302,-7732,1745173840713471882
1051938,-43,5,-6,968,2309,-7720,1745173840713471882
1052130,-42,6,-5,957,2319,-7714,1745173840713471882
1052322,-41,7,-4,964,2328,-7724,1745173840713471882
1052514,-40,8,-4,976,2346,-7739,1745173840713471882
1052706,-36,9,-5,966,2352,-7739,1745173840772216346
1052898,-31,9,-4,979,2385,-7724,1745173840772216346
1053090,-28,9,-4,985,2397,-7726,1745173840772216346
1053282,-21,8,-4,996,2400,-7729,1745173840772216346
1053474,-15,7,-4,974,2385,-7731,1745173840772216346
1053666,-10,6,-5,994,2366,-7719,1745173840772216346
1053858,-6,5,-5,981,2335,-7733,1745173840772216346
1054050,-4,4,-4,970,2287,-7733,1745173840772216346
1054242,-4,5,-4,968,2255,-7739,1745173840772216346
1054434,-7,7,-4,943,2247,-7742,1745173840772216346
1054626,-10,8,-4,973,2244,-7747,1745173840772216346
1054818,-14,9,-3,965,2226,-7756,1745173840772216346
1055010,-19,10,-4,981,2245,-7746,1745173840835882118
1055202,-23,10,-4,989,2255,-7729,1745173840835882118
1055394,-27,9,-3,996,2286,-7722,1745173840835882118
1055586,-29,7,-4,1001,2297,-7710,1745173840835882118
1055778,-30,6,-4,984,2309,-7715,1745173840835882118
1055970,-30,5,-4,953,2349,-7734,1745173840835882118
1056162,-27,6,-4,946,2370,-7724,1745173840835882118
1056354,-24,8,-4,949,2383,-7734,1745173840835882118
1056546,-19,10,-4,949,2392,-7738,1745173840835882118
1056738,-15,14,-4,937,2393,-7749,1745173840835882118
1056930,-10,17,-4,940,2374,-7732,1745173840835882118
1057122,-7,21,-4,933,2367,-7713,1745173840835882118
1057314,-2,26,-3,943,2347,-7729,1745173840889189288
1057506,0,30,-2,942,2314,-7741,1745173840889189288
1057698,1,34,-2,945,2309,-7779,1745173840889189288
1057890,-2,37,-1,949,2288,-7727,1745173840889189288
1058082,-9,44,-3,954,2234,-7676,1745173840889189288
1058274,-7,45,1,969,2195,-7817,1745173840889189288
1058466,-18,47,1,987,2191,-7839,1745173840889189288
1058658,-32,51,-2,976,2189,-7710,1745173840889189288
1058850,-40,54,-3,969,2195,-7691,1745173840889189288
1059042,-44,54,1,985,2195,-7814,1745173840889189288
1059234,-54,54,0,990,2225,-7791,1745173840889189288
1059426,-65,56,-2,980,2266,-7692,1745173840889189288
1059618,-69,57,-2,982,2271,-7716,1745173840949918316
1059810,-70,55,0,989,2275,-7818,1745173840949918316
1060002,-81,56,0,994,2264,-7769,1745173840949918316
1060194,-88,58,-2,979,2251,-7742,1745173840949918316
1060386,-91,59,-2,971,2243,-7805,1745173840949918316
1060578,-100,62,-1,961,2240,-7782,1745173840949918316
1060770,-114,68,-1,940,2244,-7705,1745173840949918316
1060962,-117,76,0,914,2228,-7781,1745173840949918316
1061154,-125,83,1,931,2226,-7845,1745173840949918316
1061346,-142,93,1,928,2217,-7768,1745173840949918316
1061538,-154,104,-1,941,2211,-7755,1745173840949918316
1061730,-164,112,-3,973,2208,-7798,1745173840949918316
1061922,-180,121,-10,982,2206,-7823,1745173841007899193
1062114,-197,131,-22,986,2191,-7865,1745173841007899193
1062306,-218,139,-26,992,2144,-7927,1745173841007899193
1062498,-246,148,-21,990,2097,-7952,1745173841007899193
1062690,-279,160,-24,993,2067,-7925,1745173841007899193
1062882,-312,174,-32,984,2046,-7920,1745173841007899193
1063074,-346,190,-41,997,2016,-8006,1745173841007899193
1063266,-388,205,-50,980,2023,-8174,1745173841007899193
1063458,-439,226,-61,937,2022,-8324,1745173841007899193
1063650,-492,259,-71,921,2026,-8397,1745173841007899193
1063842,-549,299,-91,854,2093,-8410,1745173841007899193
1064034,-593,354,-120,860,2126,-8478,1745173841007899193
1064226,-638,409,-157,862,2218,-8692,1745173841071661371
1064418,-685,480,-204,936,2332,-8908,1745173841071661371
1064610,-719,584,-289,1064,2461,-9090,1745173841071661371
1064802,-754,711,-400,1120,2525,-9181,1745173841071661371
1064994,-743,827,-476,1301,2569,-8717,1745173841071661371
1065186,-484,923,-494,1717,2281,-7784,1745173841071661371
1065378,-48,1028,-523,2287,2090,-8128,1745173841071661371
1065570,278,1034,-579,2927,1749,-9182,1745173841071661371
1065762,535,899,-616,3913,1142,-9716,1745173841071661371
1065954,747,703,-596,5011,345,-10107,1745173841071661371
1066146,993,434,-521,5788,-106,-10795,1745173841071661371
1066338,1109,123,-479,5889,-125,-11806,1745173841071661371
1066530,1101,-67,-481,5740,-38,-11645,1745173841122362835
1066722,1078,-164,-417,5803,-329,-10739,1745173841122362835
1066914,1199,-219,-242,6064,-886,-11110,1745173841122362835
1067106,1326,-207,42,6611,-883,-12453,1745173841122362835
1067298,1356,126,488,7926,307,-14001,1745173841122362835
1067490,1343,133,869,8633,216,-14307,1745173841122362835
1067682,1456,-8,1075,8439,-960,-14450,1745173841122362835
1067874,1804,-229,1202,8140,-2414,-14138,1745173841122362835
1068066,2337,-488,1278,7824,-3620,-13852,1745173841122362835
1068258,2824,-628,1387,7834,-4589,-14250,1745173841122362835
1068450,2962,-702,1520,7536,-5330,-13909,1745173841122362835
1068642,2847,-704,1679,7071,-6454,-13306,1745173841122362835
1068834,2640,-684,1947,7397,-8314,-12542,1745173841205889624
1069026,2421,-737,2298,7442,-9400,-12149,1745173841205889624
1069218,2074,-736,2704,6874,-9441,-12150,1745173841205889624
1069410,1642,-745,3102,6325,-9305,-12083,1745173841205889624
1069602,1191,-777,3335,5949,-9079,-11896,1745173841205889624
1069794,736,-762,3433,6057,-8892,-11792,1745173841205889624
1069986,317,-768,3478,6440,-8579,-11573,1745173841205889624
1070178,-23,-824,3532,6907,-8059,-11322,1745173841205889624
1070370,-284,-950,3586,7358,-7364,-11040,1745173841205889624
1070562,-483,-1099,3621,7690,-6478,-10866,1745173841205889624
1070754,-623,-1231,3636,7653,-5330,-10710,1745173841205889624
1070946,-694,-1335,3664,7413,-4110,-10499,1745173841205889624
1071138,-688,-1418,3715,7105,-2983,-10258,1745173841248325382
1071330,-614,-1500,3802,6786,-1992,-9948,1745173841248325382
1071522,-487,-1578,3928,6616,-1307,-9610,1745173841248325382
1071714,-333,-1667,4063,6480,-799,-9271,1745173841248325382
1071906,-167,-1748,4162,6233,-543,-8967,1745173841248325382
1072098,-33,-1792,4183,5910,-547,-8677,1745173841248325382
1072290,106,-1753,4246,5866,-669,-8346,1745173841248325382
1072482,178,-1705,4362,5655,-824,-8035,1745173841248325382
1072674,220,-1632,4451,5309,-799,-7834,1745173841248325382
1072866,244,-1560,4500,4912,-623,-7628,1745173841248325382
1073058,267,-1475,4519,4695,-447,-7491,1745173841248325382
1073250,274,-1374,4527,4609,-233,-7484,1745173841248325382
1073442,266,-1264,4545,4647,51,-7455,1745173841298458570
1073634,252,-1155,4584,4783,304,-7321,1745173841298458570
1073826,231,-1053,4631,5040,584,-7156,1745173841298458570
1074018,194,-956,4672,5303,833,-6987,1745173841298458570
1074210,150,-865,4707,5561,1042,-6828,1745173841298458570
1074402,110,-780,4719,5702,1314,-6631,1745173841298458570
1074594,88,-690,4714,5750,1685,-6451,1745173841298458570
1074786,79,-587,4701,5719,2145,-6350,1745173841298458570
1074978,74,-486,4692,5769,2563,-6349,1745173841298458570
1075170,78,-395,4694,5839,2981,-6251,1745173841298458570
1075362,91,-310,4708,5949,3325,-5943,1745173841298458570
1075554,101,-240,4739,6245,3454,-5789,1745173841298458570
1075746,115,-198,4787,6594,3426,-5608,1745173841374730060
1075938,151,-180,4836,6859,3353,-5367,1745173841374730060
1076130,207,-169,4865,7023,3342,-5181,1745173841374730060
1076322,262,-159,4867,7122,3399,-4943,1745173841374730060
1076514,301,-148,4844,7201,3475,-4843,1745173841374730060
1076706,326,-137,4809,7253,3640,-4860,1745173841374730060
1076898,351,-123,4762,7208,3899,-4857,1745173841374730060
1077090,380,-97,4709,7103,4248,-4924,1745173841374730060
1077282,414,-58,4658,6972,4585,-5083,1745173841374730060
1077474,451,-31,4612,6823,4911,-5256,1745173841374730060
1077666,485,-2,4572,6694,5139,-5414,1745173841374730060
1077858,517,28,4537,6550,5218,-5431,1745173841374730060
1078050,546,62,4508,6363,5198,-5441,1745173841428943159
1078242,562,100,4483,6168,5083,-5427,1745173841428943159
1078434,550,146,4458,5977,4877,-5424,1745173841428943159
1078626,510,208,4430,5772,4605,-5349,1745173841428943159
1078818,455,279,4409,5663,4305,-5180,1745173841428943159
1079010,383,342,4389,5665,3970,-4892,1745173841428943159
1079202,294,385,4372,5830,3600,-4538,1745173841428943159
1079394,206,409,4352,5967,3283,-4367,1745173841428943159
1079586,130,424,4316,5979,3140,-4426,1745173841428943159
1079778,64,447,4246,5805,3296,-4592,1745173841428943159
1079970,2,481,4146,5567,3650,-4934,1745173841428943159
1080162,-54,510,4029,5369,4032,-5213,1745173841428943159
1080354,-88,528,3905,5155,4426,-5447,1745173841473815353
1080546,-92,536,3787,4964,4828,-5520,1745173841473815353
1080738,-72,530,3684,4772,5185,-5543,1745173841473815353
1080930,-42,514,3596,4669,5379,-5534,1745173841473815353
1081122,-14,488,3505,4520,5398,-5520,1745173841473815353
1081314,13,446,3412,4250,5357,-5544,1745173841473815353
1081506,42,407,3319,3950,5218,-5532,1745173841473815353
1081698,54,381,3221,3650,4989,-5568,1745173841473815353
1081890,41,357,3116,3329,4709,-5634,1745173841473815353
1082082,3,343,3008,3012,4367,-5774,1745173841473815353
1082274,-49,339,2906,2713,4087,-5920,1745173841473815353
1082466,-115,343,2812,2434,3875,-5969,1745173841473815353
1082658,-196,356,2726,2187,3728,-6049,1745173841540416620
1082850,-292,374,2638,1985,3599,-6129,1745173841540416620
1083042,-392,383,2545,1831,3536,-6106,1745173841540416620
1083234,-483,387,2445,1667,3574,-6157,1745173841540416620
1083426,-568,392,2340,1488,3710,-6184,1745173841540416620
1083618,-630,394,2241,1328,3903,-6177,1745173841540416620
1083810,-670,391,2142,1248,4081,-6235,1745173841540416620
1084002,-689,382,2036,1168,4244,-6369,1745173841540416620
1084194,-687,370,1931,1103,4402,-6495,1745173841540416620
1084386,-663,357,1827,1083,4529,-6553,1745173841540416620
1084578,-627,342,1719,1127,4562,-6630,1745173841540416620
1084770,-582,321,1611,1161,4538,-6624,1745173841540416620
1084962,-532,298,1504,1171,4461,-6660,1745173841599402487
1085154,-483,276,1403,1112,4390,-6757,1745173841599402487
1085346,-438,253,1309,1059,4313,-6783,1745173841599402487
1085538,-393,227,1214,934,4208,-6814,1745173841599402487
1085730,-351,207,1123,812,4062,-6855,1745173841599402487
1085922,-311,194,1041,713,3843,-6909,1745173841599402487
1086114,-273,190,969,636,3612,-7018,1745173841599402487
1086306,-240,193,904,593,3370,-7131,1745173841599402487
1086498,-215,204,848,589,3164,-7202,1745173841599402487
1086690,-196,217,798,610,2969,-7288,1745173841599402487
1086882,-181,232,758,667,2807,-7355,1745173841599402487
1087074,-171,243,726,707,2683,-7437,1745173841599402487
1087266,-176,248,698,770,2573,-7500,1745173841658386792
1087458,-181,251,673,803,2501,-7534,1745173841658386792
1087650,-183,247,653,861,2458,-7538,1745173841658386792
1087842,-184,239,634,920,2452,-7501,1745173841658386792
1088034,-185,229,617,955,2494,-7504,1745173841658386792
1088226,-180,226,594,1035,2452,-7653,1745173841658386792
1088418,-181,228,529,1024,2400,-7801,1745173841658386792
1088610,-191,233,442,937,2362,-7790,1745173841658386792
1088802,-194,233,381,856,2274,-7785,1745173841658386792
1088994,-182,229,359,856,2160,-7832,1745173841658386792
1089186,-170,243,375,708,2125,-7859,1745173841658386792
1089378,-155,262,440,831,2149,-7934,1745173841658386792
1089570,-137,276,520,1033,2126,-8019,1745173841712614838
1089762,-122,293,567,1085,2124,-8142,1745173841712614838
1089954,-108,296,574,1091,2125,-8191,1745173841712614838
1090146,-92,290,551,1094,2026,-8147,1745173841712614838
1090338,-78,285,510,1084,1889,-8018,1745173841712614838
1090530,-64,284,464,1045,1824,-8214,1745173841712614838
1090722,-51,283,426,1035,1802,-8356,1745173841712614838
1090914,-40,284,402,1036,1860,-8370,1745173841712614838
1091106,-36,289,390,1062,1928,-8361,1745173841712614838
1091298,-30,289,382,1105,1934,-8310,1745173841712614838
1091490,-13,282,372,1198,1903,-8234,1745173841712614838
1091682,12,266,351,1264,1867,-8198,1745173841712614838
1091874,37,240,319,1313,1839,-8143,1745173841773024235
1092066,55,212,283,1290,1792,-8127,1745173841773024235
1092258,62,193,247,1225,1731,-8125,1745173841773024235
1092450,64,179,216,1152,1651,-8182,1745173841773024235
1092642,61,174,189,1131,1557,-8170,1745173841773024235
1092834,49,158,154,1146,1452,-8191,1745173841773024235
1093026,29,145,115,1227,1333,-8219,1745173841773024235
1093218,3,132,74,1261,1223,-8234,1745173841773024235
1093410,-20,125,46,1284,1142,-8245,1745173841773024235
1093602,-41,120,37,1312,1078,-8281,1745173841773024235
1093794,-58,116,37,1325,1067,-8284,1745173841773024235
1093986,-71,114,39,1280,1108,-8303,1745173841773024235
1094178,-82,120,40,1221,1186,-8280,1745173841842066104
1094370,-87,123,38,1232,1206,-8231,1745173841842066104
1094562,-84,127,32,1256,1202,-8218,1745173841842066104
1094754,-78,132,25,1257,1216,-8228,1745173841842066104
1094946,-71,138,21,1307,1206,-8269,1745173841842066104
1095138,-60,142,19,1356,1185,-8282,1745173841842066104
1095330,-45,144,17,1391,1144,-8263,1745173841842066104
1095522,-24,142,19,1409,1109,-8248,1745173841842066104
1095714,0,137,19,1423,1094,-8206,1745173841842066104
1095906,21,130,16,1385,1096,-8167,1745173841842066104
1096098,38,126,12,1376,1086,-8164,1745173841842066104
1096290,52,130,5,1344,1064,-8154,1745173841842066104
1096482,67,134,-5,1358,1007,-8145,1745173841911601823
1096674,83,133,-16,1377,946,-8135,1745173841911601823
1096866,101,131,-26,1397,895,-8151,1745173841911601823
1097058,118,129,-34,1448,822,-8156,1745173841911601823
1097250,126,125,-42,1515,748,-8161,1745173841911601823
1097442,130,118,-48,1559,667,-8161,1745173841911601823
1097634,132,109,-51,1605,597,-8132,1745173841911601823
1097826,128,96,-55,1647,534,-8103,1745173841911601823
1098018,114,79,-63,1660,487,-8112,1745173841911601823
1098210,95,65,-79,1643,457,-8107,1745173841911601823
1098402,71,60,-105,1557,461,-8072,1745173841911601823
1098594,49,58,-131,1509,411,-8084,1745173841911601823
1098786,32,59,-153,1490,363,-8106,1745173841946382130
1098978,18,64,-163,1446,315,-8106,1745173841946382130
1099170,6,66,-154,1461,264,-8089,1745173841946382130
1099362,-9,66,-138,1500,230,-8086,1745173841946382130
1099554,-31,66,-129,1541,208,-8121,1745173841946382130
1099746,-52,65,-126,1552,207,-8124,1745173841946382130
1099938,-64,66,-127,1536,259,-8170,1745173841946382130
1100130,-67,68,-127,1530,308,-8189,1745173841946382130
1100322,-62,72,-120,1507,371,-8169,1745173841946382130
1100514,-50,74,-103,1531,434,-8169,1745173841946382130
1100706,-36,73,-86,1568,448,-8178,1745173841946382130
1100898,-22,71,-77,1611,432,-8174,1745173841946382130
1101090,-6,68,-74,1664,370,-8163,1745173842017814707
1101282,15,60,-75,1694,281,-8160,1745173842017814707
1101474,38,53,-78,1704,212,-8185,1745173842017814707
1101666,56,48,-79,1667,163,-8179,1745173842017814707
1101858,67,45,-80,1636,101,-8171,1745173842017814707
1102050,72,46,-80,1590,76,-8187,1745173842017814707
1102242,71,49,-81,1566,11,-8168,1745173842017814707
1102434,67,51,-79,1545,-34,-8145,1745173842017814707
1102626,62,54,-78,1535,-111,-8130,1745173842017814707
1102818,59,59,-75,1543,-145,-8088,1745173842017814707
1103010,56,64,-74,1572,-209,-8095,1745173842017814707
1103202,50,65,-74,1616,-202,-8134,1745173842017814707
1103394,46,66,-74,1640,-170,-8149,1745173842064627404
1103586,42,66,-74,1688,-127,-8143,1745173842064627404
1103778,43,62,-75,1726,-96,-8133,1745173842064627404
1103970,45,51,-74,1770,-102,-8114,1745173842064627404
1104162,50,35,-76,1813,-147,-8116,1745173842064627404
1104354,59,16,-78,1848,-173,-8100,1745173842064627404
1104546,63,0,-79,1814,-200,-8107,1745173842064627404
1104738,63,-12,-82,1750,-200,-8137,1745173842064627404
1104930,59,-21,-82,1689,-226,-8113,1745173842064627404
1105122,51,-27,-80,1643,-244,-8098,1745173842064627404
1105314,41,-29,-76,1592,-283,-8130,1745173842064627404
1105506,30,-26,-69,1540,-303,-8133,1745173842064627404
1105698,20,-20,-61,1533,-300,-8145,1745173842120551841
1105890,8,-15,-53,1535,-308,-8153,1745173842120551841
1106082,-4,-10,-44,1581,-342,-8133,1745173842120551841
1106274,-14,-6,-35,1603,-347,-8102,1745173842120551841
1106466,-21,1,-27,1629,-332,-8067,1745173842120551841
1106658,-25,8,-18,1662,-268,-8050,1745173842120551841
1106850,-26,15,-11,1700,-192,-8043,1745173842120551841
1107042,-26,18,-6,1723,-124,-8061,1745173842120551841
1107234,-22,15,-3,1764,-57,-8042,1745173842120551841
1107426,-18,10,-1,1773,-23,-8043,1745173842120551841
1107618,-9,3,-2,1746,-11,-8047,1745173842120551841
1107810,4,-6,-4,1695,0,-8044,1745173842120551841
1108002,15,-14,-8,1653,-2,-8048,1745173842181628002
1108194,19,-21,-13,1605,-25,-8053,1745173842181628002
1108386,18,-26,-16,1573,-63,-8032,1745173842181628002
1108578,16,-29,-15,1550,-98,-8033,1745173842181628002
1108770,15,-28,-10,1549,-128,-8011,1745173842181628002
1108962,11,-24,-5,1527,-98,-7991,1745173842181628002
1109154,7,-20,0,1553,-83,-7971,1745173842181628002
1109346,6,-17,4,1555,-53,-7948,1745173842181628002
1109538,7,-16,5,1577,-28,-7937,1745173842181628002
1109730,8,-16,5,1556,-12,-7923,1745173842181628002
1109922,7,-16,4,1570,10,-7910,1745173842181628002
1110114,7,-15,4,1568,-8,-7876,1745173842181628002
1110306,6,-15,6,1565,-31,-7843,1745173842248813169
1110498,6,-12,7,1529,-22,-7841,1745173842248813169
1110690,3,-7,6,1528,0,-7835,1745173842248813169
1110882,1,-2,5,1510,19,-7831,1745173842248813169
1111074,3,6,2,1516,34,-7833,1745173842248813169
1111266,8,13,0,1540,71,-7833,1745173842248813169
1111458,17,18,-5,1560,96,-7827,1745173842248813169
1111650,29,20,-8,1595,113,-7816,1745173842248813169
1111842,40,17,-11,1602,123,-7812,1745173842248813169
1112034,49,13,-14,1611,116,-7822,1745173842248813169
1112226,57,8,-14,1603,113,-7849,1745173842248813169
1112418,61,6,-13,1575,112,-7861,1745173842248813169
1112610,62,5,-11,1561,100,-7861,1745173842302663511
1112802,62,6,-10,1550,59,-7873,1745173842302663511
1112994,60,9,-9,1566,24,-7864,1745173842302663511
1113186,58,12,-9,1559,-8,-7859,1745173842302663511
1113378,52,15,-9,1591,-22,-7893,1745173842302663511
1113570,43,17,-9,1589,-20,-7889,1745173842302663511
1113762,35,19,-9,1578,-22,-7911,1745173842302663511
1113954,29,20,-9,1563,-13,-7921,1745173842302663511
1114146,22,23,-8,1550,11,-7927,1745173842302663511
1114338,18,27,-8,1544,10,-7939,1745173842302663511
1114530,16,31,-6,1557,32,-7937,1745173842302663511
1114722,16,35,-4,1584,25,-7915,1745173842302663511
1114914,15,37,1,1606,42,-7922,1745173842360029706
1115106,15,38,6,1594,38,-7920,1745173842360029706
1115298,18,36,10,1600,65,-7934,1745173842360029706
1115490,21,36,14,1577,124,-7953,1745173842360029706
1115682,22,37,15,1576,160,-7964,1745173842360029706
1115874,23,39,15,1605,149,-7943,1745173842360029706
1116066,27,38,13,1638,130,-7924,1745173842360029706
1116258,32,34,12,1662,89,-7934,1745173842360029706
1116450,37,29,8,1656,52,-7938,1745173842360029706
1116642,38,25,3,1655,25,-7954,1745173842360029706
1116834,34,21,-2,1637,5,-7988,1745173842360029706
1117026,27,19,-4,1589,18,-7982,1745173842360029706
1117218,18,17,-5,1591,-2,-7981,1745173842418284382
1117410,10,16,-5,1590,-28,-7975,1745173842418284382
1117602,3,15,-4,1571,-30,-7967,1745173842418284382
1117794,-6,19,-3,1569,5,-7993,1745173842418284382
1117986,-17,23,0,1576,29,-7989,1745173842418284382
1118178,-27,23,3,1596,40,-7992,1745173842418284382
1118370,-33,22,6,1610,65,-7993,1745173842418284382
1118562,-36,19,5,1616,80,-7993,1745173842418284382
1118754,-36,18,5,1600,115,-7982,1745173842418284382
1118946,-34,16,3,1605,154,-7988,1745173842418284382
1119138,-33,14,-1,1609,182,-7996,1745173842418284382
1119330,-30,13,-4,1611,199,-7992,1745173842418284382
1119522,-21,11,-8,1617,197,-7987,1745173842472194150
1119714,-9,10,-12,1621,214,-7988,1745173842472194150
1119906,1,8,-13,1632,181,-7977,1745173842472194150
1120098,6,6,-15,1637,130,-7955,1745173842472194150
1120290,10,5,-13,1632,100,-7984,1745173842472194150
1120482,14,7,-10,1606,63,-7971,1745173842472194150
1120674,16,9,-7,1597,67,-7968,1745173842472194150
1120866,14,10,-6,1570,54,-7953,1745173842472194150
1121058,12,10,-6,1564,11,-7938,1745173842472194150
1121250,11,11,-5,1559,-36,-7919,1745173842472194150
1121442,7,14,-4,1542,-30,-7937,1745173842472194150
1121634,-2,18,-2,1538,-38,-7942,1745173842472194150
1121826,-13,24,0,1533,12,-7941,1745173842530840333
1122018,-24,29,0,1557,46,-7935,1745173842530840333
1122210,-28,32,1,1587,76,-7928,1745173842530840333
1122402,-27,35,1,1639,97,-7941,1745173842530840333
1122594,-21,34,0,1669,128,-7954,1745173842530840333
1122786,-15,28,-4,1674,166,-7940,1745173842530840333
1122978,-11,20,-8,1667,183,-7961,1745173842530840333
1123170,-6,14,-12,1644,174,-7946,1745173842530840333
1123362,0,12,-14,1626,151,-7930,1745173842530840333
1123554,4,12,-16,1636,107,-7965,1745173842530840333
