timestamp,gyr_x,gyr_y,gyr_z,acc_x,acc_y,acc_z,pkt_time_ns
168352,-23,-30,10,2352,2363,-7920,1745172586777422111
168544,-183,-36,12,2443,1538,-7518,1745172586777422111
168736,-46,-38,-8,2372,1756,-7665,1745172586777422111
168928,23,-19,9,2117,2011,-7538,1745172586777422111
169120,35,-38,5,2133,2174,-7581,1745172586777422111
169312,31,-20,6,2267,1975,-7615,1745172586777422111
169504,51,-7,6,2165,1821,-7519,1745172586777422111
169696,53,-5,10,2054,1840,-7529,1745172586777422111
169888,56,15,17,2140,1865,-7593,1745172586777422111
170080,65,19,18,2285,1850,-7640,1745172586777422111
170272,58,18,16,2381,1799,-7683,1745172586777422111
170464,61,24,15,2406,1806,-7739,1745172586777422111
170656,73,14,16,2477,1929,-7807,1745172586831276671
170848,87,9,16,2518,2028,-7868,1745172586831276671
171040,101,8,8,2487,1943,-7874,1745172586831276671
171232,109,-3,-3,2378,1919,-7863,1745172586831276671
171424,133,4,-2,2383,2057,-7867,1745172586831276671
171616,158,-5,11,2529,2281,-7809,1745172586831276671
171808,181,-34,-1,2684,2403,-7698,1745172586831276671
172000,208,-65,-12,2693,2313,-7638,1745172586831276671
172192,234,-95,-14,2564,2047,-7578,1745172586831276671
172384,239,-112,-24,2318,1666,-7555,1745172586831276671
172576,231,-102,-38,2041,1431,-7553,1745172586831276671
172768,215,-86,-32,1798,1170,-6845,1745172586831276671
172960,25,-33,-27,1837,928,-8302,1745172586891515496
173152,203,12,-4,1822,1626,-7458,1745172586891515496
173344,141,2,-14,1832,1583,-7709,1745172586891515496
173536,108,58,-14,2169,1550,-7831,1745172586891515496
173728,151,55,5,2338,1745,-7783,1745172586891515496
173920,126,49,3,2381,1808,-7708,1745172586891515496
174112,127,43,-8,2425,1800,-7714,1745172586891515496
174304,134,13,1,2523,1691,-7676,1745172586891515496
174496,104,-18,6,2648,799,-7893,1745172586891515496
174688,-302,-46,-66,2765,-4478,-7417,1745172586891515496
174880,-506,4,-49,1300,-2436,-6400,1745172586891515496
175072,-391,37,74,917,193,-7278,1745172586891515496
175264,-608,119,25,1117,1999,-7671,1745172586948721692
175456,-604,218,-38,1644,3258,-7944,1745172586948721692
175648,-460,231,-3,2488,4079,-7778,1745172586948721692
175840,-358,208,10,3151,4419,-7531,1745172586948721692
176032,-218,142,-7,3474,4332,-7533,1745172586948721692
176224,-63,46,2,3475,3944,-7443,1745172586948721692
176416,61,-45,9,3162,3409,-7390,1745172586948721692
176608,156,-100,0,2633,2818,-7478,1745172586948721692
176800,224,-118,1,2164,2251,-7574,1745172586948721692
176992,259,-104,11,1872,1737,-7606,1745172586948721692
177184,265,-67,13,1761,1350,-7620,1745172586948721692
177376,244,-30,12,1832,1068,-7622,1745172586948721692
177568,206,0,17,2027,913,-7606,1745172587008278544
177760,157,18,20,2243,879,-7622,1745172587008278544
177952,106,27,21,2390,945,-7684,1745172587008278544
178144,57,22,21,2479,1109,-7676,1745172587008278544
178336,13,12,16,2507,1302,-7608,1745172587008278544
178528,-16,-1,10,2481,1476,-7565,1745172587008278544
178720,-34,-15,4,2437,1604,-7575,1745172587008278544
178912,-42,-24,-1,2402,1691,-7616,1745172587008278544
179104,-46,-30,-3,2379,1735,-7645,1745172587008278544
179296,-46,-34,-7,2321,1759,-7611,1745172587008278544
179488,-45,-36,-10,2311,1754,-7555,1745172587008278544
179680,-40,-36,-9,2296,1750,-7574,1745172587008278544
179872,-35,-35,-9,2308,1756,-7621,1745172587066792176
180064,-30,-36,-10,2294,1775,-7632,1745172587066792176
180256,-26,-36,-12,2269,1789,-7633,1745172587066792176
180448,-21,-37,-13,2246,1798,-7634,1745172587066792176
180640,-15,-36,-13,2246,1778,-7632,1745172587066792176
180832,-13,-32,-15,2223,1738,-7637,1745172587066792176
181024,-13,-28,-16,2243,1694,-7668,1745172587066792176
181216,-16,-25,-16,2243,1667,-7685,1745172587066792176
181408,-23,-22,-17,2228,1596,-7655,1745172587066792176
181600,-34,-20,-20,2226,1553,-7615,1745172587066792176
181792,-45,-16,-21,2223,1513,-7612,1745172587066792176
181984,-60,-13,-22,2203,1484,-7663,1745172587066792176
182176,-77,-9,-24,2209,1498,-7666,1745172587127960940
182368,-92,-6,-26,2199,1521,-7668,1745172587127960940
182560,-108,-3,-26,2191,1565,-7659,1745172587127960940
182752,-120,2,-27,2178,1603,-7652,1745172587127960940
182944,-127,8,-27,2178,1683,-7657,1745172587127960940
183136,-133,14,-25,2198,1741,-7665,1745172587127960940
183328,-136,18,-25,2201,1807,-7655,1745172587127960940
183520,-134,21,-25,2227,1847,-7622,1745172587127960940
183712,-128,24,-24,2251,1915,-7584,1745172587127960940
183904,-120,24,-23,2280,1944,-7592,1745172587127960940
184096,-110,24,-22,2316,1952,-7607,1745172587127960940
184288,-100,19,-23,2343,1946,-7580,1745172587127960940
184480,-91,14,-23,2374,1949,-7586,1745172587182175705
184672,-82,7,-23,2378,1913,-7572,1745172587182175705
184864,-76,1,-22,2387,1894,-7590,1745172587182175705
185056,-70,-4,-24,2361,1854,-7599,1745172587182175705
185248,-69,-10,-24,2348,1825,-7601,1745172587182175705
185440,-70,-15,-25,2331,1792,-7587,1745172587182175705
185632,-72,-20,-25,2335,1786,-7565,1745172587182175705
185824,-74,-22,-25,2339,1797,-7551,1745172587182175705
186016,-77,-26,-26,2347,1802,-7561,1745172587182175705
186208,-78,-32,-26,2343,1839,-7573,1745172587182175705
186400,-78,-39,-26,2326,1863,-7568,1745172587182175705
186592,-76,-44,-26,2322,1894,-7558,1745172587182175705
186784,-73,-49,-25,2294,1922,-7575,1745172587242656403
186976,-66,-51,-24,2299,1967,-7577,1745172587242656403
187168,-57,-53,-23,2263,1997,-7577,1745172587242656403
187360,-46,-56,-21,2252,2039,-7589,1745172587242656403
187552,-34,-58,-19,2255,2072,-7579,1745172587242656403
187744,-21,-59,-16,2256,2095,-7577,1745172587242656403
187936,-7,-60,-14,2249,2080,-7571,1745172587242656403
188128,7,-60,-12,2242,2046,-7582,1745172587242656403
188320,19,-62,-9,2250,2003,-7584,1745172587242656403
188512,28,-63,-8,2254,1957,-7584,1745172587242656403
188704,35,-65,-7,2243,1944,-7600,1745172587242656403
188896,42,-66,-6,2233,1917,-7604,1745172587242656403
189088,46,-68,-5,2228,1891,-7609,1745172587298376415
189280,48,-68,-4,2232,1881,-7602,1745172587298376415
189472,51,-69,-3,2215,1878,-7595,1745172587298376415
189664,54,-69,-2,2217,1890,-7610,1745172587298376415
189856,58,-69,0,2207,1896,-7621,1745172587298376415
190048,62,-69,2,2178,1910,-7630,1745172587298376415
190240,66,-68,2,2180,1904,-7612,1745172587298376415
190432,71,-69,4,2187,1909,-7629,1745172587298376415
190624,77,-69,4,2166,1917,-7633,1745172587298376415
190816,82,-68,5,2160,1913,-7637,1745172587298376415
191008,87,-66,7,2163,1907,-7639,1745172587298376415
191200,92,-65,8,2173,1877,-7638,1745172587298376415
191392,96,-64,9,2174,1861,-7653,1745172587357410146
191584,99,-62,10,2187,1831,-7647,1745172587357410146
191776,100,-63,11,2192,1792,-7648,1745172587357410146
191968,101,-65,11,2201,1776,-7632,1745172587357410146
192160,100,-66,11,2195,1772,-7634,1745172587357410146
192352,97,-68,11,2201,1759,-7637,1745172587357410146
192544,96,-71,11,2199,1763,-7647,1745172587357410146
192736,93,-72,12,2178,1765,-7652,1745172587357410146
192928,93,-74,12,2156,1770,-7647,1745172587357410146
193120,93,-73,12,2143,1762,-7647,1745172587357410146
193312,93,-71,12,2115,1769,-7665,1745172587357410146
193504,94,-70,13,2115,1776,-7682,1745172587357410146
193696,95,-69,14,2086,1780,-7685,1745172587417302255
193888,97,-65,16,2071,1770,-7686,1745172587417302255
194080,98,-61,16,2071,1763,-7690,1745172587417302255
194272,101,-58,16,2055,1755,-7699,1745172587417302255
194464,101,-55,18,2073,1728,-7677,1745172587417302255
194656,102,-51,20,2078,1718,-7665,1745172587417302255
194848,102,-47,21,2105,1688,-7693,1745172587417302255
195040,98,-45,23,2095,1674,-7704,1745172587417302255
195232,91,-46,34,2107,1641,-7680,1745172587417302255
195424,84,-45,46,2115,1622,-7663,1745172587417302255
195616,80,-45,44,2125,1610,-7687,1745172587417302255
195808,75,-45,36,2111,1608,-7702,1745172587417302255
196000,70,-47,28,2107,1603,-7686,1745172587479460125
196192,65,-46,25,2102,1603,-7663,1745172587479460125
196384,58,-45,28,2075,1588,-7681,1745172587479460125
196576,39,-42,63,2113,1547,-7651,1745172587479460125
196768,33,-44,82,2145,1599,-7690,1745172587479460125
196960,33,-44,56,2074,1674,-7711,1745172587479460125
197152,38,-43,23,2037,1723,-7707,1745172587479460125
197344,45,-40,6,2024,1724,-7685,1745172587479460125
197536,50,-35,6,2046,1731,-7686,1745172587479460125
197728,56,-32,8,2081,1728,-7704,1745172587479460125
197920,60,-31,7,2098,1728,-7706,1745172587479460125
198112,64,-32,8,2089,1730,-7692,1745172587479460125
198304,69,-30,9,2058,1711,-7704,1745172587536651582
198496,71,-28,11,2046,1687,-7712,1745172587536651582
198688,62,-22,33,2028,1573,-7702,1745172587536651582
198880,51,-21,89,2124,1533,-7698,1745172587536651582
199072,54,-22,64,2081,1571,-7747,1745172587536651582
199264,55,-19,15,1997,1605,-7754,1745172587536651582
199456,53,-12,-6,1960,1536,-7747,1745172587536651582
199648,45,-5,2,1996,1469,-7738,1745172587536651582
199840,33,1,2,2026,1446,-7743,1745172587536651582
200032,21,5,-1,2014,1431,-7724,1745172587536651582
200224,8,11,-2,2008,1444,-7716,1745172587536651582
200416,-4,18,-1,2011,1466,-7729,1745172587536651582
200608,-14,24,-1,2030,1496,-7741,1745172587589963178
200800,-22,28,-3,2037,1539,-7752,1745172587589963178
200992,-28,31,-4,2049,1572,-7736,1745172587589963178
201184,-31,34,-6,2067,1603,-7730,1745172587589963178
201376,-32,37,-6,2063,1625,-7741,1745172587589963178
201568,-33,40,-5,2079,1647,-7719,1745172587589963178
201760,-33,44,-6,2084,1663,-7727,1745172587589963178
201952,-31,45,-6,2068,1675,-7727,1745172587589963178
202144,-29,46,-6,2064,1672,-7725,1745172587589963178
202336,-27,48,-7,2070,1680,-7706,1745172587589963178
202528,-25,51,-6,2066,1666,-7704,1745172587589963178
202720,-23,51,-5,2077,1657,-7707,1745172587589963178
202912,-22,53,-5,2098,1650,-7703,1745172587651096682
203104,-22,54,-6,2109,1641,-7715,1745172587651096682
203296,-23,53,-7,2110,1630,-7722,1745172587651096682
203488,-24,53,-7,2111,1621,-7727,1745172587651096682
203680,-26,52,-6,2115,1611,-7725,1745172587651096682
203872,-30,51,-8,2111,1620,-7685,1745172587651096682
204064,-34,52,-7,2125,1615,-7663,1745172587651096682
204256,-36,54,-6,2131,1608,-7690,1745172587651096682
204448,-39,55,-5,2154,1638,-7703,1745172587651096682
204640,-42,54,-5,2155,1664,-7699,1745172587651096682
204832,-43,52,-4,2161,1688,-7680,1745172587651096682
205024,-42,50,-5,2178,1710,-7665,1745172587651096682
205216,-39,49,-4,2176,1738,-7660,1745172587708942820
205408,-36,48,-3,2185,1739,-7668,1745172587708942820
205600,-30,46,-3,2183,1755,-7683,1745172587708942820
205792,-24,44,-3,2177,1761,-7663,1745172587708942820
205984,-18,41,-1,2183,1759,-7646,1745172587708942820
206176,-9,39,-1,2196,1788,-7653,1745172587708942820
206368,2,38,1,2185,1813,-7677,1745172587708942820
206560,17,38,1,2182,1867,-7701,1745172587708942820
206752,34,39,2,2171,1940,-7676,1745172587708942820
206944,53,38,5,2188,1986,-7627,1745172587708942820
207136,77,37,7,2191,2012,-7610,1745172587708942820
207328,101,34,9,2211,2003,-7600,1745172587708942820
207520,127,31,13,2238,1993,-7626,1745172587765928862
207712,153,27,17,2257,1968,-7648,1745172587765928862
207904,176,18,16,2244,1946,-7646,1745172587765928862
208096,196,9,17,2226,1870,-7622,1745172587765928862
208288,215,1,17,2231,1789,-7624,1745172587765928862
208480,225,-3,17,2207,1698,-7665,1745172587765928862
208672,233,-8,16,2183,1614,-7710,1745172587765928862
208864,234,-13,15,2139,1552,-7706,1745172587765928862
209056,233,-14,15,2077,1487,-7683,1745172587765928862
209248,230,-9,14,2074,1441,-7699,1745172587765928862
209440,222,-4,14,2080,1383,-7763,1745172587765928862
209632,208,-2,13,2083,1329,-7776,1745172587765928862
209824,194,1,12,2083,1281,-7757,1745172587826775806
210016,178,5,12,2060,1253,-7764,1745172587826775806
210208,159,11,11,2033,1228,-7794,1745172587826775806
210400,143,19,9,2021,1237,-7775,1745172587826775806
210592,124,28,9,2025,1251,-7763,1745172587826775806
210784,109,37,8,2027,1288,-7765,1745172587826775806
210976,97,46,6,2023,1345,-7758,1745172587826775806
211168,89,54,5,2030,1392,-7743,1745172587826775806
211360,83,62,6,2051,1441,-7752,1745172587826775806
211552,83,71,0,2074,1476,-7775,1745172587826775806
211744,86,78,-17,2086,1514,-7758,1745172587826775806
211936,96,88,-46,2110,1556,-7744,1745172587826775806
212128,104,96,-75,2078,1553,-7755,1745172587886494011
212320,108,101,-62,2118,1562,-7735,1745172587886494011
212512,115,104,-47,2127,1549,-7730,1745172587886494011
212704,118,103,-27,2176,1563,-7730,1745172587886494011
212896,125,101,-16,2205,1567,-7760,1745172587886494011
213088,135,102,-19,2182,1594,-7768,1745172587886494011
213280,144,100,-20,2159,1543,-7744,1745172587886494011
213472,150,98,-10,2191,1492,-7726,1745172587886494011
213664,155,98,-12,2210,1438,-7711,1745172587886494011
213856,158,97,-22,2226,1399,-7688,1745172587886494011
214048,160,99,-32,2228,1349,-7694,1745172587886494011
214240,155,98,-33,2239,1292,-7693,1745172587886494011
214432,148,96,-25,2264,1252,-7694,1745172587942447823
214624,141,96,-22,2260,1240,-7696,1745172587942447823
214816,136,98,-25,2257,1288,-7668,1745172587942447823
215008,136,99,-35,2292,1324,-7692,1745172587942447823
215200,134,97,-42,2298,1331,-7699,1745172587942447823
215392,129,91,-30,2319,1321,-7703,1745172587942447823
215584,126,83,-18,2328,1290,-7671,1745172587942447823
215776,123,78,-14,2329,1276,-7650,1745172587942447823
215968,122,75,-23,2341,1265,-7633,1745172587942447823
216160,115,69,-25,2341,1241,-7652,1745172587942447823
216352,108,61,-15,2336,1208,-7641,1745172587942447823
216544,102,55,-9,2344,1217,-7642,1745172587942447823
216736,94,51,-12,2337,1228,-7645,1745172588000053390
216928,88,46,-11,2323,1243,-7644,1745172588000053390
217120,83,38,-5,2341,1242,-7649,1745172588000053390
217312,78,30,-2,2356,1254,-7633,1745172588000053390
217504,75,25,-2,2337,1276,-7643,1745172588000053390
217696,74,18,4,2319,1300,-7631,1745172588000053390
217888,73,12,13,2338,1306,-7633,1745172588000053390
218080,72,8,17,2353,1299,-7647,1745172588000053390
218272,72,2,22,2364,1286,-7678,1745172588000053390
218464,72,-5,26,2349,1282,-7683,1745172588000053390
218656,73,-11,28,2355,1281,-7679,1745172588000053390
218848,73,-16,32,2339,1280,-7671,1745172588000053390
219040,73,-21,35,2338,1262,-7670,1745172588057153598
219232,64,-23,35,2334,1226,-7674,1745172588057153598
219424,44,-17,38,2335,1175,-7570,1745172588057153598
219616,49,-27,58,2355,1158,-7615,1745172588057153598
219808,59,-40,67,2371,1182,-7680,1745172588057153598
220000,50,-44,63,2345,1174,-7709,1745172588057153598
220192,43,-47,62,2319,1167,-7719,1745172588057153598
220384,35,-51,62,2299,1137,-7713,1745172588057153598
220576,24,-51,61,2283,1126,-7694,1745172588057153598
220768,17,-50,61,2255,1119,-7692,1745172588057153598
220960,11,-50,58,2266,1150,-7695,1745172588057153598
221152,5,-49,55,2279,1166,-7704,1745172588057153598
221344,1,-51,52,2289,1189,-7703,1745172588121823267
221536,-3,-52,49,2280,1205,-7707,1745172588121823267
221728,-5,-51,46,2261,1205,-7697,1745172588121823267
221920,-6,-51,43,2242,1221,-7706,1745172588121823267
222112,-3,-52,40,2257,1231,-7722,1745172588121823267
222304,1,-54,40,2261,1265,-7739,1745172588121823267
222496,7,-57,40,2242,1277,-7742,1745172588121823267
222688,12,-58,41,2235,1268,-7731,1745172588121823267
222880,18,-59,41,2231,1254,-7715,1745172588121823267
223072,22,-60,43,2223,1234,-7714,1745172588121823267
223264,25,-59,44,2223,1222,-7718,1745172588121823267
223456,26,-58,45,2224,1209,-7734,1745172588121823267
223648,26,-58,46,2200,1217,-7741,1745172588175654130
223840,27,-56,44,2204,1205,-7756,1745172588175654130
224032,26,-52,41,2183,1178,-7782,1745172588175654130
224224,25,-51,38,2207,1163,-7799,1745172588175654130
224416,27,-53,36,2188,1163,-7807,1745172588175654130
224608,26,-52,31,2162,1158,-7769,1745172588175654130
224800,26,-50,28,2145,1163,-7748,1745172588175654130
224992,27,-48,24,2144,1169,-7740,1745172588175654130
225184,26,-46,19,2186,1162,-7725,1745172588175654130
225376,26,-44,16,2201,1161,-7739,1745172588175654130
225568,26,-44,9,2220,1167,-7760,1745172588175654130
225760,25,-45,3,2212,1179,-7759,1745172588175654130
225952,22,-46,1,2179,1154,-7760,1745172588235478219
226144,21,-44,2,2170,1134,-7773,1745172588235478219
226336,17,-44,2,2184,1121,-7781,1745172588235478219
226528,13,-44,1,2171,1124,-7768,1745172588235478219
226720,9,-43,1,2165,1121,-7751,1745172588235478219
226912,5,-41,1,2159,1103,-7757,1745172588235478219
227104,1,-40,1,2175,1114,-7763,1745172588235478219
227296,-3,-40,1,2178,1119,-7770,1745172588235478219
227488,-6,-39,1,2170,1125,-7768,1745172588235478219
227680,-10,-38,-1,2165,1133,-7770,1745172588235478219
227872,-13,-37,-2,2161,1135,-7782,1745172588235478219
228064,-16,-35,-2,2147,1140,-7781,1745172588235478219
228256,-18,-33,-2,2124,1148,-7800,1745172588291921870
228448,-19,-31,-3,2127,1181,-7773,1745172588291921870
228640,-19,-28,-3,2137,1205,-7752,1745172588291921870
228832,-17,-26,-3,2149,1205,-7753,1745172588291921870
229024,-16,-24,-2,2176,1214,-7750,1745172588291921870
229216,-16,-23,-1,2172,1189,-7773,1745172588291921870
229408,-15,-24,-1,2152,1202,-7792,1745172588291921870
229600,-14,-24,-2,2128,1200,-7796,1745172588291921870
229792,-13,-23,-3,2122,1202,-7782,1745172588291921870
229984,-11,-21,-3,2126,1194,-7769,1745172588291921870
230176,-10,-18,-2,2133,1173,-7768,1745172588291921870
230368,-11,-18,-2,2149,1168,-7783,1745172588291921870
230560,-12,-18,-2,2144,1176,-7781,1745172588355213479
230752,-12,-16,-3,2126,1174,-7788,1745172588355213479
230944,-12,-14,-3,2112,1190,-7793,1745172588355213479
231136,-12,-12,-3,2105,1203,-7789,1745172588355213479
231328,-12,-9,-3,2107,1191,-7799,1745172588355213479
231520,-12,-6,-5,2112,1191,-7809,1745172588355213479
231712,-13,-4,-6,2096,1170,-7804,1745172588355213479
231904,-16,-2,-6,2116,1166,-7790,1745172588355213479
232096,-18,3,-7,2105,1151,-7799,1745172588355213479
232288,-24,6,-7,2092,1126,-7797,1745172588355213479
232480,-29,11,-7,2080,1104,-7827,1745172588355213479
232672,-37,16,-9,2081,1072,-7855,1745172588355213479
232864,-47,21,-12,2058,1034,-7866,1745172588409496317
233056,-59,26,-14,2030,994,-7871,1745172588409496317
233248,-74,32,-15,2028,961,-7861,1745172588409496317
233440,-92,41,-15,2000,936,-7872,1745172588409496317
233632,-110,52,-17,1999,952,-7889,1745172588409496317
233824,-128,63,-19,1968,977,-7946,1745172588409496317
234016,-146,75,-22,1933,983,-8003,1745172588409496317
234208,-166,87,-27,1912,997,-8041,1745172588409496317
234400,-188,101,-35,1883,959,-8102,1745172588409496317
234592,-217,118,-43,1839,879,-8156,1745172588409496317
234784,-249,139,-51,1764,818,-8223,1745172588409496317
234976,-291,167,-61,1681,728,-8331,1745172588409496317
235168,-340,197,-72,1627,680,-8407,1745172588470179877
235360,-361,255,-154,1827,810,-8433,1745172588470179877
235552,-383,338,-384,1568,782,-8741,1745172588470179877
235744,-424,387,-441,1627,659,-8812,1745172588470179877
235936,-410,439,-411,1724,593,-9058,1745172588470179877
236128,-403,475,-348,1780,573,-9237,1745172588470179877
236320,-403,512,-291,1893,540,-9514,1745172588470179877
236512,-402,549,-259,2177,376,-9912,1745172588470179877
236704,-381,550,-232,2583,85,-10465,1745172588470179877
236896,-354,475,-204,3116,-255,-11275,1745172588470179877
237088,-391,423,-213,3535,-570,-12344,1745172588470179877
237280,-426,403,-249,3665,-802,-12940,1745172588470179877
237472,-411,436,-328,3957,-1010,-13703,1745172588526480092
237664,-389,444,-444,4085,-1135,-14643,1745172588526480092
237856,-368,456,-545,4197,-1033,-15223,1745172588526480092
238048,-226,560,-563,4850,-805,-15850,1745172588526480092
238240,161,555,-488,5239,-420,-15755,1745172588526480092
238432,567,473,-384,5601,103,-15375,1745172588526480092
238624,699,418,-271,5951,395,-14188,1745172588526480092
238816,695,300,-187,6080,607,-13015,1745172588526480092
239008,612,188,-134,6168,803,-12965,1745172588526480092
239200,482,83,-56,6460,905,-13599,1745172588526480092
239392,295,-52,113,7130,698,-14959,1745172588526480092
239584,150,-258,400,7658,251,-15939,1745172588526480092
239776,253,-580,745,7959,-267,-16813,1745172588585990954
239968,644,-994,1063,8335,-1105,-16435,1745172588585990954
240160,1100,-1470,1259,9001,-2463,-16471,1745172588585990954
240352,1499,-1891,1275,9137,-3296,-17607,1745172588585990954
240544,1632,-2170,1145,8337,-3273,-18280,1745172588585990954
240736,1549,-2332,938,7031,-2656,-18573,1745172588585990954
240928,1389,-2405,754,5936,-1969,-18773,1745172588585990954
241120,1242,-2466,663,5347,-1465,-18891,1745172588585990954
241312,1134,-2541,676,5098,-1083,-18778,1745172588585990954
241504,1071,-2623,778,5105,-663,-18520,1745172588585990954
241696,1052,-2703,933,5285,-266,-18003,1745172588585990954
241888,1072,-2789,1093,5571,137,-17301,1745172588585990954
242080,1122,-2879,1218,5801,610,-16688,1745172588645147133
242272,1198,-2975,1290,5915,1177,-16035,1745172588645147133
242464,1302,-3082,1316,5918,1817,-15455,1745172588645147133
242656,1426,-3202,1324,5809,2489,-14863,1745172588645147133
242848,1562,-3330,1325,5698,3040,-14395,1745172588645147133
243040,1703,-3465,1335,5543,3469,-13959,1745172588645147133
243232,1841,-3594,1362,5371,3723,-13491,1745172588645147133
243424,1964,-3717,1398,5179,3852,-12916,1745172588645147133
243616,2065,-3822,1433,4920,3892,-12348,1745172588645147133
243808,2134,-3905,1454,4616,3879,-11800,1745172588645147133
244000,2177,-3966,1456,4245,3848,-11218,1745172588645147133
244192,2199,-4008,1444,3867,3805,-10509,1745172588645147133
244384,2204,-4031,1419,3536,3790,-10073,1745172588702837595
244576,2190,-4041,1384,3229,3830,-9650,1745172588702837595
244768,2165,-4040,1337,2921,3955,-9231,1745172588702837595
244960,2143,-4023,1284,2619,4144,-8900,1745172588702837595
245152,2128,-4000,1232,2386,4384,-8612,1745172588702837595
245344,2126,-3980,1179,2260,4672,-8388,1745172588702837595
245536,2138,-3960,1130,2215,4873,-8138,1745172588702837595
245728,2154,-3936,1081,2192,5052,-7757,1745172588702837595
245920,2173,-3916,1040,2152,5103,-7299,1745172588702837595
246112,2197,-3892,1008,2042,5118,-6987,1745172588702837595
246304,2241,-3858,985,1797,5104,-6742,1745172588702837595
246496,2317,-3817,971,1550,5038,-6382,1745172588702837595
246688,2426,-3775,961,1367,4862,-5927,1745172588764608854
246880,2548,-3738,953,1231,4612,-5466,1745172588764608854
247072,2653,-3702,942,1100,4330,-5012,1745172588764608854
247264,2726,-3669,943,984,3986,-4630,1745172588764608854
247456,2773,-3640,955,827,3592,-4321,1745172588764608854
247648,2806,-3610,968,614,3205,-4116,1745172588764608854
247840,2822,-3582,977,411,2830,-3876,1745172588764608854
248032,2821,-3553,981,212,2459,-3618,1745172588764608854
248224,2794,-3520,981,26,2069,-3398,1745172588764608854
248416,2740,-3477,975,-191,1740,-3187,1745172588764608854
248608,2670,-3425,970,-388,1474,-2924,1745172588764608854
248800,2586,-3367,967,-557,1235,-2784,1745172588764608854
248992,2483,-3308,966,-686,1039,-2589,1745172588818361696
249184,2363,-3254,967,-759,851,-2309,1745172588818361696
249376,2238,-3203,965,-852,734,-2101,1745172588818361696
249568,2112,-3152,965,-958,664,-1927,1745172588818361696
249760,1987,-3105,961,-1066,563,-1734,1745172588818361696
249952,1862,-3063,951,-1185,536,-1598,1745172588818361696
250144,1738,-3019,930,-1340,602,-1482,1745172588818361696
250336,1622,-2967,905,-1495,662,-1483,1745172588818361696
250528,1518,-2913,875,-1624,705,-1595,1745172588818361696
250720,1449,-2861,843,-1751,737,-1547,1745172588818361696
250912,1417,-2816,813,-1858,743,-1548,1745172588818361696
251104,1410,-2771,788,-1954,757,-1581,1745172588818361696
251296,1413,-2731,767,-2032,699,-1568,1745172588897400714
251488,1425,-2694,748,-2049,592,-1392,1745172588897400714
251680,1433,-2681,727,-2102,466,-988,1745172588897400714
251872,1413,-2665,701,-2281,368,-668,1745172588897400714
252064,1367,-2645,674,-2518,258,-297,1745172588897400714
252256,1323,-2622,642,-2819,156,55,1745172588897400714
252448,1284,-2597,602,-3151,15,315,1745172588897400714
252640,1234,-2566,554,-3492,-119,500,1745172588897400714
252832,1162,-2532,508,-3823,-269,629,1745172588897400714
253024,1070,-2488,467,-4102,-460,809,1745172588897400714
253216,949,-2423,449,-4306,-668,941,1745172588897400714
253408,827,-2363,441,-4515,-834,1002,1745172588897400714
253600,726,-2304,424,-4736,-918,1168,1745172588938004770
253792,631,-2236,395,-4940,-955,1333,1745172588938004770
253984,536,-2157,363,-5134,-967,1396,1745172588938004770
254176,449,-2079,326,-5314,-978,1490,1745172588938004770
254368,380,-2001,288,-5464,-964,1642,1745172588938004770
254560,328,-1914,248,-5625,-929,1809,1745172588938004770
254752,295,-1820,213,-5743,-864,1992,1745172588938004770
254944,274,-1733,178,-5869,-793,2203,1745172588938004770
255136,262,-1638,150,-6009,-772,2337,1745172588938004770
255328,258,-1550,122,-6175,-723,2409,1745172588938004770
255520,259,-1462,81,-6344,-743,2498,1745172588938004770
255712,265,-1369,41,-6506,-787,2506,1745172588938004770
255904,273,-1278,0,-6637,-861,2505,1745172589000468001
256096,280,-1188,-51,-6778,-978,2481,1745172589000468001
256288,285,-1091,-103,-6895,-1100,2445,1745172589000468001
256480,289,-994,-147,-6980,-1222,2348,1745172589000468001
256672,296,-900,-182,-7039,-1322,2237,1745172589000468001
256864,302,-809,-207,-7069,-1416,2118,1745172589000468001
257056,307,-724,-227,-7072,-1453,2025,1745172589000468001
257248,312,-645,-245,-7052,-1501,2014,1745172589000468001
257440,321,-572,-268,-7035,-1516,1977,1745172589000468001
257632,334,-505,-289,-7050,-1551,1911,1745172589000468001
257824,352,-444,-307,-7046,-1578,1853,1745172589000468001
258016,369,-387,-322,-7061,-1648,1773,1745172589000468001
258208,382,-333,-331,-7064,-1752,1643,1745172589052542786
258400,391,-284,-336,-7086,-1864,1513,1745172589052542786
258592,402,-245,-331,-7117,-1973,1352,1745172589052542786
258784,410,-211,-313,-7167,-2055,1204,1745172589052542786
258976,414,-180,-283,-7191,-2071,1078,1745172589052542786
259168,416,-152,-241,-7238,-2083,929,1745172589052542786
259360,415,-124,-203,-7222,-2132,835,1745172589052542786
259552,412,-96,-186,-7203,-2193,729,1745172589052542786
259744,405,-66,-184,-7173,-2278,624,1745172589052542786
259936,400,-43,-195,-7137,-2386,484,1745172589052542786
260128,398,-20,-211,-7098,-2492,407,1745172589052542786
260320,395,-2,-234,-7061,-2605,381,1745172589052542786
260512,384,16,-262,-7054,-2698,348,1745172589113744779
260704,362,40,-280,-7067,-2767,264,1745172589113744779
260896,335,67,-286,-7044,-2845,148,1745172589113744779
261088,307,90,-284,-6994,-2923,11,1745172589113744779
261280,281,107,-279,-6965,-2973,-116,1745172589113744779
261472,263,119,-273,-6953,-2989,-221,1745172589113744779
261664,250,125,-269,-6953,-2989,-343,1745172589113744779
261856,241,128,-267,-6953,-2952,-462,1745172589113744779
262048,239,127,-264,-6939,-2939,-575,1745172589113744779
262240,248,126,-259,-6945,-2911,-657,1745172589113744779
262432,261,117,-257,-6913,-2940,-723,1745172589113744779
262624,271,115,-260,-6893,-2954,-753,1745172589113744779
262816,273,110,-264,-6896,-3007,-831,1745172589198743273
263008,268,113,-263,-6937,-3081,-955,1745172589198743273
263200,263,116,-250,-6956,-3183,-1066,1745172589198743273
263392,259,109,-234,-6912,-3271,-1124,1745172589198743273
263584,257,98,-228,-6869,-3353,-1157,1745172589198743273
263776,255,83,-233,-6809,-3457,-1188,1745172589198743273
263968,247,60,-243,-6690,-3547,-1204,1745172589198743273
264160,231,39,-256,-6911,-3599,-1131,1745172589198743273
264352,205,26,-263,-6807,-3629,-1024,1745172589198743273
264544,173,-18,-262,-6750,-3695,-1018,1745172589198743273
264736,131,-27,-255,-6921,-3686,-1000,1745172589198743273
264928,91,-27,-235,-7170,-3698,-926,1745172589198743273
265120,52,-21,-211,-7331,-3700,-910,1745172589229236484
265312,23,-12,-188,-7333,-3691,-894,1745172589229236484
265504,25,8,-142,-7277,-3740,-829,1745172589229236484
265696,24,0,-123,-7195,-3725,-920,1745172589229236484
265888,-20,-19,-156,-7193,-3739,-949,1745172589229236484
266080,-75,-69,-210,-6563,-3694,-989,1745172589229236484
266272,-100,-91,-215,-6915,-3560,-1206,1745172589229236484
266464,-99,-28,-180,-7288,-3514,-1038,1745172589229236484
266656,-87,-115,-192,-7216,-3743,-987,1745172589229236484
266848,-90,-185,-248,-7362,-3817,-1209,1745172589229236484
267040,-103,-158,-270,-7734,-3798,-1162,1745172589229236484
267232,-112,-72,-244,-7783,-3711,-1047,1745172589229236484
267424,-119,-12,-189,-7516,-3596,-1238,1745172589301386034
267616,-121,-19,-121,-7201,-3418,-1384,1745172589301386034
267808,-104,-49,-58,-6936,-3342,-1386,1745172589301386034
268000,-75,-75,-38,-6767,-3331,-1299,1745172589301386034
268192,-42,-94,-68,-6690,-3387,-1279,1745172589301386034
268384,-12,-105,-115,-6753,-3450,-1279,1745172589301386034
268576,11,-109,-147,-6883,-3524,-1228,1745172589301386034
268768,24,-110,-159,-7024,-3630,-1110,1745172589301386034
268960,29,-110,-152,-7150,-3693,-1014,1745172589301386034
269152,30,-110,-143,-7177,-3783,-857,1745172589301386034
269344,18,-114,-169,-7268,-3920,-669,1745172589301386034
269536,2,-116,-221,-7360,-4069,-533,1745172589301386034
269728,-18,-113,-260,-7488,-4206,-517,1745172589344906730
269920,-40,-90,-262,-7546,-4301,-516,1745172589344906730
270112,-66,-64,-234,-7504,-4369,-581,1745172589344906730
270304,-101,-48,-201,-7373,-4411,-714,1745172589344906730
270496,-141,-40,-178,-7226,-4368,-837,1745172589344906730
270688,-178,-43,-159,-7122,-4193,-934,1745172589344906730
270880,-202,-49,-129,-7096,-4011,-1004,1745172589344906730
271072,-210,-52,-95,-7142,-3830,-1049,1745172589344906730
271264,-194,-59,-66,-7206,-3714,-1086,1745172589344906730
271456,-164,-60,-47,-7305,-3574,-1084,1745172589344906730
271648,-123,-51,-29,-7337,-3530,-1096,1745172589344906730
271840,-84,-27,-34,-7327,-3558,-1060,1745172589344906730
272032,-46,-5,-54,-7338,-3642,-1006,1745172589409715200
272224,-19,17,-81,-7288,-3758,-948,1745172589409715200
272416,-2,21,-100,-7167,-3842,-966,1745172589409715200
272608,2,31,-108,-7144,-3927,-963,1745172589409715200
272800,-6,44,-115,-7217,-4108,-924,1745172589409715200
272992,-21,48,-128,-7240,-4172,-908,1745172589409715200
273184,-35,51,-125,-7198,-4199,-959,1745172589409715200
273376,-55,56,-114,-7182,-4202,-983,1745172589409715200
273568,-82,61,-105,-7098,-4107,-1007,1745172589409715200
273760,-110,65,-90,-7162,-4042,-1090,1745172589409715200
273952,-130,65,-77,-7289,-3889,-1161,1745172589409715200
274144,-138,68,-62,-7340,-3782,-1248,1745172589409715200
274336,-133,75,-52,-7361,-3641,-1299,1745172589491685910
274528,-117,92,-48,-7307,-3564,-1364,1745172589491685910
274720,-95,105,-57,-7248,-3571,-1411,1745172589491685910
274912,-72,107,-76,-7123,-3615,-1446,1745172589491685910
275104,-54,101,-99,-6983,-3685,-1475,1745172589491685910
275296,-46,91,-114,-6894,-3787,-1480,1745172589491685910
275488,-46,81,-119,-6854,-3859,-1457,1745172589491685910
275680,-55,66,-114,-6878,-3922,-1449,1745172589491685910
275872,-69,49,-104,-6909,-3950,-1427,1745172589491685910
276064,-84,34,-92,-6994,-3975,-1392,1745172589491685910
276256,-97,26,-82,-7079,-3942,-1355,1745172589491685910
276448,-110,24,-77,-7200,-3876,-1332,1745172589491685910
276640,-123,24,-75,-7242,-3817,-1312,1745172589522190892
276832,-132,28,-71,-7266,-3747,-1313,1745172589522190892
277024,-134,39,-64,-7293,-3663,-1293,1745172589522190892
277216,-123,45,-53,-7205,-3610,-1313,1745172589522190892
277408,-104,42,-49,-7082,-3615,-1399,1745172589522190892
277600,-84,43,-56,-7009,-3596,-1417,1745172589522190892
277792,-61,33,-68,-6965,-3613,-1410,1745172589522190892
277984,-36,24,-73,-6925,-3663,-1440,1745172589522190892
278176,-15,17,-72,-6902,-3711,-1479,1745172589522190892
278368,1,12,-74,-6895,-3779,-1486,1745172589522190892
278560,12,6,-76,-6904,-3839,-1461,1745172589522190892
278752,20,-4,-73,-6925,-3885,-1422,1745172589522190892
278944,22,-12,-65,-6976,-3928,-1391,1745172589593292794
279136,19,-14,-58,-7012,-3952,-1336,1745172589593292794
279328,14,-12,-53,-7053,-3980,-1313,1745172589593292794
279520,10,-8,-48,-7068,-3995,-1323,1745172589593292794
279712,8,-4,-42,-7049,-3979,-1332,1745172589593292794
279904,7,-1,-34,-6994,-3974,-1313,1745172589593292794
280096,4,0,-29,-6950,-3983,-1307,1745172589593292794
280288,-2,1,-26,-6913,-4009,-1305,1745172589593292794
280480,-7,2,-28,-6935,-4009,-1289,1745172589593292794
280672,-10,0,-28,-6971,-4012,-1278,1745172589593292794
280864,-12,-4,-24,-7031,-3989,-1272,1745172589593292794
281056,-12,-2,-16,-7084,-3945,-1245,1745172589593292794
281248,-9,3,-8,-7053,-3904,-1208,1745172589645074561
281440,-6,8,-11,-7045,-3911,-1214,1745172589645074561
281632,0,17,-22,-7055,-3911,-1220,1745172589645074561
281824,9,18,-28,-7065,-3920,-1237,1745172589645074561
282016,19,23,-27,-7055,-3923,-1293,1745172589645074561
282208,24,29,-22,-7066,-3926,-1286,1745172589645074561
282400,27,32,-16,-7061,-3923,-1255,1745172589645074561
282592,29,33,-13,-7053,-3931,-1208,1745172589645074561
282784,31,36,-13,-7043,-3946,-1194,1745172589645074561
282976,29,42,-17,-7030,-3965,-1201,1745172589645074561
283168,24,47,-20,-7023,-3950,-1231,1745172589645074561
283360,20,50,-20,-7004,-3941,-1238,1745172589645074561
283552,14,51,-21,-6987,-3941,-1255,1745172589699906039
283744,8,50,-22,-6984,-3919,-1265,1745172589699906039
283936,4,49,-22,-6976,-3928,-1262,1745172589699906039
284128,2,46,-24,-6983,-3909,-1253,1745172589699906039
284320,-1,44,-26,-7020,-3898,-1242,1745172589699906039
284512,-4,43,-27,-7066,-3868,-1232,1745172589699906039
284704,-9,45,-22,-7095,-3850,-1236,1745172589699906039
284896,-15,51,-19,-7090,-3809,-1240,1745172589699906039
285088,-19,57,-16,-7073,-3803,-1248,1745172589699906039
285280,-16,62,-14,-7044,-3798,-1252,1745172589699906039
285472,-9,63,-15,-7007,-3811,-1262,1745172589699906039
285664,0,62,-17,-7019,-3826,-1293,1745172589699906039
285856,8,63,-16,-7027,-3827,-1285,1745172589758397901
286048,14,59,-15,-7042,-3830,-1284,1745172589758397901
286240,19,55,-15,-7039,-3867,-1309,1745172589758397901
286432,23,52,-19,-7006,-3890,-1283,1745172589758397901
286624,27,48,-19,-6997,-3913,-1263,1745172589758397901
286816,30,49,-12,-6984,-3865,-1252,1745172589758397901
287008,29,50,-1,-6980,-3844,-1260,1745172589758397901
287200,26,51,10,-6978,-3837,-1277,1745172589758397901
287392,24,50,20,-6943,-3841,-1273,1745172589758397901
287584,26,49,24,-6912,-3862,-1277,1745172589758397901
287776,26,47,23,-6904,-3879,-1278,1745172589758397901
287968,22,44,19,-6900,-3895,-1273,1745172589758397901
288160,16,42,16,-6902,-3910,-1297,1745172589818876411
288352,10,38,15,-6919,-3919,-1323,1745172589818876411
288544,8,32,13,-6939,-3932,-1332,1745172589818876411
288736,9,24,9,-6958,-3910,-1336,1745172589818876411
288928,12,21,4,-6978,-3905,-1340,1745172589818876411
289120,15,19,2,-6999,-3892,-1336,1745172589818876411
289312,22,16,5,-7017,-3854,-1308,1745172589818876411
289504,27,12,11,-7022,-3826,-1286,1745172589818876411
289696,29,11,17,-7031,-3801,-1266,1745172589818876411
289888,25,13,24,-7050,-3783,-1266,1745172589818876411
290080,21,15,28,-7054,-3805,-1287,1745172589818876411
290272,16,14,31,-7044,-3812,-1303,1745172589818876411
290464,11,15,32,-7028,-3824,-1304,1745172589876027139
290656,7,18,36,-7023,-3797,-1303,1745172589876027139
290848,3,21,41,-7016,-3808,-1294,1745172589876027139
291040,1,20,46,-6999,-3808,-1291,1745172589876027139
291232,5,19,47,-7006,-3806,-1308,1745172589876027139
291424,14,16,46,-7036,-3793,-1333,1745172589876027139
291616,24,13,40,-7077,-3772,-1335,1745172589876027139
291808,38,10,39,-7143,-3744,-1344,1745172589876027139
292000,51,13,38,-7174,-3729,-1354,1745172589876027139
292192,63,14,35,-7173,-3726,-1347,1745172589876027139
292384,74,16,33,-7119,-3712,-1331,1745172589876027139
292576,84,12,29,-7085,-3726,-1342,1745172589876027139
292768,90,5,21,-7038,-3758,-1335,1745172589937221632
292960,88,-5,11,-7064,-3779,-1327,1745172589937221632
293152,79,-15,4,-7103,-3792,-1317,1745172589937221632
293344,59,-22,1,-7178,-3804,-1312,1745172589937221632
293536,35,-26,-1,-7235,-3804,-1298,1745172589937221632
293728,13,-26,0,-7265,-3799,-1263,1745172589937221632
293920,-6,-22,-3,-7308,-3749,-1248,1745172589937221632
294112,-24,-16,-9,-7316,-3764,-1233,1745172589937221632
294304,-34,-7,-14,-7309,-3760,-1230,1745172589937221632
294496,-42,6,-17,-7306,-3759,-1241,1745172589937221632
294688,-47,17,-15,-7290,-3754,-1259,1745172589937221632
294880,-52,26,-13,-7252,-3731,-1282,1745172589937221632
295072,-55,34,-13,-7199,-3708,-1286,1745172589999631009
295264,-52,40,-16,-7175,-3671,-1269,1745172589999631009
295456,-44,44,-19,-7119,-3636,-1257,1745172589999631009
295648,-30,47,-24,-7132,-3644,-1245,1745172589999631009
295840,-15,49,-32,-7133,-3663,-1234,1745172589999631009
296032,1,53,-40,-7159,-3686,-1237,1745172589999631009
296224,15,58,-48,-7170,-3713,-1254,1745172589999631009
296416,26,63,-55,-7162,-3744,-1272,1745172589999631009
296608,35,67,-61,-7168,-3782,-1296,1745172589999631009
296800,42,70,-65,-7150,-3805,-1316,1745172589999631009
296992,47,72,-68,-7138,-3841,-1340,1745172589999631009
297184,53,72,-69,-7121,-3871,-1359,1745172589999631009
297376,57,70,-67,-7106,-3896,-1360,1745172590053536142
297568,57,70,-63,-7096,-3906,-1372,1745172590053536142
297760,55,68,-58,-7073,-3928,-1402,1745172590053536142
297952,56,65,-53,-7068,-3962,-1420,1745172590053536142
298144,59,63,-49,-7038,-3963,-1445,1745172590053536142
298336,60,60,-44,-7004,-3955,-1444,1745172590053536142
298528,60,56,-40,-6996,-3962,-1440,1745172590053536142
298720,59,52,-37,-6960,-3963,-1436,1745172590053536142
298912,57,46,-33,-6946,-3971,-1448,1745172590053536142
299104,55,41,-27,-6958,-3962,-1461,1745172590053536142
299296,51,35,-22,-6968,-3964,-1459,1745172590053536142
299488,48,29,-17,-6959,-3990,-1473,1745172590053536142
299680,44,23,-14,-6973,-4003,-1453,1745172590109167821
299872,39,19,-12,-6979,-4020,-1425,1745172590109167821
300064,30,14,-11,-6989,-4028,-1408,1745172590109167821
300256,17,11,-11,-6977,-4034,-1398,1745172590109167821
300448,5,10,-9,-6979,-4036,-1382,1745172590109167821
300640,-8,10,-6,-6977,-4042,-1375,1745172590109167821
300832,-23,11,-4,-6966,-4027,-1389,1745172590109167821
301024,-38,10,-1,-6958,-4017,-1399,1745172590109167821
301216,-50,7,2,-6954,-4006,-1403,1745172590109167821
301408,-59,4,2,-6947,-3997,-1407,1745172590109167821
301600,-65,3,3,-6950,-3999,-1420,1745172590109167821
301792,-68,2,2,-6970,-3972,-1439,1745172590109167821
301984,-69,0,1,-6963,-3946,-1448,1745172590174531183
302176,-65,-2,2,-6959,-3905,-1441,1745172590174531183
302368,-58,-7,7,-6943,-3874,-1394,1745172590174531183
302560,-48,-13,11,-6936,-3840,-1343,1745172590174531183
302752,-39,-20,14,-6938,-3813,-1324,1745172590174531183
302944,-31,-25,12,-6971,-3801,-1309,1745172590174531183
303136,-25,-31,9,-7010,-3800,-1284,1745172590174531183
303328,-20,-35,8,-7037,-3808,-1258,1745172590174531183
303520,-15,-37,10,-7069,-3820,-1236,1745172590174531183
303712,-13,-38,14,-7087,-3825,-1228,1745172590174531183
303904,-16,-37,20,-7107,-3849,-1232,1745172590174531183
304096,-22,-37,23,-7126,-3856,-1243,1745172590174531183
304288,-27,-37,27,-7165,-3882,-1230,1745172590225977744
304480,-31,-35,28,-7175,-3896,-1222,1745172590225977744
304672,-36,-33,28,-7197,-3911,-1219,1745172590225977744
304864,-44,-27,27,-7215,-3919,-1234,1745172590225977744
305056,-55,-20,25,-7229,-3914,-1243,1745172590225977744
305248,-65,-12,27,-7231,-3877,-1229,1745172590225977744
305440,-72,-4,29,-7200,-3855,-1212,1745172590225977744
305632,-75,5,31,-7187,-3805,-1193,1745172590225977744
305824,-75,15,30,-7166,-3751,-1193,1745172590225977744
306016,-72,32,26,-7146,-3718,-1190,1745172590225977744
306208,-65,24,23,-7165,-3694,-1216,1745172590225977744
306400,-56,30,15,-7190,-3675,-1178,1745172590225977744
306592,-45,39,8,-7230,-3662,-1195,1745172590286482868
306784,-35,47,3,-7266,-3677,-1211,1745172590286482868
306976,-21,57,1,-7271,-3684,-1244,1745172590286482868
307168,-6,64,-2,-7253,-3702,-1241,1745172590286482868
307360,8,72,-5,-7230,-3706,-1267,1745172590286482868
307552,17,78,-7,-7203,-3717,-1302,1745172590286482868
307744,27,83,-8,-7159,-3722,-1357,1745172590286482868
307936,35,84,-8,-7112,-3725,-1390,1745172590286482868
308128,43,83,-9,-7084,-3730,-1423,1745172590286482868
308320,49,80,-13,-7075,-3731,-1428,1745172590286482868
308512,52,78,-17,-7076,-3746,-1428,1745172590286482868
308704,53,75,-21,-7064,-3754,-1428,1745172590286482868
308896,49,70,-25,-7078,-3776,-1439,1745172590343040060
309088,40,65,-27,-7100,-3797,-1437,1745172590343040060
309280,30,62,-28,-7106,-3812,-1435,1745172590343040060
309472,18,59,-28,-7124,-3857,-1435,1745172590343040060
309664,7,56,-26,-7124,-3863,-1460,1745172590343040060
309856,-5,54,-24,-7093,-3869,-1483,1745172590343040060
310048,-17,53,-23,-7069,-3871,-1493,1745172590343040060
310240,-27,51,-21,-7054,-3865,-1509,1745172590343040060
310432,-34,48,-20,-7018,-3859,-1512,1745172590343040060
310624,-38,44,-20,-6991,-3860,-1522,1745172590343040060
310816,-40,38,-18,-6970,-3844,-1541,1745172590343040060
311008,-39,32,-15,-6973,-3843,-1565,1745172590343040060
311200,-33,24,-12,-6963,-3836,-1567,1745172590414783102
311392,-26,15,-11,-6968,-3834,-1541,1745172590414783102
311584,-19,7,-11,-6959,-3833,-1514,1745172590414783102
311776,-15,-2,-12,-6986,-3844,-1482,1745172590414783102
311968,-15,-9,-13,-7011,-3865,-1440,1745172590414783102
312160,-19,-14,-13,-7019,-3886,-1420,1745172590414783102
312352,-27,-18,-10,-7054,-3910,-1407,1745172590414783102
312544,-37,-20,-7,-7066,-3926,-1398,1745172590414783102
312736,-49,-22,-5,-7090,-3927,-1380,1745172590414783102
312928,-63,-21,-3,-7103,-3917,-1388,1745172590414783102
313120,-77,-18,-2,-7069,-3897,-1400,1745172590414783102
313312,-89,-13,0,-7061,-3882,-1405,1745172590414783102
313504,-94,-10,2,-7031,-3835,-1419,1745172590458847648
313696,-96,-10,1,-7002,-3793,-1404,1745172590458847648
313888,-95,-14,-1,-6978,-3768,-1380,1745172590458847648
314080,-89,-17,-5,-7000,-3746,-1356,1745172590458847648
314272,-80,-20,-10,-7027,-3730,-1348,1745172590458847648
314464,-69,-19,-14,-7070,-3716,-1351,1745172590458847648
314656,-59,-17,-15,-7100,-3711,-1337,1745172590458847648
314848,-48,-13,-16,-7106,-3715,-1316,1745172590458847648
315040,-39,-6,-17,-7091,-3706,-1296,1745172590458847648
315232,-33,2,-18,-7070,-3716,-1275,1745172590458847648
315424,-27,10,-20,-7028,-3714,-1265,1745172590458847648
315616,-22,14,-22,-6994,-3722,-1253,1745172590458847648
315808,-17,17,-25,-6983,-3762,-1257,1745172590520068391
316000,-12,19,-27,-6985,-3775,-1257,1745172590520068391
316192,-7,20,-30,-7001,-3791,-1257,1745172590520068391
316384,-4,21,-34,-7030,-3827,-1275,1745172590520068391
316576,-3,24,-36,-7059,-3849,-1287,1745172590520068391
316768,0,27,-35,-7085,-3869,-1310,1745172590520068391
316960,2,31,-33,-7098,-3876,-1313,1745172590520068391
317152,2,37,-32,-7095,-3875,-1302,1745172590520068391
317344,-1,43,-32,-7068,-3877,-1316,1745172590520068391
317536,-6,49,-33,-7049,-3869,-1324,1745172590520068391
317728,-10,51,-33,-7015,-3875,-1314,1745172590520068391
317920,-13,52,-33,-7031,-3877,-1320,1745172590520068391
318112,-18,54,-33,-7014,-3887,-1339,1745172590578346973
318304,-21,55,-31,-6999,-3878,-1353,1745172590578346973
318496,-22,58,-30,-6983,-3888,-1377,1745172590578346973
318688,-20,59,-28,-6981,-3872,-1393,1745172590578346973
318880,-16,60,-26,-6967,-3883,-1417,1745172590578346973
319072,-12,60,-25,-6946,-3883,-1441,1745172590578346973
319264,-8,59,-23,-6922,-3879,-1453,1745172590578346973
319456,-5,58,-19,-6913,-3869,-1450,1745172590578346973
319648,-4,55,-17,-6884,-3872,-1440,1745172590578346973
319840,-4,51,-16,-6870,-3907,-1423,1745172590578346973
320032,-6,47,-15,-6880,-3915,-1404,1745172590578346973
320224,-8,42,-14,-6898,-3943,-1384,1745172590578346973
320416,-10,36,-13,-6921,-3962,-1381,1745172590636065769
320608,-15,33,-14,-6948,-3992,-1387,1745172590636065769
320800,-22,30,-12,-6979,-4005,-1390,1745172590636065769
320992,-32,31,-8,-6972,-4000,-1390,1745172590636065769
321184,-41,32,-3,-6965,-3990,-1393,1745172590636065769
321376,-51,32,3,-6948,-3977,-1371,1745172590636065769
321568,-58,31,8,-6915,-3949,-1361,1745172590636065769
321760,-65,29,9,-6894,-3908,-1336,1745172590636065769
321952,-66,26,7,-6906,-3917,-1330,1745172590636065769
322144,-64,24,6,-6911,-3914,-1295,1745172590636065769
322336,-62,25,8,-6927,-3910,-1312,1745172590636065769
322528,-62,27,10,-6944,-3925,-1307,1745172590636065769
322720,-62,29,13,-6918,-3917,-1293,1745172590696093970
322912,-62,32,15,-6910,-3881,-1274,1745172590696093970
323104,-63,33,16,-6901,-3870,-1244,1745172590696093970
323296,-64,34,16,-6873,-3838,-1216,1745172590696093970
323488,-67,35,15,-6844,-3815,-1187,1745172590696093970
323680,-69,34,15,-6840,-3790,-1151,1745172590696093970
323872,-75,36,14,-6852,-3769,-1110,1745172590696093970
324064,-80,40,15,-6845,-3744,-1070,1745172590696093970
324256,-87,45,16,-6835,-3730,-998,1745172590696093970
324448,-94,51,14,-6803,-3713,-945,1745172590696093970
324640,-104,60,12,-6778,-3705,-897,1745172590696093970
324832,-116,72,11,-6720,-3673,-855,1745172590696093970
325024,-126,82,11,-6643,-3632,-793,1745172590752137260
325216,-139,94,12,-6548,-3600,-728,1745172590752137260
325408,-153,106,13,-6452,-3535,-642,1745172590752137260
325600,-169,117,13,-6343,-3483,-518,1745172590752137260
325792,-188,130,11,-6206,-3410,-364,1745172590752137260
325984,-209,145,8,-6057,-3336,-155,1745172590752137260
326176,-237,164,6,-5887,-3238,85,1745172590752137260
326368,-275,188,5,-5705,-3113,381,1745172590752137260
326560,-322,219,5,-5477,-3001,682,1745172590752137260
326752,-382,262,4,-5223,-2886,969,1745172590752137260
326944,-452,314,3,-4965,-2801,1189,1745172590752137260
327136,-525,370,2,-4685,-2718,1333,1745172590752137260
327328,-595,429,-2,-4440,-2700,1390,1745172590817698276
327520,-657,491,-8,-4227,-2714,1329,1745172590817698276
327712,-708,551,-18,-4059,-2750,1135,1745172590817698276
327904,-740,604,-31,-3946,-2812,930,1745172590817698276
328096,-744,639,-49,-3911,-2847,782,1745172590817698276
328288,-726,661,-68,-3957,-2842,722,1745172590817698276
328480,-698,681,-90,-4070,-2773,697,1745172590817698276
328672,-675,705,-111,-4235,-2688,716,1745172590817698276
328864,-659,740,-131,-4379,-2620,796,1745172590817698276
329056,-654,780,-146,-4487,-2557,888,1745172590817698276
329248,-663,825,-155,-4546,-2501,994,1745172590817698276
329440,-691,871,-161,-4549,-2487,1103,1745172590817698276
329632,-742,920,-157,-4496,-2461,1225,1745172590874894160
329824,-817,973,-146,-4405,-2432,1365,1745172590874894160
330016,-915,1024,-132,-4305,-2418,1561,1745172590874894160
330208,-1031,1069,-121,-4210,-2404,1768,1745172590874894160
330400,-1162,1109,-120,-4157,-2373,1971,1745172590874894160
330592,-1308,1151,-127,-4181,-2282,2098,1745172590874894160
330784,-1466,1197,-137,-4284,-2203,2100,1745172590874894160
330976,-1630,1260,-146,-4388,-2113,1942,1745172590874894160
331168,-1788,1337,-155,-4511,-2027,1640,1745172590874894160
331360,-1926,1417,-165,-4605,-1955,1276,1745172590874894160
331552,-2035,1491,-175,-4701,-1847,934,1745172590874894160
331744,-2118,1559,-189,-4773,-1690,611,1745172590874894160
331936,-2178,1625,-206,-4803,-1500,353,1745172590933168002
332128,-2213,1685,-223,-4768,-1287,162,1745172590933168002
332320,-2223,1738,-240,-4705,-1072,25,1745172590933168002
332512,-2220,1786,-258,-4662,-796,-67,1745172590933168002
332704,-2211,1836,-273,-4591,-584,-155,1745172590933168002
332896,-2196,1887,-285,-4510,-372,-229,1745172590933168002
333088,-2176,1932,-299,-4445,-199,-219,1745172590933168002
333280,-2159,1974,-321,-4392,-57,-202,1745172590933168002
333472,-2155,2006,-352,-4362,56,-190,1745172590933168002
333664,-2163,2035,-385,-4398,180,-224,1745172590933168002
333856,-2181,2067,-414,-4435,292,-216,1745172590933168002
334048,-2215,2106,-438,-4492,425,-219,1745172590933168002
334240,-2268,2158,-457,-4549,582,-226,1745172590985971999
334432,-2336,2220,-470,-4618,748,-253,1745172590985971999
334624,-2415,2294,-474,-4679,943,-333,1745172590985971999
334816,-2501,2380,-469,-4738,1146,-511,1745172590985971999
335008,-2584,2479,-458,-4813,1338,-932,1745172590985971999
335200,-2649,2595,-447,-4886,1508,-1667,1745172590985971999
335392,-2681,2721,-442,-4896,1667,-2343,1745172590985971999
335584,-2662,2834,-448,-4786,1784,-2778,1745172590985971999
335776,-2605,2932,-458,-4513,1799,-2956,1745172590985971999
335968,-2545,3017,-475,-4204,1771,-3150,1745172590985971999
336160,-2505,3095,-497,-3899,1702,-3356,1745172590985971999
336352,-2494,3166,-508,-3564,1581,-3365,1745172590985971999
336544,-2502,3221,-501,-3184,1444,-3361,1745172591046452488
336736,-2512,3250,-516,-2891,1313,-3305,1745172591046452488
336928,-2546,3295,-519,-2709,1273,-3316,1745172591046452488
337120,-2584,3353,-504,-2572,1363,-3550,1745172591046452488
337312,-2623,3399,-507,-2460,1525,-3796,1745172591046452488
337504,-2653,3458,-509,-2417,1760,-4030,1745172591046452488
337696,-2682,3515,-523,-2445,2041,-4694,1745172591046452488
337888,-2678,3590,-538,-2551,2445,-5729,1745172591046452488
338080,-2621,3670,-553,-2570,2749,-6377,1745172591046452488
338272,-2497,3720,-576,-2437,2936,-6753,1745172591046452488
338464,-2328,3790,-605,-2262,3017,-7033,1745172591046452488
338656,-2153,3866,-632,-2095,3012,-7638,1745172591046452488
338848,-1994,3953,-655,-1742,2878,-8197,1745172591103781236
339040,-1849,4032,-673,-1271,2527,-8542,1745172591103781236
339232,-1703,4062,-695,-716,2103,-8721,1745172591103781236
339424,-1559,4055,-712,-88,1690,-8950,1745172591103781236
339616,-1431,4021,-732,560,1339,-9212,1745172591103781236
339808,-1351,3953,-758,1207,1065,-9465,1745172591103781236
340000,-1335,3841,-797,1844,905,-9617,1745172591103781236
340192,-1388,3663,-871,2365,852,-9629,1745172591103781236
340384,-1473,3526,-957,2771,869,-9616,1745172591103781236
340576,-1562,3442,-1034,3036,939,-9975,1745172591103781236
340768,-1629,3374,-1075,3149,1069,-10468,1745172591103781236
340960,-1648,3312,-1066,3204,1200,-10865,1745172591103781236
341152,-1613,3230,-1014,3249,1291,-11168,1745172591163129964
341344,-1523,3136,-940,3251,1346,-11766,1745172591163129964
341536,-1397,3036,-862,3300,1344,-12538,1745172591163129964
341728,-1243,2934,-796,3411,1210,-13180,1745172591163129964
341920,-1063,2832,-750,3637,934,-13634,1745172591163129964
342112,-873,2732,-732,3849,694,-13991,1745172591163129964
342304,-698,2644,-732,4012,532,-14339,1745172591163129964
342496,-554,2573,-732,4150,415,-14633,1745172591163129964
342688,-449,2500,-727,4360,281,-14812,1745172591163129964
342880,-361,2411,-713,4464,43,-14900,1745172591163129964
343072,-294,2329,-726,4552,-378,-14805,1745172591163129964
343264,-234,2209,-746,4589,-452,-14620,1745172591163129964
343456,-183,2104,-713,4528,-708,-14645,1745172591224631590
343648,-163,2004,-650,4475,-867,-14729,1745172591224631590
343840,-161,1912,-532,4475,-989,-14720,1745172591224631590
344032,-182,1822,-370,4532,-1227,-14654,1745172591224631590
344224,-236,1722,-227,4670,-1494,-14521,1745172591224631590
344416,-333,1614,-155,4842,-1773,-14442,1745172591224631590
344608,-465,1516,-164,4855,-2007,-14266,1745172591224631590
344800,-610,1425,-214,4842,-2206,-14069,1745172591224631590
344992,-750,1336,-280,4769,-2280,-13928,1745172591224631590
345184,-882,1267,-337,4545,-2136,-13809,1745172591224631590
345376,-1005,1205,-358,4296,-1838,-13730,1745172591224631590
345568,-1101,1143,-338,4091,-1411,-13655,1745172591224631590
345760,-1155,1077,-290,3960,-904,-13554,1745172591283929329
345952,-1158,1000,-242,3945,-421,-13463,1745172591283929329
346144,-1119,903,-225,4068,-13,-13362,1745172591283929329
346336,-1041,795,-237,4157,334,-13209,1745172591283929329
346528,-936,683,-265,4236,570,-13010,1745172591283929329
346720,-810,565,-300,4287,655,-12806,1745172591283929329
346912,-679,461,-329,4227,657,-12583,1745172591283929329
347104,-564,363,-341,4066,575,-12300,1745172591283929329
347296,-466,288,-322,3821,464,-12028,1745172591283929329
347488,-386,221,-272,3569,302,-11711,1745172591283929329
347680,-329,164,-207,3341,164,-11373,1745172591283929329
347872,-299,123,-137,3059,55,-11061,1745172591283929329
348064,-293,91,-68,2849,-57,-10789,1745172591336617806
348256,-305,68,-12,2661,-127,-10519,1745172591336617806
348448,-339,53,35,2493,-186,-10279,1745172591336617806
348640,-386,44,73,2375,-245,-10007,1745172591336617806
348832,-440,43,95,2288,-233,-9721,1745172591336617806
349024,-494,53,102,2145,-174,-9453,1745172591336617806
349216,-540,76,101,2007,-35,-9232,1745172591336617806
349408,-574,97,96,1946,130,-9069,1745172591336617806
349600,-589,111,86,1922,370,-8953,1745172591336617806
349792,-582,128,73,1904,623,-8870,1745172591336617806
349984,-550,145,59,1900,887,-8802,1745172591336617806
350176,-494,163,47,1905,1105,-8750,1745172591336617806
350368,-418,179,37,1968,1309,-8710,1745172591398406773
350560,-329,194,29,2037,1464,-8640,1745172591398406773
350752,-238,208,22,2132,1569,-8632,1745172591398406773
350944,-156,216,16,2289,1549,-8486,1745172591398406773
351136,-90,192,6,2576,1371,-8335,1745172591398406773
351328,-60,122,-11,2955,1114,-8658,1745172591398406773
351520,-78,24,-30,3222,1018,-9129,1745172591398406773
351712,-123,-92,-44,3258,1006,-9226,1745172591398406773
351904,-136,-184,-46,3036,1052,-9186,1745172591398406773
352096,-77,-234,-27,2736,1072,-9106,1745172591398406773
352288,27,-263,3,2584,993,-9082,1745172591398406773
352480,115,-287,23,2513,793,-9088,1745172591398406773
352672,143,-309,24,2405,534,-9009,1745172591455824790
352864,111,-314,12,2137,317,-8829,1745172591455824790
353056,56,-288,-1,1796,170,-8622,1745172591455824790
353248,5,-239,-6,1527,115,-8435,1745172591455824790
353440,-39,-181,2,1403,146,-8299,1745172591455824790
353632,-84,-132,18,1420,243,-8194,1745172591455824790
353824,-129,-92,38,1546,373,-8100,1745172591455824790
354016,-170,-61,49,1732,526,-7975,1745172591455824790
354208,-198,-39,47,1924,704,-7874,1745172591455824790
354400,-214,-25,37,2086,887,-7792,1745172591455824790
354592,-215,-23,22,2183,1069,-7704,1745172591455824790
354784,-200,-26,3,2203,1233,-7624,1745172591455824790
354976,-173,-34,-15,2212,1383,-7569,1745172591512127453
355168,-141,-46,-27,2176,1467,-7534,1745172591512127453
355360,-107,-60,-34,2126,1490,-7511,1745172591512127453
355552,-72,-71,-36,2054,1488,-7473,1745172591512127453
355744,-41,-78,-31,1995,1407,-7467,1745172591512127453
355936,-17,-80,-27,1936,1299,-7516,1745172591512127453
356128,-3,-79,-24,1885,1216,-7567,1745172591512127453
356320,0,-73,-26,1834,1139,-7630,1745172591512127453
356512,-3,-65,-31,1798,1094,-7660,1745172591512127453
356704,-8,-56,-39,1786,1036,-7696,1745172591512127453
356896,-13,-46,-46,1803,1006,-7724,1745172591512127453
357088,-18,-37,-53,1818,1003,-7756,1745172591512127453
357280,-23,-30,-59,1845,1036,-7789,1745172591568162410
357472,-28,-26,-64,1881,1064,-7783,1745172591568162410
357664,-35,-25,-69,1925,1075,-7842,1745172591568162410
357856,-42,-23,-74,1903,1101,-7849,1745172591568162410
358048,-35,-9,-74,1830,1170,-7690,1745172591568162410
358240,-14,2,-67,1776,1215,-7658,1745172591568162410
358432,6,-4,-59,1892,1157,-7790,1745172591568162410
358624,7,-30,-55,1976,1059,-7849,1745172591568162410
358816,-13,-57,-50,1962,1015,-7902,1745172591568162410
359008,-42,-70,-39,1890,995,-7946,1745172591568162410
359200,-69,-71,-30,1825,997,-7997,1745172591568162410
359392,-86,-62,-28,1738,1016,-8034,1745172591568162410
359584,-89,-54,-26,1682,1036,-8071,1745172591632343543
359776,-83,-48,-22,1655,1062,-8075,1745172591632343543
359968,-73,-44,-16,1672,1090,-8066,1745172591632343543
360160,-64,-41,-12,1704,1096,-8060,1745172591632343543
360352,-57,-40,-8,1721,1120,-8064,1745172591632343543
360544,-53,-38,-6,1719,1122,-8099,1745172591632343543
360736,-52,-34,-8,1727,1138,-8123,1745172591632343543
360928,-55,-26,-12,1692,1165,-8139,1745172591632343543
361120,-62,-18,-16,1666,1214,-8145,1745172591632343543
361312,-72,-9,-18,1683,1232,-8126,1745172591632343543
361504,-79,-6,-19,1715,1219,-8099,1745172591632343543
361696,-84,-3,-22,1733,1225,-8083,1745172591632343543
361888,-87,0,-24,1727,1265,-8058,1745172591687215073
362080,-87,3,-21,1725,1265,-7990,1745172591687215073
362272,-87,2,-10,1740,1272,-7948,1745172591687215073
362464,-85,-2,4,1759,1299,-7927,1745172591687215073
362656,-86,-6,15,1750,1333,-7889,1745172591687215073
362848,-86,-8,24,1743,1378,-7849,1745172591687215073
363040,-81,-13,23,1745,1380,-7823,1745172591687215073
363232,-71,-19,15,1732,1397,-7813,1745172591687215073
363424,-53,-22,10,1769,1377,-7750,1745172591687215073
363616,13,-27,13,1811,1421,-7769,1745172591687215073
363808,51,-32,22,1825,1451,-7800,1745172591687215073
364000,67,-42,30,1847,1412,-7786,1745172591687215073
364192,82,-56,32,1851,1337,-7831,1745172591747816550
364384,88,-66,35,1839,1227,-7851,1745172591747816550
364576,91,-73,39,1841,1138,-7857,1745172591747816550
364768,92,-79,45,1799,1057,-7859,1745172591747816550
364960,89,-83,50,1761,1017,-7890,1745172591747816550
365152,82,-82,53,1726,976,-7893,1745172591747816550
365344,72,-79,54,1708,946,-7882,1745172591747816550
365536,63,-77,52,1726,931,-7888,1745172591747816550
365728,57,-73,54,1736,937,-7884,1745172591747816550
365920,53,-67,60,1765,950,-7906,1745172591747816550
366112,43,-64,66,1781,993,-7898,1745172591747816550
366304,30,-68,67,1731,1022,-7893,1745172591747816550
366496,23,-69,63,1700,1068,-7881,1745172591805790343
366688,21,-65,57,1685,1090,-7892,1745172591805790343
366880,20,-62,56,1699,1086,-7869,1745172591805790343
367072,19,-58,55,1726,1099,-7908,1745172591805790343
367264,13,-54,52,1779,1101,-7897,1745172591805790343
367456,14,-50,54,1807,1135,-7949,1745172591805790343
367648,15,-53,59,1794,1176,-7899,1745172591805790343
367840,22,-56,68,1779,1223,-7925,1745172591805790343
368032,26,-61,72,1764,1239,-7923,1745172591805790343
368224,32,-66,76,1732,1253,-7908,1745172591805790343
368416,41,-70,75,1732,1235,-7902,1745172591805790343
368608,50,-69,72,1726,1200,-7905,1745172591805790343
368800,59,-62,72,1736,1164,-7905,1745172591869933247
368992,67,-59,71,1772,1157,-7928,1745172591869933247
369184,78,-57,71,1766,1173,-7964,1745172591869933247
369376,84,-57,70,1761,1201,-7980,1745172591869933247
369568,93,-60,69,1764,1211,-8014,1745172591869933247
369760,103,-64,71,1775,1207,-8025,1745172591869933247
369952,124,-52,86,1896,1127,-8090,1745172591869933247
370144,137,-51,90,1867,1109,-8291,1745172591869933247
370336,142,-55,80,1730,1113,-8135,1745172591869933247
370528,146,-49,75,1640,1105,-8161,1745172591869933247
370720,143,-53,72,1624,1043,-8146,1745172591869933247
370912,137,-59,64,1638,940,-8093,1745172591869933247
371104,127,-53,52,1650,837,-8017,1745172591920966375
371296,114,-51,41,1629,800,-7961,1745172591920966375
371488,101,-46,47,1596,813,-7897,1745172591920966375
371680,86,-41,58,1608,840,-7874,1745172591920966375
371872,73,-41,62,1616,867,-7855,1745172591920966375
372064,65,-43,63,1628,905,-7845,1745172591920966375
372256,72,-60,48,1378,950,-7970,1745172591920966375
372448,98,-50,19,1329,1014,-8066,1745172591920966375
372640,88,5,18,1444,978,-8094,1745172591920966375
372832,76,12,23,1647,950,-8059,1745172591920966375
373024,71,21,23,1704,948,-8045,1745172591920966375
373216,67,27,18,1779,941,-8016,1745172591920966375
373408,67,17,18,1746,982,-7988,1745172591982398782
373600,62,11,4,1732,946,-7992,1745172591982398782
373792,59,12,-7,1641,934,-8001,1745172591982398782
373984,56,17,8,1605,929,-7986,1745172591982398782
374176,53,16,28,1679,913,-7976,1745172591982398782
374368,43,20,17,1743,812,-7972,1745172591982398782
374560,29,15,-6,1776,714,-7936,1745172591982398782
374752,14,6,-12,1792,671,-7901,1745172591982398782
374944,-1,-2,-8,1765,694,-7877,1745172591982398782
375136,-16,-7,-8,1733,722,-7872,1745172591982398782
375328,-30,-14,-15,1701,752,-7882,1745172591982398782
375520,-45,-17,-22,1706,777,-7897,1745172591982398782
375712,-58,-17,-29,1688,796,-7923,1745172592038919881
375904,-70,-8,-30,1632,818,-7966,1745172592038919881
376096,-79,4,-26,1556,885,-8009,1745172592038919881
376288,-85,28,-13,1460,983,-8030,1745172592038919881
376480,-84,52,9,1446,1068,-7986,1745172592038919881
376672,-77,70,28,1527,1124,-7969,1745172592038919881
376864,-70,89,28,1641,1162,-7980,1745172592038919881
377056,-61,88,25,1757,1182,-7928,1745172592038919881
377248,-47,83,18,1828,1205,-7898,1745172592038919881
377440,-34,71,12,1844,1230,-7894,1745172592038919881
377632,-17,50,15,1894,1233,-7851,1745172592038919881
377824,-2,30,2,1873,1174,-7864,1745172592038919881
378016,9,18,-9,1766,1128,-7875,1745172592101997377
378208,19,15,-2,1623,1075,-7905,1745172592101997377
378400,25,17,3,1589,1018,-7916,1745172592101997377
378592,24,24,3,1610,939,-7919,1745172592101997377
378784,21,29,-1,1653,862,-7925,1745172592101997377
378976,14,34,-5,1693,816,-7899,1745172592101997377
379168,5,37,-9,1704,819,-7892,1745172592101997377
379360,-2,41,-16,1709,837,-7901,1745172592101997377
379552,-12,43,-23,1713,827,-7911,1745172592101997377
379744,-23,43,-34,1726,812,-7892,1745172592101997377
379936,-32,42,-47,1705,826,-7901,1745172592101997377
380128,-40,50,-51,1678,873,-7871,1745172592101997377
380320,-45,58,-40,1621,953,-8040,1745172592154789603
380512,-37,229,17,613,1311,-8133,1745172592154789603
380704,-31,36,105,2175,1361,-7369,1745172592154789603
380896,-7,-30,105,2952,1266,-7627,1745172592154789603
381088,12,-1,-3,2744,1001,-8066,1745172592154789603
381280,19,-46,-81,2129,1060,-7977,1745172592154789603
381472,28,-84,-27,1608,1189,-7919,1745172592154789603
381664,42,-81,-4,1344,1177,-7912,1745172592154789603
381856,47,-40,-22,1201,1014,-7932,1745172592154789603
382048,45,3,-6,1331,822,-7912,1745172592154789603
382240,37,26,10,1569,764,-7886,1745172592154789603
382432,27,47,17,1654,842,-7888,1745172592154789603
382624,23,48,26,1741,990,-7848,1745172592220994051
382816,26,31,26,1854,1117,-7823,1745172592220994051
383008,34,12,20,1937,1163,-7867,1745172592220994051
383200,43,-8,13,1953,1080,-7885,1745172592220994051
383392,48,-29,3,1910,999,-7889,1745172592220994051
383584,48,-42,-5,1780,833,-7924,1745172592220994051
383776,39,-33,-28,1641,704,-7949,1745172592220994051
383968,20,-29,-29,1566,618,-7919,1745172592220994051
384160,1,-11,-18,1546,680,-7910,1745172592220994051
384352,-14,-4,-20,1602,761,-7891,1745172592220994051
384544,-27,11,-18,1640,831,-7909,1745172592220994051
384736,-33,17,-11,1654,933,-7923,1745172592220994051
384928,-34,31,-8,1663,996,-7947,1745172592273334875
385120,-34,37,-6,1703,1040,-7929,1745172592273334875
385312,-33,35,-4,1802,1041,-7909,1745172592273334875
385504,-28,24,-5,1894,1045,-7888,1745172592273334875
385696,-23,7,-11,1925,1038,-7868,1745172592273334875
385888,-17,-9,-15,1851,1017,-7858,1745172592273334875
386080,-13,-22,-19,1772,983,-7863,1745172592273334875
386272,-12,-30,-21,1708,946,-7870,1745172592273334875
386464,-14,-28,-21,1661,903,-7882,1745172592273334875
386656,-18,-23,-20,1659,891,-7892,1745172592273334875
386848,-24,-17,-17,1661,871,-7913,1745172592273334875
387040,-30,-16,-15,1725,895,-7909,1745172592273334875
387232,-34,-13,-12,1722,933,-7912,1745172592330611487
387424,-35,-10,-5,1709,980,-7908,1745172592330611487
387616,-32,-6,1,1688,1040,-7906,1745172592330611487
387808,-27,-1,4,1692,1064,-7918,1745172592330611487
388000,-21,-2,3,1733,1063,-7903,1745172592330611487
388192,-15,-1,4,1744,1061,-7910,1745172592330611487
388384,-9,-8,4,1743,1068,-7901,1745172592330611487
388576,-4,-10,4,1736,1053,-7895,1745172592330611487
388768,3,-13,3,1732,1048,-7879,1745172592330611487
388960,8,-13,1,1715,1038,-7873,1745172592330611487
389152,12,-16,2,1708,1015,-7861,1745172592330611487
389344,16,-15,1,1701,1000,-7866,1745172592330611487
389536,19,-18,0,1726,996,-7875,1745172592394061428
389728,22,-19,-3,1723,997,-7905,1745172592394061428
389920,25,-18,-2,1677,998,-7909,1745172592394061428
390112,26,-17,-1,1666,1009,-7898,1745172592394061428
390304,28,-15,1,1679,1014,-7905,1745172592394061428
390496,29,-12,0,1684,999,-7901,1745172592394061428
390688,31,-12,0,1684,986,-7889,1745172592394061428
390880,33,-9,2,1666,974,-7901,1745172592394061428
391072,33,-6,3,1669,955,-7896,1745172592394061428
391264,31,-6,4,1688,920,-7881,1745172592394061428
391456,31,-4,5,1684,913,-7885,1745172592394061428
391648,29,-3,5,1686,921,-7891,1745172592394061428
391840,26,-1,6,1669,920,-7899,1745172592454674103
392032,24,1,6,1669,936,-7897,1745172592454674103
392224,25,3,7,1675,952,-7880,1745172592454674103
392416,28,5,9,1688,968,-7891,1745172592454674103
392608,31,5,10,1715,999,-7902,1745172592454674103
392800,35,6,8,1713,1000,-7900,1745172592454674103
392992,41,3,10,1725,1006,-7907,1745172592454674103
393184,46,2,11,1711,1007,-7903,1745172592454674103
393376,49,-1,10,1709,978,-7909,1745172592454674103
393568,52,0,12,1688,951,-7913,1745172592454674103
393760,53,0,13,1683,919,-7897,1745172592454674103
393952,53,3,11,1684,887,-7889,1745172592454674103
394144,51,4,10,1700,842,-7891,1745172592508311061
394336,46,4,10,1716,830,-7905,1745172592508311061
394528,41,2,8,1711,812,-7892,1745172592508311061
394720,34,-2,5,1723,814,-7877,1745172592508311061
394912,29,-5,2,1727,820,-7879,1745172592508311061
395104,24,-7,0,1714,846,-7891,1745172592508311061
395296,22,-8,-3,1705,880,-7901,1745172592508311061
395488,21,-7,-6,1694,892,-7914,1745172592508311061
395680,20,-7,-7,1693,921,-7919,1745172592508311061
395872,20,-7,-9,1706,941,-7922,1745172592508311061
396064,21,-7,-7,1711,947,-7922,1745172592508311061
396256,23,-9,-7,1706,958,-7933,1745172592508311061
396448,26,-10,-6,1710,956,-7935,1745172592566036784
396640,28,-11,-5,1700,940,-7924,1745172592566036784
396832,29,-13,-3,1708,917,-7912,1745172592566036784
397024,29,-15,-3,1695,897,-7911,1745172592566036784
397216,28,-16,-1,1694,850,-7918,1745172592566036784
397408,25,-15,0,1673,831,-7916,1745172592566036784
397600,21,-14,0,1671,823,-7908,1745172592566036784
397792,16,-14,0,1653,804,-7908,1745172592566036784
397984,11,-10,0,1652,803,-7916,1745172592566036784
398176,5,-6,0,1644,815,-7918,1745172592566036784
398368,-1,-2,1,1642,826,-7908,1745172592566036784
398560,-5,0,1,1665,850,-7918,1745172592566036784
398752,-8,4,0,1678,855,-7908,1745172592622121063
398944,-10,3,-2,1695,877,-7912,1745172592622121063
399136,-12,2,-3,1690,884,-7907,1745172592622121063
399328,-14,-1,-4,1694,880,-7914,1745172592622121063
399520,-14,-4,-4,1695,899,-7900,1745172592622121063
399712,-14,-5,-3,1679,912,-7907,1745172592622121063
399904,-13,-7,-3,1679,924,-7909,1745172592622121063
400096,-11,-9,-2,1668,928,-7904,1745172592622121063
400288,-9,-4,-5,1663,895,-7929,1745172592622121063
400480,-7,5,-12,1607,875,-7943,1745172592622121063
400672,-8,10,-10,1626,849,-7916,1745172592622121063
400864,-11,12,-4,1676,852,-7898,1745172592622121063
401056,-12,9,-4,1726,874,-7892,1745172592680941828
401248,-13,5,-5,1715,873,-7891,1745172592680941828
401440,-13,2,-8,1707,886,-7902,1745172592680941828
401632,-14,0,-10,1677,851,-7904,1745172592680941828
401824,-17,-1,-11,1675,826,-7898,1745172592680941828
402016,-21,0,-11,1678,798,-7901,1745172592680941828
402208,-26,0,-10,1684,813,-7920,1745172592680941828
402400,-32,2,-10,1676,823,-7929,1745172592680941828
402592,-37,4,-12,1674,831,-7931,1745172592680941828
402784,-41,7,-11,1656,881,-7918,1745172592680941828
402976,-43,7,-8,1683,907,-7916,1745172592680941828
403168,-45,6,-9,1688,906,-7907,1745172592680941828
403360,-46,5,-10,1694,913,-7911,1745172592757993989
403552,-47,2,-10,1701,923,-7898,1745172592757993989
403744,-47,0,-10,1682,909,-7898,1745172592757993989
403936,-48,-2,-11,1693,902,-7903,1745172592757993989
404128,-48,-4,-10,1688,903,-7904,1745172592757993989
404320,-49,-6,-11,1685,909,-7915,1745172592757993989
404512,-48,-5,-9,1666,938,-7907,1745172592757993989
404704,-46,-3,-7,1655,964,-7910,1745172592757993989
404896,-43,-2,-6,1660,979,-7903,1745172592757993989
405088,-36,-3,-6,1670,1003,-7913,1745172592757993989
405280,-31,-2,-4,1682,1004,-7908,1745172592757993989
405472,-26,-3,-4,1697,1008,-7903,1745172592757993989
405664,-20,-1,-2,1667,1003,-7918,1745172592802870246
405856,-15,-1,-1,1657,991,-7917,1745172592802870246
406048,-10,1,0,1675,985,-7909,1745172592802870246
406240,-7,-1,1,1711,961,-7913,1745172592802870246
406432,-5,-2,1,1690,943,-7908,1745172592802870246
406624,-5,-3,1,1675,919,-7909,1745172592802870246
406816,-5,-4,2,1666,901,-7918,1745172592802870246
407008,-7,-4,2,1654,879,-7902,1745172592802870246
407200,-8,-2,1,1641,896,-7915,1745172592802870246
407392,-9,3,1,1627,912,-7908,1745172592802870246
407584,-11,3,3,1643,919,-7896,1745172592802870246
407776,-13,3,3,1672,926,-7901,1745172592802870246
407968,-12,4,2,1676,939,-7901,1745172592865617537
408160,-11,3,1,1684,955,-7901,1745172592865617537
408352,-8,3,2,1669,965,-7915,1745172592865617537
408544,-6,2,1,1659,966,-7917,1745172592865617537
408736,-5,4,3,1668,960,-7925,1745172592865617537
408928,-4,4,3,1664,952,-7919,1745172592865617537
409120,-2,6,5,1676,933,-7904,1745172592865617537
409312,-3,6,3,1686,909,-7898,1745172592865617537
409504,-4,5,2,1678,878,-7893,1745172592865617537
409696,-6,5,3,1674,882,-7903,1745172592865617537
409888,-8,6,2,1674,865,-7909,1745172592865617537
410080,-12,7,1,1662,863,-7913,1745172592865617537
410272,-15,9,1,1674,882,-7914,1745172592920401203
410464,-17,8,0,1674,898,-7901,1745172592920401203
410656,-20,8,1,1699,903,-7905,1745172592920401203
410848,-21,5,0,1685,932,-7880,1745172592920401203
411040,-20,4,-1,1694,931,-7891,1745172592920401203
411232,-18,2,-1,1687,964,-7902,1745172592920401203
411424,-16,0,-2,1680,974,-7909,1745172592920401203
411616,-15,0,-2,1677,969,-7904,1745172592920401203
411808,-12,-1,-2,1688,959,-7899,1745172592920401203
412000,-10,-2,-2,1678,975,-7903,1745172592920401203
412192,-9,-3,-2,1678,953,-7883,1745172592920401203
412384,-8,-3,-3,1667,932,-7913,1745172592920401203
412576,-8,-3,-3,1686,921,-7933,1745172592987460174
412768,-10,-3,-3,1678,905,-7914,1745172592987460174
412960,-13,-3,-2,1661,896,-7891,1745172592987460174
413152,-13,-2,-3,1661,890,-7893,1745172592987460174
413344,-16,-1,-4,1656,899,-7920,1745172592987460174
413536,-18,0,-4,1659,916,-7908,1745172592987460174
413728,-20,1,-4,1649,909,-7884,1745172592987460174
413920,-20,2,-5,1646,924,-7901,1745172592987460174
414112,-21,2,-5,1674,929,-7914,1745172592987460174
414304,-21,1,-5,1671,934,-7905,1745172592987460174
414496,-20,1,-5,1675,943,-7897,1745172592987460174
414688,-19,0,-4,1674,947,-7909,1745172592987460174
414880,-18,-3,-4,1682,937,-7913,1745172593039007672
415072,-19,-5,-4,1672,932,-7904,1745172593039007672
415264,-18,-6,-5,1664,925,-7908,1745172593039007672
415456,-19,-6,-5,1654,921,-7896,1745172593039007672
415648,-21,-4,-5,1648,916,-7881,1745172593039007672
415840,-21,-3,-5,1649,922,-7887,1745172593039007672
416032,-22,-1,-6,1646,914,-7900,1745172593039007672
416224,-22,0,-5,1656,940,-7903,1745172593039007672
416416,-21,2,-5,1678,970,-7907,1745172593039007672
416608,-20,1,-5,1680,991,-7918,1745172593039007672
416800,-19,0,-5,1683,1001,-7922,1745172593039007672
416992,-16,-3,-5,1696,1007,-7903,1745172593039007672
417184,-13,-5,-5,1697,1007,-7902,1745172593095098461
417376,-9,-8,-5,1691,990,-7904,1745172593095098461
417568,-6,-11,-6,1675,975,-7897,1745172593095098461
417760,-5,-13,-5,1681,954,-7890,1745172593095098461
417952,-4,-15,-5,1683,926,-7888,1745172593095098461
418144,-4,-17,-6,1673,924,-7903,1745172593095098461
418336,-4,-18,-7,1658,903,-7884,1745172593095098461
418528,-6,-18,-7,1657,923,-7902,1745172593095098461
418720,-7,-19,-6,1665,924,-7898,1745172593095098461
418912,-8,-20,-6,1661,924,-7888,1745172593095098461
419104,-8,-21,-6,1668,934,-7892,1745172593095098461
419296,-8,-24,-6,1675,936,-7896,1745172593095098461
419488,-8,-27,-6,1671,943,-7891,1745172593155908583
419680,-8,-29,-7,1684,945,-7894,1745172593155908583
419872,-6,-33,-6,1671,955,-7899,1745172593155908583
420064,-6,-36,-7,1670,960,-7910,1745172593155908583
420256,-7,-37,-7,1658,947,-7910,1745172593155908583
420448,-7,-38,-7,1646,953,-7911,1745172593155908583
420640,-7,-38,-6,1645,965,-7911,1745172593155908583
420832,-7,-37,-6,1637,966,-7915,1745172593155908583
421024,-6,-37,-6,1647,977,-7922,1745172593155908583
421216,-5,-36,-6,1638,1001,-7908,1745172593155908583
421408,-2,-37,-4,1627,1020,-7905,1745172593155908583
421600,4,-37,-3,1626,1064,-7905,1745172593155908583
421792,10,-38,-3,1629,1057,-7901,1745172593212217131
421984,18,-40,-4,1651,1068,-7901,1745172593212217131
422176,26,-43,-3,1638,1058,-7901,1745172593212217131
422368,33,-45,-3,1641,1052,-7918,1745172593212217131
422560,41,-47,-3,1619,1031,-7925,1745172593212217131
422752,47,-49,-3,1630,991,-7938,1745172593212217131
422944,51,-51,-4,1628,966,-7913,1745172593212217131
423136,53,-52,-3,1621,930,-7924,1745172593212217131
423328,52,-53,-4,1605,893,-7930,1745172593212217131
423520,51,-53,-5,1601,875,-7920,1745172593212217131
423712,48,-52,-4,1605,869,-7935,1745172593212217131
423904,44,-50,-4,1577,867,-7908,1745172593212217131
424096,41,-48,-5,1582,887,-7907,1745172593266190232
424288,41,-45,-5,1586,899,-7914,1745172593266190232
424480,39,-44,-5,1602,906,-7944,1745172593266190232
424672,38,-44,-5,1609,908,-7938,1745172593266190232
424864,36,-46,-5,1634,911,-7921,1745172593266190232
425056,36,-48,-5,1596,914,-7928,1745172593266190232
425248,38,-50,-6,1600,918,-7932,1745172593266190232
425440,38,-51,-8,1562,906,-7930,1745172593266190232
425632,37,-51,-7,1558,890,-7915,1745172593266190232
425824,37,-51,-8,1558,881,-7902,1745172593266190232
426016,37,-50,-8,1562,870,-7919,1745172593266190232
426208,34,-48,-8,1570,863,-7924,1745172593266190232
426400,31,-49,-8,1565,863,-7933,1745172593330705736
426592,30,-49,-8,1572,861,-7953,1745172593330705736
426784,27,-51,-8,1545,856,-7953,1745172593330705736
426976,24,-49,-8,1538,862,-7939,1745172593330705736
427168,22,-48,-8,1543,864,-7929,1745172593330705736
427360,21,-44,-7,1547,857,-7931,1745172593330705736
427552,20,-43,-6,1545,870,-7939,1745172593330705736
427744,19,-42,-7,1545,871,-7930,1745172593330705736
427936,19,-41,-6,1545,881,-7930,1745172593330705736
428128,20,-42,-6,1541,898,-7936,1745172593330705736
428320,21,-41,-5,1547,881,-7944,1745172593330705736
428512,21,-41,-5,1557,884,-7953,1745172593330705736
428704,23,-42,-5,1548,895,-7957,1745172593391083154
428896,23,-42,-6,1528,878,-7944,1745172593391083154
429088,23,-42,-4,1514,887,-7917,1745172593391083154
429280,23,-41,-4,1500,864,-7936,1745172593391083154
429472,23,-40,-5,1509,868,-7949,1745172593391083154
429664,20,-38,-4,1497,850,-7942,1745172593391083154
429856,18,-35,-2,1494,845,-7953,1745172593391083154
430048,16,-33,-2,1497,856,-7939,1745172593391083154
430240,15,-31,-2,1494,853,-7943,1745172593391083154
430432,13,-29,0,1505,869,-7957,1745172593391083154
430624,12,-27,1,1515,880,-7944,1745172593391083154
430816,13,-26,2,1494,889,-7946,1745172593391083154
431008,13,-24,3,1500,898,-7939,1745172593448085289
431200,16,-22,4,1495,901,-7932,1745172593448085289
431392,19,-20,5,1500,900,-7926,1745172593448085289
431584,23,-20,5,1506,895,-7956,1745172593448085289
431776,26,-19,4,1494,887,-7954,1745172593448085289
431968,28,-18,2,1494,866,-7945,1745172593448085289
432160,29,-17,1,1500,841,-7962,1745172593448085289
432352,30,-17,0,1493,826,-7963,1745172593448085289
432544,28,-16,0,1506,812,-7949,1745172593448085289
432736,26,-16,0,1504,798,-7941,1745172593448085289
432928,24,-15,-1,1480,802,-7933,1745172593448085289
433120,21,-14,0,1505,808,-7936,1745172593448085289
433312,19,-14,0,1489,813,-7945,1745172593506811940
433504,17,-14,-1,1512,811,-7949,1745172593506811940
433696,14,-13,-2,1506,816,-7944,1745172593506811940
433888,13,-14,-2,1500,826,-7937,1745172593506811940
434080,12,-15,-2,1502,842,-7959,1745172593506811940
434272,10,-15,-2,1505,838,-7963,1745172593506811940
434464,8,-14,-3,1492,842,-7940,1745172593506811940
434656,7,-15,-3,1476,838,-7947,1745172593506811940
434848,5,-13,-3,1468,829,-7941,1745172593506811940
435040,3,-12,-3,1481,818,-7931,1745172593506811940
435232,2,-12,-3,1491,825,-7936,1745172593506811940
435424,1,-12,-3,1493,817,-7922,1745172593506811940
435616,1,-11,-3,1487,835,-7918,1745172593565294218
435808,0,-11,-4,1489,816,-7949,1745172593565294218
436000,0,-13,-2,1486,824,-7961,1745172593565294218
436192,0,-12,-2,1476,842,-7948,1745172593565294218
436384,0,-13,-3,1486,848,-7959,1745172593565294218
436576,1,-13,-2,1495,848,-7941,1745172593565294218
436768,4,-15,-2,1487,872,-7936,1745172593565294218
436960,6,-17,-1,1494,859,-7928,1745172593565294218
437152,9,-20,-1,1506,872,-7919,1745172593565294218
437344,13,-23,-1,1472,880,-7917,1745172593565294218
437536,17,-24,-1,1478,886,-7931,1745172593565294218
437728,22,-24,-1,1453,876,-7946,1745172593565294218
437920,25,-24,-1,1447,879,-7960,1745172593624707426
438112,28,-22,-1,1445,880,-7956,1745172593624707426
438304,30,-20,0,1450,870,-7971,1745172593624707426
438496,32,-19,0,1464,842,-7979,1745172593624707426
438688,32,-17,2,1475,830,-7975,1745172593624707426
438880,31,-18,3,1497,810,-7976,1745172593624707426
439072,29,-20,3,1496,774,-7959,1745172593624707426
439264,24,-23,1,1510,756,-7956,1745172593624707426
439456,20,-26,0,1502,739,-7942,1745172593624707426
439648,15,-29,0,1498,732,-7941,1745172593624707426
439840,9,-30,-2,1494,736,-7941,1745172593624707426
440032,5,-32,-3,1493,751,-7941,1745172593624707426
440224,3,-34,-4,1484,774,-7932,1745172593679943796
440416,3,-34,-4,1471,809,-7932,1745172593679943796
440608,4,-34,-4,1461,845,-7948,1745172593679943796
440800,7,-34,-4,1453,885,-7952,1745172593679943796
440992,12,-34,-3,1433,898,-7958,1745172593679943796
441184,17,-34,-3,1449,906,-7968,1745172593679943796
441376,23,-35,-3,1447,889,-7972,1745172593679943796
441568,27,-35,-3,1437,850,-7973,1745172593679943796
441760,30,-34,-2,1449,808,-7971,1745172593679943796
441952,30,-34,-2,1438,769,-7967,1745172593679943796
442144,27,-34,-2,1438,748,-7961,1745172593679943796
442336,25,-34,-3,1429,719,-7936,1745172593679943796
442528,20,-33,-3,1434,707,-7942,1745172593745987568
442720,14,-32,-3,1437,724,-7954,1745172593745987568
442912,9,-31,-3,1417,743,-7976,1745172593745987568
443104,5,-30,-4,1417,764,-7966,1745172593745987568
443296,4,-29,-5,1430,802,-7967,1745172593745987568
443488,2,-29,-4,1428,810,-7969,1745172593745987568
443680,2,-29,-5,1440,815,-7978,1745172593745987568
443872,4,-30,-5,1439,812,-7979,1745172593745987568
444064,4,-31,-5,1433,831,-7977,1745172593745987568
444256,6,-32,-4,1422,817,-7972,1745172593745987568
444448,7,-33,-4,1414,796,-7967,1745172593745987568
444640,8,-32,-5,1405,786,-7957,1745172593745987568
444832,8,-31,-5,1403,781,-7954,1745172593796881165
445024,7,-29,-4,1404,758,-7964,1745172593796881165
445216,6,-27,-4,1386,744,-7962,1745172593796881165
445408,4,-26,-4,1389,744,-7966,1745172593796881165
445600,0,-25,-4,1389,731,-7973,1745172593796881165
445792,-2,-22,-4,1398,728,-7980,1745172593796881165
445984,-7,-21,-3,1390,737,-7972,1745172593796881165
446176,-11,-19,-3,1383,743,-7956,1745172593796881165
446368,-15,-17,-3,1373,735,-7957,1745172593796881165
446560,-18,-14,-3,1388,743,-7971,1745172593796881165
446752,-21,-12,-4,1381,752,-7981,1745172593796881165
446944,-22,-10,-3,1377,780,-7971,1745172593796881165
447136,-24,-8,-3,1393,782,-7968,1745172593858586904
447328,-25,-7,-1,1374,795,-7988,1745172593858586904
447520,-24,-6,-1,1391,817,-7984,1745172593858586904
447712,-24,-5,-2,1379,816,-7982,1745172593858586904
447904,-23,-4,-1,1395,815,-7987,1745172593858586904
448096,-21,-3,-1,1370,801,-7986,1745172593858586904
448288,-20,-1,-1,1407,806,-7978,1745172593858586904
448480,-20,1,0,1407,797,-7998,1745172593858586904
448672,-20,1,-1,1414,802,-7989,1745172593858586904
448864,-20,1,-1,1396,786,-7978,1745172593858586904
449056,-21,1,-1,1406,768,-7981,1745172593858586904
449248,-22,1,-1,1425,789,-7975,1745172593858586904
449440,-24,1,-2,1409,786,-7979,1745172593917365898
449632,-24,1,-2,1389,803,-7968,1745172593917365898
449824,-25,2,-2,1379,804,-7949,1745172593917365898
450016,-24,4,-2,1375,821,-7965,1745172593917365898
450208,-22,6,-2,1376,831,-7952,1745172593917365898
450400,-21,7,-1,1387,837,-7960,1745172593917365898
450592,-20,8,-1,1391,837,-7976,1745172593917365898
450784,-19,9,-1,1376,822,-7976,1745172593917365898
450976,-18,11,-2,1380,806,-7981,1745172593917365898
451168,-19,12,-2,1371,795,-7974,1745172593917365898
451360,-20,13,-1,1377,782,-7984,1745172593917365898
451552,-24,15,-1,1372,757,-7978,1745172593917365898
451744,-28,17,-1,1375,738,-7974,1745172593977688003
451936,-33,19,-1,1379,743,-7963,1745172593977688003
452128,-38,20,-1,1385,724,-7957,1745172593977688003
452320,-42,22,-1,1388,736,-7969,1745172593977688003
452512,-46,23,-1,1391,766,-7957,1745172593977688003
452704,-50,25,-2,1395,788,-7960,1745172593977688003
452896,-51,26,-1,1381,806,-7967,1745172593977688003
453088,-51,28,-1,1386,837,-7961,1745172593977688003
453280,-49,30,-1,1403,859,-7966,1745172593977688003
453472,-47,31,1,1412,900,-7976,1745172593977688003
453664,-42,30,0,1419,907,-7975,1745172593977688003
453856,-39,31,-1,1422,901,-7974,1745172593977688003
454048,-34,29,0,1433,883,-7961,1745172594038727185
454240,-31,28,1,1427,870,-7959,1745172594038727185
454432,-28,26,0,1417,857,-7966,1745172594038727185
454624,-26,26,-1,1420,847,-7959,1745172594038727185
454816,-26,26,-1,1409,863,-7962,1745172594038727185
455008,-25,27,1,1414,876,-7967,1745172594038727185
455200,-24,25,-2,1407,855,-7967,1745172594038727185
455392,-25,27,-3,1410,819,-7949,1745172594038727185
455584,-25,26,-3,1434,837,-7939,1745172594038727185
455776,-25,27,-3,1406,832,-7953,1745172594038727185
455968,-27,27,-3,1408,848,-7976,1745172594038727185
456160,-27,26,-2,1426,853,-7972,1745172594038727185
456352,-26,26,-2,1441,860,-7959,1745172594095472917
456544,-24,25,-3,1440,853,-7955,1745172594095472917
456736,-22,24,-2,1455,880,-7951,1745172594095472917
456928,-20,23,-2,1452,887,-7951,1745172594095472917
457120,-19,22,1,1462,913,-7961,1745172594095472917
457312,-13,18,0,1441,920,-7967,1745172594095472917
457504,-10,18,-2,1454,886,-7950,1745172594095472917
457696,-5,16,-1,1449,877,-7953,1745172594095472917
457888,-3,14,0,1473,883,-7961,1745172594095472917
458080,-1,13,-1,1453,869,-7944,1745172594095472917
458272,-11,10,-3,1442,580,-7839,1745172594095472917
458464,-45,6,-6,1524,261,-7872,1745172594095472917
458656,-68,-1,-2,1442,346,-7823,1745172594149633985
458848,-67,6,6,1395,596,-8160,1745172594149633985
459040,-131,2,-11,1423,380,-7937,1745172594149633985
459232,-157,2,-12,1472,368,-7794,1745172594149633985
459424,-159,-6,7,1462,379,-7806,1745172594149633985
459616,-179,-3,10,1390,683,-7963,1745172594149633985
459808,-192,-2,0,1351,1012,-8017,1745172594149633985
460000,-180,2,3,1375,1267,-8016,1745172594149633985
460192,-165,5,0,1419,1402,-8007,1745172594149633985
460384,-143,5,-5,1462,1413,-7959,1745172594149633985
460576,-116,0,-2,1477,1365,-7912,1745172594149633985
460768,-88,-4,0,1459,1327,-7928,1745172594149633985
460960,-63,-6,-2,1433,1274,-7953,1745172594216689518
461152,-39,-10,-1,1468,1252,-7942,1745172594216689518
461344,-20,-18,0,1520,1210,-7913,1745172594216689518
461536,-4,-28,-1,1552,1132,-7934,1745172594216689518
461728,7,-38,-3,1510,1031,-7951,1745172594216689518
461920,14,-46,-4,1476,963,-7957,1745172594216689518
462112,16,-48,-4,1392,921,-7940,1745172594216689518
462304,17,-45,-3,1347,928,-7940,1745172594216689518
462496,17,-38,-1,1338,931,-7954,1745172594216689518
462688,17,-32,-1,1362,941,-7966,1745172594216689518
462880,15,-27,0,1409,927,-7974,1745172594216689518
463072,12,-26,0,1415,889,-7977,1745172594216689518
463264,5,-27,-1,1426,817,-7964,1745172594265032566
463456,-4,-27,-2,1413,747,-7961,1745172594265032566
463648,-16,-26,-3,1385,733,-7953,1745172594265032566
463840,-30,-22,-4,1331,691,-7955,1745172594265032566
464032,-43,-17,-5,1340,704,-7948,1745172594265032566
464224,-56,-9,-4,1331,748,-7969,1745172594265032566
464416,-64,-3,-4,1376,816,-7982,1745172594265032566
464608,-70,2,-6,1373,886,-7964,1745172594265032566
464800,-69,4,-5,1360,947,-7959,1745172594265032566
464992,-67,6,3,1339,966,-7954,1745172594265032566
465184,-65,13,3,1321,1006,-7982,1745172594265032566
465376,-63,23,1,1295,1017,-7977,1745172594265032566
465568,-58,31,3,1301,1011,-7988,1745172594325222068
465760,-55,41,1,1342,984,-7988,1745172594325222068
465952,-53,47,1,1359,992,-7995,1745172594325222068
466144,-49,51,3,1399,1010,-7968,1745172594325222068
466336,-46,51,3,1440,1040,-7966,1745172594325222068
466528,-41,48,2,1459,1056,-7959,1745172594325222068
466720,-36,44,1,1443,1075,-7972,1745172594325222068
466912,-30,39,1,1432,1061,-7973,1745172594325222068
467104,-26,39,1,1414,1033,-7973,1745172594325222068
467296,-21,39,0,1406,1023,-7962,1745172594325222068
467488,-17,38,2,1426,1029,-7954,1745172594325222068
467680,-13,38,2,1437,1031,-7951,1745172594325222068
467872,-8,36,2,1448,1060,-7953,1745172594386488800
468064,-5,34,2,1453,1024,-7947,1745172594386488800
468256,-3,31,1,1454,966,-7951,1745172594386488800
468448,-3,29,1,1446,916,-7950,1745172594386488800
468640,-4,27,1,1434,887,-7939,1745172594386488800
468832,-9,27,1,1429,870,-7953,1745172594386488800
469024,-14,27,1,1443,877,-7954,1745172594386488800
469216,-18,26,0,1454,885,-7950,1745172594386488800
469408,-21,24,0,1484,911,-7944,1745172594386488800
469600,-23,22,0,1458,942,-7940,1745172594386488800
469792,-24,20,0,1439,971,-7935,1745172594386488800
469984,-24,20,-1,1422,974,-7951,1745172594386488800
470176,-23,19,0,1452,972,-7948,1745172594447974540
470368,-23,19,0,1457,984,-7934,1745172594447974540
470560,-21,19,0,1426,1003,-7939,1745172594447974540
470752,-19,21,-1,1382,1005,-7955,1745172594447974540
470944,-17,24,-1,1400,988,-7940,1745172594447974540
471136,-16,27,0,1402,984,-7936,1745172594447974540
471328,-17,30,0,1435,981,-7933,1745172594447974540
471520,-18,30,1,1457,950,-7945,1745172594447974540
471712,-20,30,1,1467,938,-7937,1745172594447974540
471904,-23,27,0,1469,923,-7936,1745172594447974540
472096,-28,25,0,1466,940,-7933,1745172594447974540
472288,-32,22,-1,1447,945,-7923,1745172594447974540
472480,-35,20,-1,1452,949,-7885,1745172594500194011
472672,-37,19,-1,1467,940,-7929,1745172594500194011
472864,-40,16,-1,1491,919,-7976,1745172594500194011
473056,-44,12,-2,1526,949,-7922,1745172594500194011
473248,-46,4,-2,1562,961,-7868,1745172594500194011
473440,-46,-4,-2,1512,963,-7886,1745172594500194011
473632,-46,-11,-5,1499,915,-7910,1745172594500194011
473824,-50,-15,-7,1453,878,-7935,1745172594500194011
474016,-57,-16,-5,1448,868,-7941,1745172594500194011
474208,-62,-18,-6,1461,872,-7930,1745172594500194011
474400,-64,-20,-3,1418,832,-7864,1745172594500194011
474592,-64,-19,5,1377,883,-7872,1745172594500194011
474784,-72,-14,1,1329,988,-7885,1745172594560113099
474976,-76,-6,-2,1330,1068,-7919,1745172594560113099
475168,-70,-1,2,1379,1164,-7927,1745172594560113099
475360,-62,3,2,1398,1268,-7865,1745172594560113099
475552,-47,3,3,1404,1382,-7829,1745172594560113099
475744,-25,2,5,1431,1498,-7846,1745172594560113099
475936,6,-6,8,1517,1474,-7913,1745172594560113099
476128,27,-15,9,1564,1339,-7967,1745172594560113099
476320,41,-27,7,1569,1199,-7956,1745172594560113099
476512,52,-37,8,1519,1106,-7941,1745172594560113099
476704,60,-44,10,1476,1058,-7933,1745172594560113099
476896,64,-48,8,1417,1098,-7869,1745172594560113099
478240,154,-126,11,1570,1065,-8018,1745172599815463581
681952,-152,-92,27,1531,1373,-8011,1745172599815463581
682144,-163,-74,28,1690,509,-7628,1745172599815463581
682336,-204,-95,4,1659,1106,-8043,1745172599815463581
682528,-151,-101,22,1754,1209,-7983,1745172599815463581
682720,-133,-121,13,1717,1357,-7999,1745172599815463581
682912,-117,-148,5,1658,1297,-8068,1745172599815463581
683104,-94,-138,4,1584,1209,-8069,1745172599815463581
683296,-60,-151,1,1508,1143,-8120,1745172599815463581
683488,-38,-139,2,1380,1214,-8204,1745172599815463581
683680,1,-108,1,1240,1401,-8274,1745172599815463581
683872,50,-86,-2,1202,1581,-8373,1745172599815463581
684064,91,-47,-4,1250,1579,-8398,1745172599871263645
684256,123,-20,-9,1373,1309,-8313,1745172599871263645
684448,154,2,-7,1337,1180,-8376,1745172599871263645
684640,200,38,0,1252,1208,-8431,1745172599871263645
684832,237,75,9,1197,1267,-8358,1745172599871263645
685024,260,112,12,1092,1292,-8160,1745172599871263645
685216,217,118,-12,752,451,-7703,1745172599871263645
685408,271,222,8,1360,1632,-8395,1745172599871263645
685600,355,163,34,1539,1296,-7600,1745172599871263645
685792,271,246,-7,1159,1074,-7602,1745172599871263645
685984,306,241,0,1344,935,-7731,1745172599871263645
686176,334,246,25,1656,770,-7608,1745172599871263645
686368,310,231,19,1867,492,-7322,1745172599931189347
686560,255,191,8,1672,-256,-7218,1745172599931189347
686752,134,276,-2,483,-1432,-7265,1745172599931189347
686944,48,277,24,1578,-1427,-8016,1745172599931189347
687136,-19,270,51,2382,-840,-8015,1745172599931189347
687328,-125,217,28,2526,-107,-7713,1745172599931189347
687520,-181,137,2,2385,523,-7730,1745172599931189347
687712,-187,62,-4,2169,1010,-7924,1745172599931189347
687904,-179,11,-16,1884,1290,-8014,1745172599931189347
688096,-156,-13,-24,1684,1365,-8038,1745172599931189347
688288,-129,-22,-20,1606,1313,-7982,1745172599931189347
688480,-99,-16,-15,1561,1209,-7939,1745172599931189347
688672,-72,-5,-7,1564,1124,-7903,1745172599989651261
688864,-49,1,-1,1609,1085,-7882,1745172599989651261
689056,-27,5,-1,1657,1049,-7860,1745172599989651261
689248,-8,2,-1,1714,1023,-7866,1745172599989651261
689440,10,-6,-3,1756,983,-7888,1745172599989651261
689632,23,-18,-5,1780,914,-7916,1745172599989651261
689824,30,-30,-7,1758,824,-7941,1745172599989651261
690016,33,-41,-8,1706,746,-7937,1745172599989651261
690208,30,-47,-10,1647,670,-7909,1745172599989651261
690400,23,-47,-10,1599,626,-7885,1745172599989651261
690592,14,-46,-11,1584,602,-7897,1745172599989651261
690784,2,-42,-11,1585,571,-7909,1745172599989651261
690976,-10,-40,-11,1603,588,-7907,1745172600057812878
691168,-21,-37,-13,1594,610,-7920,1745172600057812878
691360,-31,-36,-14,1609,636,-7925,1745172600057812878
691552,-40,-35,-14,1596,640,-7928,1745172600057812878
691744,-48,-34,-13,1584,646,-7907,1745172600057812878
691936,-55,-33,-15,1577,649,-7895,1745172600057812878
692128,-62,-31,-16,1559,680,-7901,1745172600057812878
692320,-68,-27,-16,1565,673,-7916,1745172600057812878
692512,-73,-22,-16,1536,722,-7921,1745172600057812878
692704,-77,-15,-15,1533,773,-7923,1745172600057812878
692896,-79,-9,-14,1541,801,-7915,1745172600057812878
693088,-79,-4,-13,1574,860,-7916,1745172600057812878
693280,-75,-2,-12,1596,883,-7924,1745172600104849219
693472,-70,-1,-12,1640,906,-7919,1745172600104849219
693664,-63,-3,-10,1674,922,-7924,1745172600104849219
693856,-57,-8,-10,1653,919,-7921,1745172600104849219
694048,-51,-13,-11,1680,931,-7914,1745172600104849219
694240,-44,-18,-11,1660,903,-7927,1745172600104849219
694432,-40,-23,-12,1653,882,-7922,1745172600104849219
694624,-37,-27,-12,1617,875,-7926,1745172600104849219
694816,-34,-28,-13,1595,856,-7931,1745172600104849219
695008,-32,-27,-12,1566,823,-7932,1745172600104849219
695200,-32,-24,-12,1578,817,-7926,1745172600104849219
695392,-33,-21,-11,1558,799,-7910,1745172600104849219
695584,-37,-16,-11,1552,755,-7929,1745172600165129241
695776,-42,-13,-10,1563,732,-7974,1745172600165129241
695968,-51,-11,-10,1567,708,-7963,1745172600165129241
696160,-61,-8,-11,1571,718,-7886,1745172600165129241
696352,-67,-5,-11,1572,723,-7889,1745172600165129241
696544,-74,-2,-11,1583,726,-7947,1745172600165129241
696736,-82,-2,-11,1607,758,-7963,1745172600165129241
696928,-88,-1,-14,1611,799,-7914,1745172600165129241
697120,-90,-3,-15,1619,859,-7901,1745172600165129241
697312,-90,-6,-14,1644,880,-7918,1745172600165129241
697504,-88,-11,-14,1657,930,-7906,1745172600165129241
697696,-82,-16,-13,1644,950,-7897,1745172600165129241
697888,-76,-19,-14,1627,1013,-7931,1745172600237668110
698080,-67,-24,-14,1614,1049,-7932,1745172600237668110
698272,-55,-27,-14,1601,1087,-7912,1745172600237668110
698464,-42,-29,-14,1583,1072,-7912,1745172600237668110
698656,-30,-30,-12,1574,1040,-7943,1745172600237668110
698848,-19,-30,-11,1547,1018,-7942,1745172600237668110
699040,-13,-28,-9,1529,966,-7922,1745172600237668110
699232,-8,-25,-8,1506,906,-7923,1745172600237668110
699424,-7,-21,-7,1514,845,-7925,1745172600237668110
699616,-12,-17,-5,1536,787,-7926,1745172600237668110
699808,-18,-13,-4,1534,769,-7962,1745172600237668110
700000,-25,-11,-6,1544,741,-7933,1745172600237668110
700192,-34,-8,-6,1560,733,-7911,1745172600280219544
700384,-42,-7,-6,1564,743,-7883,1745172600280219544
700576,-52,-7,-6,1599,774,-7906,1745172600280219544
700768,-59,-10,-7,1614,826,-7909,1745172600280219544
700960,-64,-14,-7,1636,872,-7922,1745172600280219544
701152,-65,-20,-8,1655,909,-7918,1745172600280219544
701344,-65,-26,-9,1626,962,-7903,1745172600280219544
701536,-59,-30,-9,1598,1016,-7895,1745172600280219544
701728,-50,-32,-9,1581,1053,-7907,1745172600280219544
701920,-40,-34,-9,1581,1092,-7924,1745172600280219544
702112,-28,-35,-7,1590,1135,-7930,1745172600280219544
702304,-13,-37,-6,1578,1149,-7922,1745172600280219544
702496,3,-41,-6,1577,1150,-7940,1745172600340740450
702688,18,-44,-5,1584,1121,-7947,1745172600340740450
702880,31,-48,-4,1567,1065,-7930,1745172600340740450
703072,41,-51,-4,1546,1002,-7919,1745172600340740450
703264,49,-54,-4,1542,959,-7924,1745172600340740450
703456,53,-53,-4,1520,921,-7940,1745172600340740450
703648,55,-51,-3,1513,887,-7964,1745172600340740450
703840,56,-50,-3,1511,854,-7958,1745172600340740450
704032,53,-47,-1,1509,844,-7941,1745172600340740450
704224,52,-44,-1,1483,848,-7908,1745172600340740450
704416,50,-43,0,1493,839,-7914,1745172600340740450
704608,46,-42,0,1519,824,-7948,1745172600340740450
704992,39,-44,-2,1522,835,-7938,1745172600404390233
705184,35,-44,-2,1532,823,-7936,1745172600404390233
705376,33,-43,-2,1510,828,-7940,1745172600404390233
705568,30,-41,-2,1490,825,-7939,1745172600404390233
705760,27,-39,-2,1484,845,-7932,1745172600404390233
705952,25,-36,-2,1492,859,-7938,1745172600404390233
706144,23,-34,-1,1489,866,-7944,1745172600404390233
706336,24,-32,-1,1498,868,-7933,1745172600404390233
706528,26,-30,0,1484,896,-7940,1745172600404390233
706720,27,-31,0,1502,896,-7948,1745172600404390233
706912,29,-30,0,1505,889,-7955,1745172600404390233
707104,32,-30,0,1512,896,-7942,1745172600404390233
707296,35,-30,-1,3027,-1,-1,1745172600473332415
707488,38,-29,0,1486,922,-7955,1745172600473332415
707680,41,-28,0,1486,896,-7952,1745172600473332415
707872,45,-27,2,1483,882,-7959,1745172600473332415
708064,46,-27,1,1489,868,-7944,1745172600473332415
708256,44,-27,-1,1487,818,-7939,1745172600473332415
708448,43,-27,-1,1477,770,-7957,1745172600473332415
708640,38,-25,-2,1472,736,-7957,1745172600473332415
708832,30,-24,-3,1458,692,-7939,1745172600473332415
709024,20,-21,-3,1453,667,-7949,1745172600473332415
709216,10,-18,-3,1450,661,-7956,1745172600473332415
709408,-1,-16,-4,1454,670,-7948,1745172600473332415
709600,-12,-12,-4,1441,689,-7952,1745172600518893301
709792,-20,-9,-4,1444,713,-7943,1745172600518893301
709984,-27,-5,-4,1447,767,-7952,1745172600518893301
710176,-32,-3,-5,1462,785,-7958,1745172600518893301
710368,-35,-1,-5,1456,838,-7950,1745172600518893301
710560,-36,2,-4,1467,862,-7950,1745172600518893301
710752,-35,3,-4,1468,861,-7965,1745172600518893301
710944,-33,3,-4,1467,879,-7964,1745172600518893301
711136,-32,3,-4,1465,885,-7960,1745172600518893301
711328,-29,5,-4,1466,871,-7958,1745172600518893301
711520,-27,7,-2,1450,877,-7946,1745172600518893301
711712,-24,9,-2,1455,898,-7942,1745172600518893301
711904,-22,11,-2,1457,882,-7950,1745172600579011346
712096,-19,13,-2,1455,881,-7955,1745172600579011346
712288,-16,15,-1,1456,868,-7941,1745172600579011346
712480,-15,16,-1,1475,860,-7953,1745172600579011346
712672,-15,18,-1,1463,835,-7984,1745172600579011346
712864,-16,20,-1,1469,825,-7962,1745172600579011346
713056,-18,20,-1,1473,830,-7933,1745172600579011346
713248,-20,21,0,1467,819,-7955,1745172600579011346
713440,-21,22,0,1481,797,-7968,1745172600579011346
713632,-25,23,0,1482,809,-7954,1745172600579011346
713824,-29,24,0,1483,820,-7922,1745172600579011346
714016,-31,24,0,1472,828,-7914,1745172600579011346
714208,-31,25,0,1482,855,-7932,1745172600643757421
714400,-31,26,-1,1478,897,-7930,1745172600643757421
714592,-29,26,0,1493,928,-7951,1745172600643757421
714784,-26,27,0,1493,947,-7962,1745172600643757421
714976,-23,27,1,1502,942,-7951,1745172600643757421
715168,-19,25,1,1516,941,-7939,1745172600643757421
715360,-14,23,1,1511,926,-7943,1745172600643757421
715552,-11,22,1,1517,902,-7960,1745172600643757421
715744,-8,21,2,1519,893,-7935,1745172600643757421
715936,-6,20,2,1496,882,-7930,1745172600643757421
716128,-4,20,2,1482,869,-7932,1745172600643757421
716320,-4,21,1,1484,854,-7934,1745172600643757421
716512,-3,22,2,1489,860,-7941,1745172600695860383
716704,-4,23,2,1501,848,-7936,1745172600695860383
716896,-3,23,2,1510,854,-7948,1745172600695860383
717088,-4,22,2,1510,865,-7948,1745172600695860383
717280,-3,21,1,1511,869,-7934,1745172600695860383
717472,-3,19,2,1522,855,-7934,1745172600695860383
717664,-4,18,2,1512,846,-7933,1745172600695860383
717856,-4,17,2,1511,850,-7936,1745172600695860383
718048,-6,16,2,1506,842,-7930,1745172600695860383
718240,-8,15,1,1502,846,-7938,1745172600695860383
718432,-11,13,0,1522,828,-7938,1745172600695860383
718624,-13,14,1,1503,835,-7937,1745172600695860383
718816,-15,14,1,1493,838,-7936,1745172600752625541
719008,-17,15,0,1480,841,-7935,1745172600752625541
719200,-20,16,0,1501,830,-7926,1745172600752625541
719392,-23,17,0,1514,836,-7928,1745172600752625541
719584,-25,14,0,1525,848,-7924,1745172600752625541
719776,-26,14,1,1537,857,-7921,1745172600752625541
719968,-26,12,0,1526,863,-7923,1745172600752625541
720160,-24,11,0,1526,892,-7929,1745172600752625541
720352,-22,11,0,1536,908,-7941,1745172600752625541
720544,-19,9,-1,1525,941,-7932,1745172600752625541
720736,-13,8,0,1522,961,-7931,1745172600752625541
720928,-7,6,1,1518,964,-7941,1745172600752625541
721120,0,4,1,1521,966,-7937,1745172600813226758
721312,6,3,1,1528,952,-7935,1745172600813226758
721504,11,2,2,1515,915,-7952,1745172600813226758
721696,14,2,3,1503,894,-7934,1745172600813226758
721888,16,2,2,1508,856,-7929,1745172600813226758
722080,17,3,3,1491,831,-7935,1745172600813226758
722272,16,4,3,1490,804,-7940,1745172600813226758
722464,13,5,3,1486,785,-7936,1745172600813226758
722656,8,7,2,1493,787,-7925,1745172600813226758
722848,4,8,3,1487,796,-7934,1745172600813226758
723040,0,9,3,1490,807,-7943,1745172600813226758
723232,-3,10,2,1502,821,-7932,1745172600813226758
723424,-6,11,3,1505,845,-7934,1745172600873602769
723616,-8,12,3,1514,857,-7941,1745172600873602769
723808,-9,13,2,1508,878,-7958,1745172600873602769
724000,-9,12,3,1517,882,-7958,1745172600873602769
724192,-8,12,2,1522,889,-7927,1745172600873602769
724384,-6,12,3,1508,883,-7916,1745172600873602769
724576,-4,12,3,1514,892,-7939,1745172600873602769
724768,-2,12,2,1514,889,-7958,1745172600873602769
724960,-1,12,2,1532,889,-7945,1745172600873602769
725152,1,11,2,1536,886,-7926,1745172600873602769
725344,4,10,3,1520,884,-7928,1745172600873602769
725536,6,7,3,1548,869,-7990,1745172600873602769
725728,2,5,2,1552,837,-7961,1745172600928555184
725920,1,3,1,1518,810,-7903,1745172600928555184
726112,-1,4,1,1486,803,-7896,1745172600928555184
726304,-2,6,1,1496,814,-7923,1745172600928555184
726496,-3,7,1,1499,856,-7939,1745172600928555184
726688,-2,9,2,1521,885,-7941,1745172600928555184
726880,0,10,1,1521,909,-7945,1745172600928555184
727072,3,9,1,1530,926,-7946,1745172600928555184
727264,6,10,2,1545,915,-7950,1745172600928555184
727456,9,7,2,1537,897,-7956,1745172600928555184
727648,11,6,2,1544,871,-7943,1745172600928555184
727840,12,5,2,1527,841,-7945,1745172600928555184
728032,11,4,1,1504,837,-7940,1745172600995631134
728224,9,6,2,1496,817,-7929,1745172600995631134
728416,7,7,1,1501,816,-7931,1745172600995631134
728608,4,8,1,1509,796,-7946,1745172600995631134
728800,2,9,1,1523,805,-7958,1745172600995631134
728992,-2,10,1,1524,809,-7943,1745172600995631134
729184,-4,9,0,1514,821,-7934,1745172600995631134
729376,-5,8,1,1523,833,-7931,1745172600995631134
729568,-6,9,0,1506,840,-7931,1745172600995631134
729760,-6,9,1,1501,853,-7944,1745172600995631134
729952,-5,11,1,1496,851,-7940,1745172600995631134
730144,-5,13,1,1498,863,-7936,1745172600995631134
730336,-3,15,1,1511,879,-7942,1745172601051926140
730528,-1,15,2,1521,889,-7945,1745172601051926140
730720,1,16,2,1536,896,-7938,1745172601051926140
730912,3,15,2,1537,876,-7949,1745172601051926140
731104,4,13,1,1542,857,-7938,1745172601051926140
731296,4,12,1,1538,840,-7937,1745172601051926140
731488,3,10,1,1541,825,-7927,1745172601051926140
731680,1,9,1,1532,825,-7921,1745172601051926140
731872,1,8,0,1514,830,-7927,1745172601051926140
732064,0,9,0,1512,827,-7937,1745172601051926140
732256,-2,9,0,1503,826,-7935,1745172601051926140
732448,-3,11,-1,1502,843,-7939,1745172601051926140
732640,-4,13,0,1509,841,-7952,1745172601101185378
732832,-5,15,0,1532,833,-7962,1745172601101185378
733024,-5,16,0,1526,827,-7938,1745172601101185378
733216,-7,15,0,1509,819,-7924,1745172601101185378
733408,-8,16,0,1503,809,-7936,1745172601101185378
733600,-11,17,0,1507,807,-7931,1745172601101185378
733792,-13,19,0,1507,795,-7942,1745172601101185378
733984,-16,21,-1,1508,789,-7941,1745172601101185378
734176,-19,22,0,1515,787,-7938,1745172601101185378
734368,-22,24,0,1519,811,-7933,1745172601101185378
734560,-23,25,0,1513,844,-7942,1745172601101185378
734752,-21,25,1,1548,866,-7949,1745172601101185378
734944,-22,23,0,1542,874,-7925,1745172601168945280
735136,-21,22,0,1563,875,-7919,1745172601168945280
735328,-18,21,0,1542,882,-7934,1745172601168945280
735520,-16,20,0,1527,882,-7932,1745172601168945280
735712,-13,20,0,1523,892,-7944,1745172601168945280
735904,-10,21,0,1525,895,-7936,1745172601168945280
736096,-8,21,0,1539,888,-7952,1745172601168945280
736288,-6,23,1,1539,878,-7949,1745172601168945280
736480,-4,24,1,1540,870,-7947,1745172601168945280
736672,-2,22,1,1537,866,-7932,1745172601168945280
736864,-1,24,1,1543,855,-7938,1745172601168945280
737056,-1,25,1,1536,850,-7941,1745172601168945280
737248,-1,26,2,1533,831,-7938,1745172601227398288
737440,-3,26,2,1537,828,-7952,1745172601227398288
737632,-6,29,1,1544,820,-7946,1745172601227398288
737824,-8,30,1,1536,808,-7959,1745172601227398288
738016,-12,32,1,1526,803,-7983,1745172601227398288
738208,-16,33,1,1539,799,-7970,1745172601227398288
738400,-21,34,1,1549,775,-7951,1745172601227398288
738592,-26,36,1,1545,763,-7936,1745172601227398288
738784,-32,36,1,1537,752,-7941,1745172601227398288
738976,-39,38,1,1529,753,-7959,1745172601227398288
739168,-46,41,0,1514,733,-7975,1745172601227398288
739360,-57,46,0,1477,750,-8016,1745172601227398288
739552,-66,55,1,1451,743,-8033,1745172601282910020
739744,-77,67,1,1432,739,-8064,1745172601282910020
739936,-90,82,2,1419,738,-8088,1745172601282910020
740128,-105,99,3,1408,709,-8123,1745172601282910020
740320,-123,118,3,1396,670,-8188,1745172601282910020
740512,-149,140,4,1355,568,-8324,1745172601282910020
740704,-188,170,2,1294,411,-8530,1745172601282910020
740896,-244,212,1,1205,235,-8773,1745172601282910020
741088,-315,265,-2,1093,123,-8962,1745172601282910020
741280,-390,330,-6,996,91,-9181,1745172601282910020
741472,-473,402,-16,889,64,-9500,1745172601282910020
741664,-557,507,-11,800,56,-9812,1745172601282910020
741856,-613,632,-24,673,236,-10017,1745172601349563734
742048,-677,705,-141,805,220,-9453,1745172601349563734
742240,-656,666,-310,856,-214,-9068,1745172601349563734
742432,-453,550,-425,1490,-837,-10061,1745172601349563734
742624,-313,483,-456,2422,-1479,-11439,1745172601349563734
742816,-297,421,-398,3289,-2122,-12532,1745172601349563734
743008,-325,351,-297,3987,-2321,-13993,1745172601349563734
743200,-444,265,-295,4067,-2011,-15646,1745172601349563734
743392,-593,307,-405,4060,-1612,-16429,1745172601349563734
743584,-497,459,-528,4445,-1021,-16846,1745172601349563734
743776,-88,441,-530,4733,-223,-17242,1745172601349563734
743968,312,333,-520,4823,458,-17228,1745172601349563734
744160,667,380,-461,5423,794,-17714,1745172601401548572
744352,708,393,-327,6037,884,-17907,1745172601401548572
744544,684,311,-189,6436,904,-17836,1745172601401548572
744736,744,157,-42,6821,745,-18280,1745172601401548572
744928,936,-64,136,7140,660,-18518,1745172601401548572
745120,1322,-332,340,7593,540,-19067,1745172601401548572
745312,1739,-708,556,8220,-201,-18257,1745172601401548572
745504,2115,-1145,710,8970,-1423,-18468,1745172601401548572
745696,2376,-1578,767,8931,-2291,-18872,1745172601401548572
745888,2450,-1909,753,7914,-2695,-19006,1745172601401548572
746080,2399,-2149,716,6770,-2951,-19031,1745172601401548572
746272,2304,-2343,695,5879,-3124,-19093,1745172601401548572
746464,2174,-2490,732,5114,-3307,-19068,1745172601465510435
746656,2001,-2600,822,4507,-3384,-18864,1745172601465510435
746848,1791,-2671,940,4054,-3313,-18642,1745172601465510435
747040,1566,-2706,1066,3852,-3045,-18249,1745172601465510435
747232,1354,-2724,1178,3850,-2641,-17803,1745172601465510435
747424,1177,-2749,1266,4085,-2062,-17192,1745172601465510435
747616,1054,-2785,1322,4337,-1295,-16571,1745172601465510435
747808,994,-2843,1354,4641,-377,-15942,1745172601465510435
748000,988,-2921,1365,4858,588,-15359,1745172601465510435
748192,1023,-3018,1354,4983,1518,-14804,1745172601465510435
748384,1093,-3127,1336,4907,2415,-14181,1745172601465510435
748576,1190,-3242,1321,4820,3098,-13512,1745172601465510435
748768,1311,-3362,1314,4700,3638,-12838,1745172601519847543
748960,1443,-3475,1320,4533,4006,-12198,1745172601519847543
749152,1581,-3568,1334,4301,4249,-11704,1745172601519847543
749344,1721,-3643,1342,3979,4421,-11234,1745172601519847543
749536,1856,-3698,1341,3617,4518,-10670,1745172601519847543
749728,1986,-3736,1330,3238,4551,-10102,1745172601519847543
749920,2108,-3757,1308,2868,4555,-9638,1745172601519847543
750112,2221,-3758,1282,2550,4559,-9193,1745172601519847543
750304,2324,-3747,1255,2328,4624,-8780,1745172601519847543
750496,2415,-3720,1228,2141,4682,-8464,1745172601519847543
750688,2493,-3689,1203,2021,4737,-8148,1745172601519847543
750880,2565,-3654,1179,1906,4807,-7791,1745172601519847543
751072,2632,-3622,1159,1831,4824,-7449,1745172601590659709
751264,2700,-3593,1143,1759,4795,-7070,1745172601590659709
751456,2767,-3563,1135,1630,4692,-6659,1745172601590659709
751648,2828,-3538,1135,1504,4457,-6257,1745172601590659709
751840,2881,-3510,1137,1330,4163,-5865,1745172601590659709
752032,2920,-3476,1144,1106,3852,-5491,1745172601590659709
752224,2946,-3434,1150,880,3476,-5062,1745172601590659709
752416,2955,-3395,1151,689,3157,-4642,1745172601590659709
752608,2959,-3350,1148,407,2921,-4279,1745172601590659709
752800,2958,-3287,1156,212,2704,-3823,1745172601590659709
752992,2948,-3239,1174,103,2459,-3488,1745172601590659709
753184,2927,-3181,1188,1,2246,-3296,1745172601590659709
753376,2884,-3136,1194,-19,1965,-2997,1745172601638721822
753568,2819,-3092,1191,-67,1716,-2795,1745172601638721822
753760,2730,-3049,1188,-101,1512,-2606,1745172601638721822
753952,2624,-3012,1186,-173,1354,-2365,1745172601638721822
754144,2505,-2978,1186,-267,1213,-2151,1745172601638721822
754336,2382,-2948,1186,-390,1087,-2055,1745172601638721822
754528,2254,-2919,1181,-556,993,-1917,1745172601638721822
754720,2123,-2893,1167,-702,898,-1747,1745172601638721822
754912,1987,-2866,1144,-884,822,-1667,1745172601638721822
755104,1851,-2836,1117,-1076,726,-1680,1745172601638721822
755296,1722,-2799,1086,-1245,636,-1709,1745172601638721822
755488,1606,-2760,1054,-1386,566,-1669,1745172601638721822
755680,1502,-2718,1022,-1541,555,-1616,1745172601711161056
755872,1408,-2668,992,-1687,579,-1487,1745172601711161056
756064,1338,-2618,966,-1819,602,-1523,1745172601711161056
756256,1293,-2582,938,-1883,658,-1134,1745172601711161056
756448,1262,-2556,900,-1994,692,-890,1745172601711161056
756640,1214,-2534,862,-2083,671,-570,1745172601711161056
756832,1154,-2511,829,-2268,600,-174,1745172601711161056
757024,1092,-2487,803,-2450,538,167,1745172601711161056
757216,1050,-2469,760,-2718,483,475,1745172601711161056
757408,998,-2439,701,-2998,389,754,1745172601711161056
757600,917,-2403,626,-3305,240,988,1745172601711161056
757792,813,-2371,548,-3612,59,1154,1745172601711161056
757984,684,-2333,471,-3943,-132,1305,1745172601751977870
758176,544,-2280,397,-4317,-358,1347,1745172601751977870
758368,412,-2212,332,-4732,-534,1344,1745172601751977870
758560,309,-2132,274,-5174,-645,1347,1745172601751977870
758752,240,-2038,220,-5592,-710,1280,1745172601751977870
758944,200,-1933,163,-5958,-776,1195,1745172601751977870
759136,180,-1831,109,-6257,-804,1158,1745172601751977870
759328,176,-1729,55,-6507,-861,1231,1745172601751977870
759520,196,-1618,9,-6666,-957,1313,1745172601751977870
759712,242,-1495,-22,-6754,-1064,1316,1745172601751977870
759904,311,-1357,-39,-6750,-1200,1371,1745172601751977870
760096,421,-1105,21,-6610,-1397,1550,1745172601751977870
760288,516,-864,112,-6392,-1524,1330,1745172601818884186
760480,548,-864,167,-6376,-1605,920,1745172601818884186
760672,567,-913,166,-6450,-1694,927,1745172601818884186
760864,594,-923,110,-6645,-1718,1059,1745172601818884186
761056,633,-890,15,-6833,-1765,1138,1745172601818884186
761248,672,-806,-87,-6957,-1833,1180,1745172601818884186
761440,709,-721,-163,-6936,-1898,1168,1745172601818884186
761632,742,-639,-208,-6848,-2014,1156,1745172601818884186
761824,763,-562,-225,-6637,-2152,1176,1745172601818884186
762016,780,-503,-218,-6396,-2265,1160,1745172601818884186
762208,779,-451,-205,-6168,-2425,1152,1745172601818884186
762400,759,-421,-193,-5970,-2573,1126,1745172601818884186
762592,725,-398,-182,-5898,-2684,1064,1745172601873926496
762784,680,-381,-169,-5884,-2760,1030,1745172601873926496
762976,630,-366,-161,-5918,-2823,1047,1745172601873926496
763168,577,-349,-153,-6013,-2851,1089,1745172601873926496
763360,521,-329,-136,-6090,-2855,1087,1745172601873926496
763552,468,-299,-111,-6194,-2803,1134,1745172601873926496
763744,427,-268,-66,-6281,-2724,1184,1745172601873926496
763936,398,-236,-8,-6316,-2642,1207,1745172601873926496
764128,380,-203,48,-6287,-2555,1228,1745172601873926496
764320,367,-163,92,-6233,-2473,1242,1745172601873926496
764512,354,-122,124,-6152,-2426,1176,1745172601873926496
764704,345,-85,142,-6097,-2392,1141,1745172601873926496
764896,340,-61,150,-6000,-2390,1080,1745172601935368070
765088,337,-36,147,-5957,-2424,961,1745172601935368070
765280,332,-15,135,-5955,-2469,831,1745172601935368070
765472,329,3,118,-5992,-2512,733,1745172601935368070
765664,328,22,102,-6021,-2559,665,1745172601935368070
765856,330,40,87,-6060,-2601,627,1745172601935368070
766048,332,54,65,-6090,-2621,613,1745172601935368070
766240,329,70,35,-6141,-2652,584,1745172601935368070
766432,325,91,3,-6174,-2652,539,1745172601935368070
766624,320,107,-21,-6200,-2641,502,1745172601935368070
766816,318,122,-35,-6206,-2636,464,1745172601935368070
767008,311,131,-42,-6223,-2625,350,1745172601935368070
767200,303,142,-44,-6278,-2625,225,1745172601989668616
767392,299,151,-35,-6324,-2654,121,1745172601989668616
767584,299,157,-27,-6355,-2664,44,1745172601989668616
767776,298,159,-24,-6421,-2660,-45,1745172601989668616
767968,296,164,-22,-6472,-2649,-124,1745172601989668616
768160,292,173,-19,-6507,-2653,-230,1745172601989668616
768352,290,181,-20,-6556,-2671,-278,1745172601989668616
768544,291,184,-21,-6542,-2722,-298,1745172601989668616
768736,295,185,-27,-6563,-2805,-342,1745172601989668616
768928,305,183,-39,-6565,-2903,-383,1745172601989668616
769120,314,178,-56,-6592,-3015,-424,1745172601989668616
769312,315,166,-77,-6658,-3138,-456,1745172601989668616
769504,306,154,-96,-6762,-3273,-478,1745172602046594554
769696,287,140,-113,-6834,-3386,-514,1745172602046594554
769888,257,128,-127,-6906,-3552,-547,1745172602046594554
770080,215,121,-143,-6960,-3687,-573,1745172602046594554
770272,166,115,-152,-6968,-3812,-584,1745172602046594554
770464,112,106,-154,-6933,-3886,-589,1745172602046594554
770656,56,101,-147,-6980,-3918,-550,1745172602046594554
770848,1,104,-135,-7068,-3948,-627,1745172602046594554
771040,-53,85,-126,-6806,-3891,-572,1745172602046594554
771232,-93,60,-91,-7107,-3823,-833,1745172602046594554
771424,-119,109,-32,-7449,-3618,-866,1745172602046594554
771616,-115,91,20,-7421,-3729,-826,1745172602046594554
771808,-110,58,-2,-7376,-4074,-911,1745172602102748520
772000,-137,60,-123,-7631,-4292,-1075,1745172602102748520
772192,-184,87,-231,-7861,-4226,-1161,1745172602102748520
772384,-214,133,-224,-7873,-4042,-1229,1745172602102748520
772576,-226,164,-118,-7732,-3742,-1374,1745172602102748520
772768,-227,161,14,-7479,-3467,-1470,1745172602102748520
772960,-216,137,97,-7259,-3334,-1499,1745172602102748520
773152,-186,117,101,-7190,-3219,-1482,1745172602102748520
773344,-130,124,71,-7236,-3164,-1484,1745172602102748520
773536,-64,132,60,-7343,-3164,-1536,1745172602102748520
773728,-11,126,77,-7454,-3233,-1573,1745172602102748520
773920,25,112,111,-7488,-3367,-1542,1745172602102748520
774112,44,94,132,-7484,-3559,-1508,1745172602163095052
774304,40,83,115,-7452,-3735,-1486,1745172602163095052
774496,20,75,62,-7424,-3890,-1472,1745172602163095052
774688,-16,68,-9,-7403,-3956,-1439,1745172602163095052
774880,-61,54,-75,-7365,-3980,-1450,1745172602163095052
775072,-109,38,-122,-7373,-3977,-1478,1745172602163095052
775264,-143,31,-136,-7459,-3923,-1553,1745172602163095052
775456,-163,22,-113,-7533,-3831,-1666,1745172602163095052
775648,-178,13,-80,-7565,-3720,-1788,1745172602163095052
775840,-185,7,-59,-7639,-3582,-1860,1745172602163095052
776032,-184,12,-60,-7705,-3497,-1836,1745172602163095052
776224,-173,10,-81,-7639,-3306,-1854,1745172602163095052
776416,-154,25,-91,-7543,-3161,-1949,1745172602223845852
776608,-134,39,-92,-7497,-3114,-1919,1745172602223845852
776800,-118,37,-102,-7398,-3140,-1883,1745172602223845852
776992,-101,28,-107,-7361,-3205,-1992,1745172602223845852
777184,-83,30,-99,-7410,-3311,-1988,1745172602223845852
777376,-64,26,-90,-7472,-3463,-1945,1745172602223845852
777568,-65,17,-99,-7600,-3685,-1881,1745172602223845852
777760,-85,23,-124,-7761,-3873,-1799,1745172602223845852
777952,-112,28,-135,-7695,-3923,-1759,1745172602223845852
778144,-140,31,-122,-7696,-4051,-1749,1745172602223845852
778336,-176,41,-111,-7700,-4101,-1697,1745172602223845852
778528,-209,45,-88,-7660,-4041,-1730,1745172602223845852
778720,-235,58,-54,-7493,-3972,-1773,1745172602296041546
778912,-259,68,-47,-7352,-3917,-1777,1745172602296041546
779104,-276,64,-69,-7226,-3844,-1772,1745172602296041546
779296,-281,39,-87,-7171,-3778,-1827,1745172602296041546
779488,-278,24,-87,-7226,-3689,-1844,1745172602296041546
779680,-276,15,-79,-7308,-3630,-1813,1745172602296041546
779872,-271,12,-64,-7397,-3558,-1794,1745172602296041546
780064,-262,14,-45,-7467,-3531,-1801,1745172602296041546
780256,-244,20,-32,-7485,-3523,-1779,1745172602296041546
780448,-219,22,-32,-7514,-3543,-1757,1745172602296041546
780640,-195,26,-39,-7474,-3549,-1741,1745172602296041546
780832,-172,20,-45,-7411,-3577,-1778,1745172602296041546
781024,-161,19,-51,-7374,-3646,-1838,1745172602417039347
781216,-157,15,-52,-7303,-3620,-1871,1745172602417039347
781408,-152,16,-34,-7265,-3627,-1956,1745172602417039347
781600,-147,21,-16,-7151,-3587,-2012,1745172602417039347
781792,-140,14,-7,-6979,-3578,-2076,1745172602417039347
781984,-136,4,-14,-6833,-3602,-2126,1745172602417039347
782176,-134,-10,-34,-6857,-3647,-2138,1745172602417039347
782368,-131,-23,-46,-6937,-3628,-2072,1745172602417039347
782560,-125,-37,-32,-7026,-3576,-2029,1745172602417039347
782752,-123,-32,0,-7096,-3503,-1998,1745172602417039347
782944,-125,-18,24,-7141,-3438,-1935,1745172602417039347
783136,-125,1,27,-7155,-3376,-1892,1745172602417039347
783328,-118,16,25,-7163,-3264,-1869,1745172602429944333
783520,-106,26,33,-7146,-3153,-1846,1745172602429944333
783712,-92,37,47,-7108,-3134,-1851,1745172602429944333
783904,-79,52,53,-7079,-3146,-1818,1745172602429944333
784096,-65,60,46,-7049,-3192,-1825,1745172602429944333
784288,-53,64,33,-6984,-3263,-1846,1745172602429944333
784480,-46,67,16,-6976,-3354,-1852,1745172602429944333
784672,-41,71,-2,-6943,-3434,-1854,1745172602429944333
784864,-43,70,-24,-6872,-3515,-1894,1745172602429944333
785056,-51,61,-54,-6778,-3620,-1959,1745172602429944333
785248,-64,47,-93,-6718,-3670,-1964,1745172602429944333
785440,-78,29,-118,-6711,-3696,-1972,1745172602429944333
785632,-92,19,-122,-6796,-3693,-2010,1745172602450635030
785824,-101,13,-114,-6884,-3651,-2001,1745172602450635030
786016,-109,13,-102,-6968,-3588,-2002,1745172602450635030
786208,-115,23,-97,-7020,-3524,-2018,1745172602450635030
786400,-117,35,-97,-7075,-3436,-2043,1745172602450635030
786592,-112,46,-95,-7102,-3366,-2062,1745172602450635030
786784,-98,53,-85,-7065,-3331,-2085,1745172602450635030
786976,-80,59,-75,-7062,-3293,-2080,1745172602450635030
787168,-59,64,-63,-7035,-3280,-2056,1745172602450635030
787360,-37,68,-53,-6971,-3305,-2024,1745172602450635030
787552,-20,66,-48,-6914,-3364,-2011,1745172602450635030
787744,-5,61,-48,-6867,-3452,-2014,1745172602450635030
787936,7,53,-48,-6846,-3530,-2040,1745172602520402726
788128,16,42,-45,-6862,-3587,-2067,1745172602520402726
788320,17,31,-40,-6868,-3632,-2107,1745172602520402726
788512,13,26,-32,-6863,-3649,-2125,1745172602520402726
788704,9,17,-26,-6865,-3659,-2112,1745172602520402726
788896,9,9,-24,-6897,-3674,-2077,1745172602520402726
789088,12,4,-24,-6943,-3660,-2055,1745172602520402726
789280,17,2,-24,-6922,-3654,-2033,1745172602520402726
789472,22,1,-29,-6900,-3665,-1998,1745172602520402726
789664,24,-5,-41,-6870,-3669,-1959,1745172602520402726
789856,22,-11,-54,-6883,-3675,-1948,1745172602520402726
790048,16,-17,-56,-6948,-3699,-1959,1745172602520402726
790240,6,-22,-49,-6991,-3701,-1961,1745172602574948321
790432,-7,-25,-43,-7036,-3688,-1944,1745172602574948321
790624,-21,-22,-39,-7119,-3706,-1954,1745172602574948321
790816,-35,-12,-34,-7185,-3719,-1949,1745172602574948321
791008,-48,-2,-28,-7171,-3735,-1931,1745172602574948321
791200,-63,8,-26,-7121,-3760,-1927,1745172602574948321
791392,-79,12,-33,-7039,-3805,-1922,1745172602574948321
791584,-95,11,-46,-6969,-3810,-1897,1745172602574948321
791776,-110,5,-56,-6937,-3793,-1874,1745172602574948321
791968,-124,-3,-59,-6941,-3777,-1893,1745172602574948321
792160,-138,-9,-56,-7007,-3757,-1884,1745172602574948321
792352,-145,-12,-48,-7067,-3704,-1891,1745172602574948321
792544,-145,-12,-35,-7134,-3676,-1938,1745172602755842033
792736,-140,-8,-23,-7151,-3617,-1957,1745172602755842033
792928,-132,2,-14,-7162,-3578,-1964,1745172602755842033
793120,-117,9,-11,-7121,-3529,-1942,1745172602755842033
793312,-97,8,-14,-7097,-3534,-1919,1745172602755842033
793504,-73,4,-17,-7089,-3517,-1908,1745172602755842033
793696,-51,5,-11,-7141,-3491,-1917,1745172602755842033
793888,-33,14,5,-7158,-3516,-1909,1745172602755842033
794080,-22,23,16,-7172,-3503,-1913,1745172602755842033
794272,-14,30,18,-7138,-3544,-1932,1745172602755842033
794464,-8,33,12,-7078,-3582,-1953,1745172602755842033
794656,0,35,0,-7037,-3621,-1946,1745172602755842033
794848,5,38,-9,-7037,-3661,-1925,1745172602872650289
795040,4,42,-11,-6998,-3693,-1928,1745172602872650289
795232,-3,49,-9,-6996,-3740,-1960,1745172602872650289
795424,-11,51,-7,-6982,-3774,-1992,1745172602872650289
795616,-15,50,-3,-7002,-3779,-2023,1745172602872650289
795808,-17,48,1,-7020,-3741,-2037,1745172602872650289
796000,-16,46,5,-7027,-3673,-2024,1745172602872650289
796192,-14,43,8,-7033,-3615,-2011,1745172602872650289
796384,-7,42,10,-7074,-3564,-2000,1745172602872650289
796576,2,42,11,-7070,-3519,-1998,1745172602872650289
796768,13,44,10,-7072,-3499,-2020,1745172602872650289
796960,22,48,7,-7059,-3513,-2036,1745172602872650289
797152,28,50,2,-7027,-3533,-2038,1745172603041382967
797344,31,52,-1,-7001,-3579,-2024,1745172603041382967
797536,32,51,0,-6958,-3619,-1999,1745172603041382967
797728,33,47,6,-6952,-3663,-1977,1745172603041382967
797920,28,42,13,-6966,-3669,-1989,1745172603041382967
798112,21,37,18,-6991,-3681,-2002,1745172603041382967
798304,12,34,22,-7025,-3673,-2039,1745172603041382967
798496,4,33,21,-7047,-3670,-2071,1745172603041382967
798688,1,34,21,-7063,-3645,-2128,1745172603041382967
798880,1,33,18,-7054,-3617,-2168,1745172603041382967
799072,3,30,15,-7038,-3591,-2164,1745172603041382967
799264,4,27,12,-7011,-3579,-2158,1745172603041382967
799456,2,26,10,-7014,-3590,-2159,1745172603050737985
799648,-3,24,9,-7007,-3588,-2151,1745172603050737985
