timestamp,gyr_x,gyr_y,gyr_z,acc_x,acc_y,acc_z,pkt_time_ns
1174048,-100,-214,-31,1954,2492,-7144,1745184967521855030
1174240,-86,-304,-21,1948,2682,-7609,1745184967521855030
1174432,21,-321,-4,2010,3338,-7543,1745184967521855030
1174624,157,-289,6,1967,3138,-7724,1745184967521855030
1174816,240,-292,-3,2047,2713,-7923,1745184967521855030
1175008,239,-275,-23,2099,2243,-7793,1745184967521855030
1175200,204,-284,-45,2112,1882,-7654,1745184967521855030
1175392,97,-328,-55,2136,1437,-7608,1745184967521855030
1175584,-77,-367,-61,1902,776,-7522,1745184967521855030
1175776,-294,-423,-58,1730,412,-7333,1745184967521855030
1175968,-536,-517,-45,1929,727,-7200,1745184967521855030
1176160,-727,-649,-34,2354,1599,-7326,1745184967521855030
1176352,-882,-792,-6,2647,2077,-7682,1745184967578875759
1176544,-1028,-878,46,2354,2449,-8067,1745184967578875759
1176736,-1112,-863,117,1436,2830,-8456,1745184967578875759
1176928,-1125,-751,208,486,3199,-8632,1745184967578875759
1177120,-1060,-593,299,-35,3421,-8603,1745184967578875759
1177312,-922,-439,333,-5,3624,-8620,1745184967578875759
1177504,-777,-301,280,191,3572,-8598,1745184967578875759
1177696,-648,-185,175,444,3144,-8605,1745184967578875759
1177888,-560,-71,60,606,2454,-8573,1745184967578875759
1178080,-531,19,-40,936,1770,-8592,1745184967578875759
1178272,-545,57,-114,1513,1495,-8686,1745184967578875759
1178464,-560,66,-140,1631,2020,-8750,1745184967578875759
1178656,-489,150,-117,982,3343,-8750,1745184967640194782
1178848,-316,293,-91,504,4798,-8690,1745184967640194782
1179040,-94,448,-101,523,5532,-8624,1745184967640194782
1179232,168,607,-116,741,5771,-8623,1745184967640194782
1179424,463,763,-120,709,5799,-8614,1745184967640194782
1179616,780,955,-145,-26,5846,-7284,1745184967640194782
1179808,1070,1112,-206,-4,6131,-8825,1745184967640194782
1180000,1268,1022,-263,-98,4973,-10569,1745184967640194782
1180192,1208,720,-202,-1325,3328,346,1745184967640194782
1180384,1217,1826,-427,-3226,799,-6982,1745184967640194782
1180576,851,1703,-164,-921,-596,-6686,1745184967640194782
1180768,961,1190,1,1906,-792,-7115,1745184967640194782
1180960,671,965,95,3290,-459,-6939,1745184967697011971
1181152,406,796,87,4065,-20,-7509,1745184967697011971
1181344,166,695,9,4585,314,-7704,1745184967697011971
1181536,18,670,-74,4742,928,-7661,1745184967697011971
1181728,-41,611,-120,4566,1647,-7571,1745184967697011971
1181920,-59,518,-124,3982,2418,-7595,1745184967697011971
1182112,-60,436,-87,3149,3023,-7492,1745184967697011971
1182304,-32,379,-37,2303,3299,-7321,1745184967697011971
1182496,26,369,-9,1664,3295,-7164,1745184967697011971
1182688,97,384,-17,1397,3272,-6932,1745184967697011971
1182880,170,403,-60,1355,3151,-6823,1745184967697011971
1183072,211,418,-90,1572,2984,-6817,1745184967697011971
1183264,208,421,-98,1890,2883,-6758,1745184967754241761
1183456,166,409,-94,2241,2625,-6771,1745184967754241761
1183648,101,378,-76,2517,2348,-6908,1745184967754241761
1183840,41,334,-52,2634,2092,-7044,1745184967754241761
1184032,0,287,-31,2588,1988,-7159,1745184967754241761
1184224,-21,250,-30,2491,1931,-7262,1745184967754241761
1184416,-21,224,-43,2390,1883,-7300,1745184967754241761
1184608,-2,205,-57,2324,1917,-7222,1745184967754241761
1184800,15,189,-71,2297,1989,-7150,1745184967754241761
1184992,17,172,-83,2297,2053,-7155,1745184967754241761
1185184,8,151,-93,2351,2099,-7198,1745184967754241761
1185376,-1,128,-101,2388,2137,-7243,1745184967754241761
1185568,-7,108,-111,2431,2183,-7201,1745184967808919543
1185760,-16,94,-123,2413,2280,-7089,1745184967808919543
1185952,-30,84,-137,2411,2377,-7060,1745184967808919543
1186144,-46,71,-147,2394,2432,-7199,1745184967808919543
1186336,-56,51,-154,2408,2448,-7428,1745184967808919543
1186528,-53,26,-164,2425,2439,-7616,1745184967808919543
1186720,-43,7,-177,2363,2407,-7571,1745184967808919543
1186912,-31,-5,-189,2270,2304,-7426,1745184967808919543
1187104,-15,-13,-194,2158,2125,-7275,1745184967808919543
1187296,1,-22,-191,2032,1877,-7132,1745184967808919543
1187488,20,-33,-179,1915,1593,-7028,1745184967808919543
1187680,38,-47,-168,1834,1339,-6970,1745184967808919543
1187872,43,-59,-161,1806,1207,-6971,1745184967871770114
1188064,33,-64,-164,1819,1260,-7042,1745184967871770114
1188256,10,-71,-172,1964,1525,-7171,1745184967871770114
1188448,-25,-81,-187,2128,1902,-7364,1745184967871770114
1188640,-52,-99,-194,2291,2316,-7420,1745184967871770114
1188832,-64,-111,-185,2418,2696,-7439,1745184967871770114
1189024,-69,-122,-167,2607,3139,-7522,1745184967871770114
1189216,-78,-143,-153,2710,3485,-7641,1745184967871770114
1189408,-83,-170,-139,2766,3606,-7785,1745184967871770114
1189600,-78,-203,-120,2780,3628,-7923,1745184967871770114
1189792,-72,-234,-101,2731,3560,-7950,1745184967871770114
1189984,-73,-263,-84,2570,3385,-7782,1745184967871770114
1190176,-86,-282,-58,2454,3120,-7575,1745184967931966700
1190368,-101,-300,-19,2346,2852,-7385,1745184967931966700
1190560,-115,-321,15,2250,2654,-7276,1745184967931966700
1190752,-140,-348,31,2159,2530,-7236,1745184967931966700
1190944,-176,-373,29,2105,2521,-7244,1745184967931966700
1191136,-209,-392,21,2158,2585,-7208,1745184967931966700
1191328,-242,-404,20,2242,2736,-7138,1745184967931966700
1191520,-267,-413,34,2350,2852,-7155,1745184967931966700
1191712,-279,-428,60,2495,2949,-7207,1745184967931966700
1191904,-279,-452,86,2616,3044,-7310,1745184967931966700
1192096,-275,-482,100,2652,3104,-7462,1745184967931966700
1192288,-271,-514,104,2635,3094,-7549,1745184967931966700
1192480,-268,-544,105,2592,3032,-7602,1745184967986671929
1192672,-266,-573,106,2488,2955,-7571,1745184967986671929
1192864,-267,-602,114,2407,2883,-7576,1745184967986671929
1193056,-269,-634,122,2304,2832,-7564,1745184967986671929
1193248,-266,-673,130,2208,2767,-7399,1745184967986671929
1193440,-256,-714,144,2112,2648,-7333,1745184967986671929
1193632,-247,-760,161,1981,2445,-7249,1745184967986671929
1193824,-242,-811,178,1838,2242,-7121,1745184967986671929
1194016,-256,-861,187,1681,2082,-6975,1745184967986671929
1194208,-289,-914,187,1516,1981,-6798,1745184967986671929
1194400,-344,-962,181,1384,1932,-6646,1745184967986671929
1194592,-421,-1006,171,1237,1962,-6550,1745184967986671929
1194784,-513,-1049,165,1165,2031,-6646,1745184968045180353
1194976,-613,-1095,157,1149,2123,-6922,1745184968045180353
1195168,-701,-1141,149,1192,2279,-7140,1745184968045180353
1195360,-767,-1180,132,1275,2497,-7344,1745184968045180353
1195552,-800,-1216,113,1370,2755,-7558,1745184968045180353
1195744,-827,-1263,95,1457,3115,-7721,1745184968045180353
1195936,-848,-1329,67,1828,3264,-6871,1745184968045180353
1196128,-760,-1271,28,1713,3331,-6943,1745184968045180353
1196320,-700,-1237,13,1613,3158,-6832,1745184968045180353
1196512,-645,-1237,14,1336,2863,-6240,1745184968045180353
1196704,-604,-1201,24,991,2495,-6202,1745184968045180353
1196896,-595,-1175,37,672,2072,-6650,1745184968045180353
1197088,-598,-1151,43,426,1672,-7182,1745184968106447137
1197280,-582,-1118,30,198,1532,-7201,1745184968106447137
1197472,-565,-1050,-6,58,1753,-7315,1745184968106447137
1197664,-582,-970,-59,57,2144,-7802,1745184968106447137
1197856,-599,-889,-107,77,2601,-8255,1745184968106447137
1198048,-604,-814,-128,110,3090,-8806,1745184968106447137
1198240,-582,-745,-137,92,3499,-9105,1745184968106447137
1198432,-501,-672,-139,-7,3856,-9238,1745184968106447137
1198624,-383,-587,-140,-178,4143,-9417,1745184968106447137
1198816,-244,-492,-147,-394,4328,-9303,1745184968106447137
1199008,-99,-387,-160,-724,4252,-9004,1745184968106447137
1199200,57,-278,-158,-1051,3966,-8798,1745184968106447137
1199392,193,-164,-144,-1288,3649,-8628,1745184968163859894
1199584,293,-54,-137,-1464,3336,-8435,1745184968163859894
1199776,348,60,-135,-1541,3082,-8310,1745184968163859894
1199968,361,174,-132,-1413,2859,-8319,1745184968163859894
1200160,348,279,-124,-1081,2728,-8371,1745184968163859894
1200352,326,376,-113,-704,2874,-8352,1745184968163859894
1200544,305,467,-108,-303,3202,-8291,1745184968163859894
1200736,300,548,-108,126,3588,-8286,1745184968163859894
1200928,316,617,-109,480,3941,-8313,1745184968163859894
1201120,348,664,-106,739,4127,-8390,1745184968163859894
1201312,385,698,-87,900,4162,-8365,1745184968163859894
1201504,432,728,-54,962,4027,-8272,1745184968163859894
1201696,480,754,-22,921,3909,-8151,1745184968224239603
1201888,510,783,-8,721,3780,-8068,1745184968224239603
1202080,512,813,-4,508,3659,-8089,1745184968224239603
1202272,497,842,6,241,3503,-8180,1745184968224239603
1202464,469,868,30,21,3427,-8218,1745184968224239603
1202656,437,895,55,-35,3378,-8180,1745184968224239603
1202848,409,918,67,46,3375,-8038,1745184968224239603
1203040,394,937,58,224,3476,-7773,1745184968224239603
1203232,392,952,33,380,3561,-7490,1745184968224239603
1203424,406,966,13,503,3687,-7361,1745184968224239603
1203616,431,979,7,633,3772,-7347,1745184968224239603
1203808,469,992,12,798,3796,-7381,1745184968224239603
1204000,517,1003,20,908,3742,-7428,1745184968280297424
1204192,573,1018,27,1118,3495,-7361,1745184968280297424
1204384,663,1064,23,1262,3150,-7343,1745184968280297424
1204576,725,1068,18,1087,2652,-8345,1745184968280297424
1204768,711,975,37,1316,2129,-7724,1745184968280297424
1204960,744,971,41,1380,1726,-7563,1745184968280297424
1205152,747,948,40,1405,1469,-7299,1745184968280297424
1205344,721,928,28,1482,1402,-7108,1745184968280297424
1205536,672,904,2,1578,1461,-7074,1745184968280297424
1205728,609,873,-27,1668,1564,-7094,1745184968280297424
1205920,552,842,-50,1737,1734,-6891,1745184968280297424
1206112,515,815,-74,1789,1952,-6712,1745184968280297424
1206304,484,790,-98,1842,2135,-6644,1745184968338409029
1206496,467,772,-117,1880,2222,-6631,1745184968338409029
1206688,464,754,-125,1942,2264,-6603,1745184968338409029
1206880,465,736,-131,1990,2283,-6501,1745184968338409029
1207072,461,718,-145,2033,2206,-6455,1745184968338409029
1207264,448,700,-157,2150,2120,-6465,1745184968338409029
1207456,427,674,-168,2279,2062,-6692,1745184968338409029
1207648,386,641,-180,2417,1984,-7005,1745184968338409029
1207840,342,600,-198,2507,1938,-6869,1745184968338409029
1208032,301,553,-227,2562,2040,-6773,1745184968338409029
1208224,237,508,-261,2619,2144,-6754,1745184968338409029
1208416,167,468,-284,2615,2105,-6810,1745184968338409029
1208608,109,423,-286,2629,1982,-6962,1745184968401302673
1208800,73,368,-276,2620,1874,-7200,1745184968401302673
1208992,66,307,-261,2585,1813,-7344,1745184968401302673
1209184,80,247,-250,2492,1745,-7450,1745184968401302673
1209376,108,189,-241,2366,1699,-7537,1745184968401302673
1209568,144,133,-234,2193,1631,-7503,1745184968401302673
1209760,191,81,-222,2033,1635,-7416,1745184968401302673
1209952,235,25,-214,1839,1632,-7232,1745184968401302673
1210144,261,-20,-208,1639,1543,-7195,1745184968401302673
1210336,239,-53,-195,1499,1424,-6942,1745184968401302673
1210528,190,-86,-183,1472,1507,-6658,1745184968401302673
1210720,101,-131,-191,1553,1778,-6471,1745184968401302673
1210912,-24,-165,-208,1675,2128,-6167,1745184968453970942
1211104,-172,-183,-219,1867,2431,-6012,1745184968453970942
1211296,-329,-200,-212,2137,2662,-6112,1745184968453970942
1211488,-472,-227,-180,2452,2833,-6392,1745184968453970942
1211680,-596,-278,-135,2769,3110,-6809,1745184968453970942
1211872,-688,-345,-101,3076,3290,-7063,1745184968453970942
1212064,-731,-414,-87,3183,3288,-7234,1745184968453970942
1212256,-717,-482,-73,3092,3079,-7294,1745184968453970942
1212448,-646,-539,-37,2899,2888,-7269,1745184968453970942
1212640,-547,-593,7,2605,2743,-7279,1745184968453970942
1212832,-457,-649,43,2262,2673,-7257,1745184968453970942
1213024,-392,-698,65,1919,2670,-7281,1745184968453970942
1213216,-361,-737,73,1611,2760,-7366,1745184968516233081
1213408,-365,-758,79,1417,2857,-7464,1745184968516233081
1213600,-393,-762,101,1405,2987,-7500,1745184968516233081
1213792,-437,-761,134,1585,3194,-7553,1745184968516233081
1213984,-484,-766,155,1880,3314,-7584,1745184968516233081
1214176,-521,-781,162,2161,3427,-7533,1745184968516233081
1214368,-543,-801,169,2332,3670,-7539,1745184968516233081
1214560,-577,-819,155,2338,3860,-7588,1745184968516233081
1214752,-605,-826,140,2314,3849,-7673,1745184968516233081
1214944,-600,-830,132,2221,3719,-7840,1745184968516233081
1215136,-564,-830,124,2081,3550,-7917,1745184968516233081
1215328,-519,-820,110,1889,3321,-7928,1745184968516233081
1215520,-465,-804,98,1689,3045,-7932,1745184968578141995
1215712,-403,-784,92,1513,2759,-7906,1745184968578141995
1215904,-343,-762,89,1317,2476,-7878,1745184968578141995
1216096,-291,-752,90,1075,2212,-7922,1745184968578141995
1216288,-247,-745,93,846,2027,-7984,1745184968578141995
1216480,-216,-740,87,631,1889,-8032,1745184968578141995
1216672,-193,-728,70,430,1920,-7987,1745184968578141995
1216864,-183,-710,43,321,2040,-8026,1745184968578141995
1217056,-182,-701,16,297,2226,-8091,1745184968578141995
1217248,-175,-688,-4,253,2536,-8072,1745184968578141995
1217440,-169,-678,-11,270,2845,-7965,1745184968578141995
1217632,-156,-661,-11,267,3150,-7778,1745184968578141995
1217824,-130,-652,-10,287,3308,-7730,1745184968633722112
1218016,-106,-659,-12,423,3350,-7607,1745184968633722112
1218208,-59,-650,-19,575,3089,-7486,1745184968633722112
1218400,-5,-621,-20,641,2863,-7422,1745184968633722112
1218592,22,-596,-22,655,2769,-7352,1745184968633722112
1218784,15,-581,-36,682,2774,-7290,1745184968633722112
1218976,-4,-563,-61,657,2913,-7159,1745184968633722112
1219168,-10,-541,-90,651,3068,-7078,1745184968633722112
1219360,-7,-513,-109,619,3112,-7153,1745184968633722112
1219552,11,-488,-107,604,3017,-7325,1745184968633722112
1219744,42,-472,-96,543,2834,-7565,1745184968633722112
1219936,84,-461,-81,484,2705,-7787,1745184968633722112
1220128,120,-447,-81,465,2611,-7926,1745184968687796983
1220320,140,-429,-97,515,2516,-7914,1745184968687796983
1220512,149,-403,-113,560,2455,-7879,1745184968687796983
1220704,144,-378,-121,575,2414,-7860,1745184968687796983
1220896,131,-356,-122,616,2425,-7936,1745184968687796983
1221088,116,-348,-124,585,2453,-8061,1745184968687796983
1221280,104,-344,-133,453,2489,-8162,1745184968687796983
1221472,103,-336,-150,265,2559,-8212,1745184968687796983
1221664,111,-318,-168,83,2635,-8117,1745184968687796983
1221856,125,-286,-185,-38,2710,-7930,1745184968687796983
1222048,143,-247,-200,-94,2748,-7777,1745184968687796983
1222240,164,-205,-208,-107,2728,-7706,1745184968687796983
1222432,185,-165,-208,-71,2634,-7712,1745184968748240649
1222624,207,-126,-205,-20,2548,-7744,1745184968748240649
1222816,225,-87,-206,-1,2491,-7767,1745184968748240649
1223008,234,-46,-213,-4,2457,-7848,1745184968748240649
1223200,235,-4,-222,-5,2461,-7925,1745184968748240649
1223392,231,38,-231,10,2491,-7986,1745184968748240649
1223584,227,77,-238,26,2544,-7994,1745184968748240649
1223776,228,115,-244,98,2626,-7983,1745184968748240649
1223968,231,152,-255,156,2691,-7973,1745184968748240649
1224160,241,190,-270,168,2795,-8028,1745184968748240649
1224352,262,226,-285,212,2898,-8223,1745184968748240649
1224544,288,255,-305,236,3023,-8398,1745184968748240649
1224736,333,283,-326,186,3104,-8438,1745184968804728415
1224928,403,329,-343,149,3205,-8412,1745184968804728415
1225120,489,393,-358,135,3302,-8400,1745184968804728415
1225312,578,460,-376,14,3316,-8704,1745184968804728415
1225504,622,475,-383,66,3247,-8656,1745184968804728415
1225696,670,503,-389,93,3119,-8467,1745184968804728415
1225888,726,556,-398,118,3017,-8533,1745184968804728415
1226080,777,593,-403,174,2904,-8629,1745184968804728415
1226272,830,616,-409,298,2840,-8827,1745184968804728415
1226464,889,616,-419,410,2878,-9074,1745184968804728415
1226656,960,600,-432,496,2973,-9288,1745184968804728415
1226848,1036,585,-449,589,3160,-9418,1745184968804728415
1227040,1101,571,-475,612,3323,-9458,1745184968867772787
1227232,1143,586,-485,572,3433,-9386,1745184968867772787
1227424,1170,623,-474,557,3464,-9291,1745184968867772787
1227616,1175,676,-441,589,3365,-9244,1745184968867772787
1227808,1146,735,-400,692,3126,-9209,1745184968867772787
1228000,1080,780,-361,810,2788,-9248,1745184968867772787
1228192,989,804,-329,916,2428,-9291,1745184968867772787
1228384,878,808,-305,987,2190,-9368,1745184968867772787
1228576,743,795,-294,1038,1923,-9948,1745184968867772787
1228768,600,761,-289,1155,1617,-10536,1745184968867772787
1228960,501,751,-277,1186,1445,-10243,1745184968867772787
1229152,419,737,-270,1220,1481,-9945,1745184968867772787
1229344,367,732,-271,1205,1784,-9493,1745184968940897744
1229536,346,739,-273,1259,2028,-9239,1745184968940897744
1229728,360,734,-276,1365,2201,-9264,1745184968940897744
1229920,403,724,-277,1432,2297,-9477,1745184968940897744
1230112,473,698,-272,1566,2259,-9574,1745184968940897744
1230304,566,690,-272,1610,2263,-9577,1745184968940897744
1230496,647,666,-299,1739,2308,-9930,1745184968940897744
1230688,713,623,-351,1836,2371,-10395,1745184968940897744
1230880,782,586,-401,1878,2427,-10690,1745184968940897744
1231072,862,543,-436,1845,2412,-10961,1745184968940897744
1231264,963,485,-454,1764,2348,-11087,1745184968940897744
1231456,1068,437,-461,1748,2313,-11533,1745184968940897744
1231648,1167,389,-478,1639,2208,-11591,1745184968979716035
1231840,1244,340,-500,1526,2078,-11724,1745184968979716035
1232032,1294,282,-524,1460,1921,-11769,1745184968979716035
1232224,1321,224,-546,1325,1780,-11752,1745184968979716035
1232416,1350,176,-548,1240,1667,-11647,1745184968979716035
1232608,1392,140,-529,1269,1659,-11522,1745184968979716035
1232800,1442,110,-499,1432,1741,-11349,1745184968979716035
1232992,1513,61,-481,1805,2078,-11365,1745184968979716035
1233184,1616,-7,-491,2121,2474,-10663,1745184968979716035
1233376,1713,-7,-511,2212,2507,-9921,1745184968979716035
1233568,1794,47,-507,2322,2132,-10050,1745184968979716035
1233760,1857,107,-474,2566,1568,-10480,1745184968979716035
1233952,1880,152,-426,2919,1101,-10722,1745184969044925543
1234144,1847,155,-380,3428,829,-10843,1745184969044925543
1234336,1759,124,-360,3907,797,-10786,1745184969044925543
1234528,1636,65,-366,4432,945,-10820,1745184969044925543
1234720,1496,-25,-386,5012,1207,-10846,1745184969044925543
1234912,1363,-123,-399,5570,1501,-10934,1745184969044925543
1235104,1259,-231,-379,6097,1667,-11201,1745184969044925543
1235296,1198,-353,-324,6549,1633,-11514,1745184969044925543
1235488,1183,-487,-241,6885,1552,-11940,1745184969044925543
1235680,1219,-641,-155,7104,1461,-12298,1745184969044925543
1235872,1311,-805,-83,7182,1475,-12450,1745184969044925543
1236064,1436,-956,-39,7102,1407,-12487,1745184969044925543
1236256,1584,-1079,-8,6967,1149,-12682,1745184969096817153
1236448,1744,-1186,26,6802,636,-12904,1745184969096817153
1236640,1902,-1292,62,6638,166,-13078,1745184969096817153
1236832,2015,-1394,88,6421,-308,-13083,1745184969096817153
1237024,2079,-1482,121,6302,-764,-12919,1745184969096817153
1237216,2094,-1561,168,6222,-1186,-12590,1745184969096817153
1237408,2066,-1641,221,6253,-1593,-12323,1745184969096817153
1237600,2007,-1747,277,6406,-1890,-12310,1745184969096817153
1237792,1917,-1883,324,6585,-2091,-12262,1745184969096817153
1237984,1796,-2035,367,6743,-2247,-12168,1745184969096817153
1238176,1662,-2204,413,6819,-2298,-12058,1745184969096817153
1238368,1531,-2380,446,6812,-2212,-11965,1745184969096817153
1238560,1414,-2564,484,6798,-2072,-11941,1745184969156935145
1238752,1303,-2743,507,6678,-1809,-11664,1745184969156935145
1238944,1207,-2903,519,6408,-1581,-11235,1745184969156935145
1239136,1131,-3045,550,6106,-1520,-10780,1745184969156935145
1239328,1077,-3177,611,5843,-1479,-10601,1745184969156935145
1239520,1048,-3317,687,5626,-1445,-10500,1745184969156935145
1239712,1021,-3442,765,5322,-1476,-10076,1745184969156935145
1239904,979,-3545,849,5013,-1590,-9554,1745184969156935145
1240096,929,-3636,939,4885,-1560,-9307,1745184969156935145
1240288,881,-3744,1017,5016,-1296,-9029,1745184969156935145
1240480,836,-3873,1070,5187,-916,-8578,1745184969156935145
1240672,801,-4009,1105,5262,-533,-8048,1745184969156935145
1240864,777,-4141,1139,5226,-215,-7515,1745184969215700129
1241056,762,-4258,1178,5088,41,-7105,1745184969215700129
1241248,751,-4382,1210,4873,308,-6764,1745184969215700129
1241440,739,-4510,1230,4548,633,-6433,1745184969215700129
1241632,715,-4625,1243,4079,918,-5978,1745184969215700129
1241824,694,-4725,1260,3598,1187,-5650,1745184969215700129
1242016,685,-4811,1285,3165,1439,-5564,1745184969215700129
1242208,702,-4880,1314,2694,1643,-5441,1745184969215700129
1242400,715,-4939,1348,2115,1731,-5472,1745184969215700129
1242592,694,-5032,1381,1774,1676,-5050,1745184969215700129
1242784,783,-4996,1390,1485,1444,-3844,1745184969215700129
1242976,865,-4887,1394,1138,1512,-4286,1745184969215700129
1243168,865,-4889,1384,953,1408,-3818,1745184969275749685
1243360,859,-4859,1364,863,1243,-3602,1745184969275749685
1243552,832,-4837,1353,745,1099,-3283,1745184969275749685
1243744,792,-4830,1346,681,1036,-2810,1745184969275749685
1243936,716,-4817,1326,521,1004,-2293,1745184969275749685
1244128,615,-4787,1293,294,922,-1804,1745184969275749685
1244320,491,-4744,1257,-106,801,-1153,1745184969275749685
1244512,355,-4676,1231,-555,706,-453,1745184969275749685
1244704,210,-4609,1220,-904,634,120,1745184969275749685
1244896,45,-4553,1202,-1181,558,714,1745184969275749685
1245088,-120,-4516,1161,-1530,647,1178,1745184969275749685
1245280,-261,-4486,1067,-2007,825,1410,1745184969275749685
1245472,-388,-4438,937,-2499,1095,1904,1745184969334874249
1245664,-469,-4387,791,-2967,1380,2208,1745184969334874249
1245856,-473,-4355,634,-3320,1686,1931,1745184969334874249
1246048,-377,-4308,487,-3749,1880,1334,1745184969334874249
1246240,-183,-4249,374,-4219,1881,778,1745184969334874249
1246432,87,-4139,305,-4694,1711,59,1745184969334874249
1246624,372,-3982,259,-5085,1266,321,1745184969334874249
1246816,641,-3783,226,-5224,805,1202,1745184969334874249
1247008,877,-3608,184,-5051,421,2016,1745184969334874249
1247200,1059,-3454,136,-4742,158,2651,1745184969334874249
1247392,1193,-3342,88,-4382,6,3294,1745184969334874249
1247584,1277,-3268,42,-4093,7,3975,1745184969334874249
1247776,1313,-3220,-3,-4058,24,4652,1745184969391595033
1247968,1312,-3171,-43,-4304,70,5041,1745184969391595033
1248160,1274,-3105,-75,-4756,186,5395,1745184969391595033
1248352,1194,-2991,-102,-5389,373,6013,1745184969391595033
1248544,1054,-2849,-126,-6052,478,7324,1745184969391595033
1248736,881,-2676,-140,-6667,332,8675,1745184969391595033
1248928,880,-2490,-137,-7166,82,9668,1745184969391595033
1249120,729,-2339,-112,-7687,421,10620,1745184969391595033
1249312,369,-2144,-137,-8196,-73,11173,1745184969391595033
1249504,215,-1968,-186,-8679,-399,10187,1745184969391595033
1249696,52,-1789,-247,-9013,-747,9068,1745184969391595033
1249888,-85,-1622,-316,-9086,-1038,8396,1745184969391595033
1250080,-182,-1482,-393,-9152,-1202,7954,1745184969452741349
1250272,-219,-1342,-456,-9315,-1379,7395,1745184969452741349
1250464,-190,-1186,-483,-9352,-1569,7011,1745184969452741349
1250656,-95,-1032,-482,-9234,-1672,7079,1745184969452741349
1250848,59,-894,-464,-9182,-1643,7215,1745184969452741349
1251040,222,-770,-444,-9029,-1465,7493,1745184969452741349
1251232,358,-652,-447,-8900,-1325,7924,1745184969452741349
1251424,456,-538,-467,-8943,-1227,8309,1745184969452741349
1251616,518,-417,-484,-9057,-1192,8483,1745184969452741349
1251808,562,-291,-470,-9176,-1245,8452,1745184969452741349
1252000,571,-177,-436,-9262,-1283,8526,1745184969452741349
1252192,494,-47,-464,-9344,-1365,8669,1745184969452741349
1252384,429,87,-485,-9423,-1505,8794,1745184969508205478
1252576,409,211,-475,-9494,-1664,8738,1745184969508205478
1252768,407,335,-460,-9543,-1816,8548,1745184969508205478
1252960,438,450,-403,-9541,-1933,8328,1745184969508205478
1253152,523,540,-268,-9540,-2489,7666,1745184969508205478
1253344,393,629,-392,-9345,-2458,7478,1745184969508205478
1253536,332,727,-427,-9144,-2872,6813,1745184969508205478
1253728,281,790,-415,-8859,-3155,6185,1745184969508205478
1253920,205,842,-392,-8517,-3382,5595,1745184969508205478
1254112,108,872,-357,-8097,-3577,5108,1745184969508205478
1254304,-10,881,-326,-7670,-3656,4769,1745184969508205478
1254496,-140,878,-305,-7291,-3679,4396,1745184969508205478
1254688,-288,865,-292,-6943,-3623,4071,1745184969567917901
1254880,-446,846,-280,-6627,-3470,3718,1745184969567917901
1255072,-605,826,-279,-6431,-3347,3362,1745184969567917901
1255264,-755,809,-286,-6279,-3193,3209,1745184969567917901
1255456,-887,804,-286,-6216,-2988,3380,1745184969567917901
1255648,-1000,802,-270,-6215,-2787,3484,1745184969567917901
1255840,-1104,814,-243,-6309,-2624,3525,1745184969567917901
1256032,-1201,841,-212,-6424,-2493,3599,1745184969567917901
1256224,-1291,879,-179,-6530,-2443,3585,1745184969567917901
1256416,-1370,925,-143,-6589,-2394,3487,1745184969567917901
1256608,-1445,983,-107,-6637,-2323,3533,1745184969567917901
1256800,-1516,1049,-67,-6575,-2329,3588,1745184969567917901
1256992,-1576,1116,-24,-6450,-2358,3519,1745184969622896149
1257184,-1626,1185,15,-6270,-2380,3419,1745184969622896149
1257376,-1667,1255,52,-6072,-2394,3237,1745184969622896149
1257568,-1712,1325,77,-5931,-2339,3040,1745184969622896149
1257760,-1774,1404,92,-5797,-2297,2872,1745184969622896149
1257952,-1849,1489,95,-5573,-2230,2799,1745184969622896149
1258144,-1922,1565,95,-5217,-2131,2812,1745184969622896149
1258336,-1974,1630,94,-5040,-2061,2761,1745184969622896149
1258528,-2018,1704,83,-4967,-1964,2628,1745184969622896149
1258720,-2062,1790,66,-4970,-1851,2425,1745184969622896149
1258912,-2110,1887,60,-4998,-1683,2350,1745184969622896149
1259104,-2157,1994,67,-5107,-1476,2355,1745184969622896149
1259296,-2199,2110,85,-5211,-1315,2431,1745184969687907170
1259488,-2220,2225,113,-5224,-1200,2472,1745184969687907170
1259680,-2213,2344,159,-5231,-1057,2220,1745184969687907170
1259872,-2187,2478,225,-5198,-895,2000,1745184969687907170
1260064,-2149,2618,310,-4994,-723,2024,1745184969687907170
1260256,-2106,2750,392,-4611,-595,2095,1745184969687907170
1260448,-2065,2862,452,-4111,-450,2108,1745184969687907170
1260640,-2029,2963,493,-3800,-293,2061,1745184969687907170
1260832,-2008,3057,520,-3387,-282,1928,1745184969687907170
1261024,-1999,3155,546,-3199,-318,1837,1745184969687907170
1261216,-1994,3263,586,-3077,-465,1737,1745184969687907170
1261408,-1999,3384,629,-2954,-679,1811,1745184969687907170
1261600,-2027,3503,675,-2773,-972,1560,1745184969745003679
1261792,-2074,3623,726,-2525,-1260,1111,1745184969745003679
1261984,-2120,3731,766,-2216,-1466,635,1745184969745003679
1262176,-2157,3818,816,-1872,-1457,129,1745184969745003679
1262368,-2208,3876,888,-1497,-1182,-381,1745184969745003679
1262560,-2290,3907,970,-1176,-570,-800,1745184969745003679
1262752,-2375,3920,1036,-751,279,-1137,1745184969745003679
1262944,-2443,3915,1068,-466,1246,-1638,1745184969745003679
1263136,-2459,3899,1088,-227,2197,-2055,1745184969745003679
1263328,-2413,3895,1117,-92,2971,-2236,1745184969745003679
1263520,-2307,3915,1168,166,3589,-2548,1745184969745003679
1263712,-2139,3957,1247,218,3757,-2754,1745184969745003679
1263904,-1924,4019,1348,213,3743,-2872,1745184969798161371
1264096,-1690,4123,1432,204,3286,-3153,1745184969798161371
1264288,-1487,4224,1507,223,2634,-3786,1745184969798161371
1264480,-1372,4307,1545,394,2067,-4732,1745184969798161371
1264672,-1381,4354,1509,637,1683,-5709,1745184969798161371
1264864,-1585,4380,1427,1006,2000,-6159,1745184969798161371
1265056,-1880,4477,1406,1232,550,-7358,1745184969798161371
1265248,-1354,4237,1379,2051,2569,-9515,1745184969798161371
1265440,-1655,4063,1397,2575,2800,-8177,1745184969798161371
1265632,-1656,3962,1364,2938,3593,-8713,1745184969798161371
1265824,-1633,3823,1312,3049,4178,-8889,1745184969798161371
1266016,-1567,3722,1251,2916,4836,-9048,1745184969798161371
1266208,-1515,3637,1237,2789,5263,-8960,1745184969861776206
1266400,-1399,3586,1307,2520,5564,-8969,1745184969861776206
1266592,-1279,3507,1378,2351,5486,-9832,1745184969861776206
1266784,-1149,3421,1383,2104,5399,-10551,1745184969861776206
1266976,-1004,3349,1362,1816,5223,-10943,1745184969861776206
1267168,-846,3266,1315,1730,5253,-11927,1745184969861776206
1267360,-679,3179,1237,1878,5527,-12826,1745184969861776206
1267552,-542,3083,1153,2225,5971,-13440,1745184969861776206
1267744,-422,2957,1082,2527,6524,-14003,1745184969861776206
1267936,-281,2826,1025,2868,6962,-14105,1745184969861776206
1268128,-122,2689,982,3275,7048,-13977,1745184969861776206
1268320,36,2550,946,3387,6730,-13792,1745184969861776206
1268512,165,2423,919,3234,6114,-13617,1745184969919414742
1268704,247,2310,900,2891,5416,-13434,1745184969919414742
1268896,263,2199,879,2505,4718,-13233,1745184969919414742
1269088,225,2090,839,2161,4188,-13006,1745184969919414742
1269280,176,1968,773,2279,3793,-12515,1745184969919414742
1269472,147,1790,669,2732,3454,-12529,1745184969919414742
1269664,139,1666,548,2111,3311,-12571,1745184969919414742
1269856,160,1591,472,1041,3349,-12663,1745184969919414742
1270048,198,1523,410,1258,2951,-12687,1745184969919414742
1270240,240,1404,321,1072,2507,-12783,1745184969919414742
1270432,282,1379,254,1010,2076,-12949,1745184969919414742
1270624,288,1355,274,1167,1915,-12934,1745184969919414742
1270816,236,1280,321,2067,1220,-12589,1745184969976987341
1271008,136,1147,315,2344,901,-12489,1745184969976987341
1271200,38,1065,346,2071,806,-11936,1745184969976987341
1271392,-38,1018,405,1574,803,-11173,1745184969976987341
1271584,-91,934,398,1050,1189,-11497,1745184969976987341
1271776,-106,845,325,-15,1502,-9684,1745184969976987341
1271968,-101,879,329,385,1198,-9242,1745184969976987341
1272160,3,790,405,1933,2613,-10067,1745184969976987341
1272352,154,600,264,4577,6074,-13642,1745184969976987341
1272544,574,158,-142,6195,10089,-15213,1745184969976987341
1272736,1025,-141,-570,5768,11657,-13759,1745184969976987341
1272928,1760,-243,-766,3532,10952,-14452,1745184969976987341
1273120,2197,-99,-594,819,7626,-14389,1745184970032523084
1273312,2446,141,-182,-1284,3588,-14459,1745184970032523084
1273504,2293,405,164,-1808,-487,-14207,1745184970032523084
1273696,1894,568,331,-1597,-3483,-13943,1745184970032523084
1273888,1390,532,316,-1126,-5047,-14046,1745184970032523084
1274080,727,385,202,-316,-5322,-13789,1745184970032523084
1274272,11,165,103,784,-4621,-13547,1745184970032523084
1274464,-675,-77,66,2099,-3264,-12828,1745184970032523084
1274656,-1229,-374,64,2917,-1558,-11984,1745184970032523084
1274848,-1556,-610,82,2907,216,-11262,1745184970032523084
1275040,-1685,-722,121,2028,1925,-10643,1745184970032523084
1275232,-1662,-732,176,696,3209,-9714,1745184970032523084
1275424,-1516,-647,245,-848,4145,-9053,1745184970093315185
1275616,-1310,-522,281,-1789,4487,-8043,1745184970093315185
1275808,-1034,-427,237,-2230,4587,-7803,1745184970093315185
1276000,-758,-324,96,-2468,4623,-7470,1745184970093315185
1276192,-405,-195,-87,-1934,4587,-7076,1745184970093315185
1276384,1,-35,-244,-1318,4053,-7326,1745184970093315185
1276576,359,132,-273,-795,2735,-7364,1745184970093315185
1276768,665,285,-153,-187,1157,-8090,1745184970093315185
1276960,864,389,-22,749,-260,-8451,1745184970093315185
1277152,917,432,50,1411,-1418,-9667,1745184970093315185
1277344,798,357,66,1985,-2327,-11221,1745184970093315185
1277536,573,277,52,2508,-2853,-11378,1745184970093315185
1277728,342,155,-10,2651,-2299,-10227,1745184970153917756
1277920,143,72,-88,2924,-1335,-10013,1745184970153917756
1278112,26,22,-115,2869,-434,-9892,1745184970153917756
1278304,-1,6,-66,2468,111,-9848,1745184970153917756
1278496,-58,2,8,2045,339,-9356,1745184970153917756
1278688,-189,10,56,1714,323,-8639,1745184970153917756
1278880,-360,5,72,1262,272,-7818,1745184970153917756
1279072,-505,1,63,793,511,-7351,1745184970153917756
1279264,-627,13,40,444,1044,-6971,1745184970153917756
1279456,-743,42,20,142,1757,-6844,1745184970153917756
1279648,-825,85,14,97,2501,-6925,1745184970153917756
1279840,-744,105,4,223,3080,-7104,1745184970153917756
1280032,-585,107,36,321,3476,-7364,1745184970207651484
1280224,-424,123,94,377,3678,-7606,1745184970207651484
1280416,-278,135,133,278,3676,-7711,1745184970207651484
1280608,-178,163,152,145,3530,-7837,1745184970207651484
1280800,-151,183,150,61,3370,-8181,1745184970207651484
1280992,-196,183,132,19,3171,-8524,1745184970207651484
1281184,-269,167,118,-104,2912,-8765,1745184970207651484
1281376,-333,150,125,-217,2728,-9008,1745184970207651484
1281568,-380,131,143,-262,2600,-9287,1745184970207651484
1281760,-416,117,163,-364,2398,-9424,1745184970207651484
1281952,-440,105,182,-501,2226,-9345,1745184970207651484
1282144,-449,92,191,-663,2083,-9095,1745184970207651484
1282336,-456,76,191,-808,1935,-8843,1745184970278183548
1282528,-462,66,187,-814,1809,-8427,1745184970278183548
1282720,-460,77,185,-833,1768,-8287,1745184970278183548
1282912,-470,70,184,-740,1819,-8123,1745184970278183548
1283104,-460,67,182,-572,1841,-7998,1745184970278183548
1283296,-416,64,185,-307,1900,-7645,1745184970278183548
1283488,-345,59,195,15,1840,-7590,1745184970278183548
1283680,-265,59,203,270,1758,-7432,1745184970278183548
1283872,-201,68,204,493,1691,-7183,1745184970278183548
1284064,-178,70,194,694,1676,-7252,1745184970278183548
1284256,-190,62,173,841,1685,-7297,1745184970278183548
1284448,-207,50,149,954,1738,-7348,1745184970278183548
1284640,-225,37,126,984,1807,-7533,1745184970323640269
1284832,-235,31,114,1053,1830,-7630,1745184970323640269
1285024,-233,24,110,1089,1825,-7623,1745184970323640269
1285216,-222,11,105,1053,1794,-7585,1745184970323640269
1285408,-204,-1,98,929,1782,-7625,1745184970323640269
1285600,-183,-9,88,767,1793,-7682,1745184970323640269
1285792,-173,-11,83,599,1756,-7726,1745184970323640269
1285984,-170,-8,92,464,1723,-7761,1745184970323640269
1286176,-171,-5,105,402,1832,-7742,1745184970323640269
1286368,-183,-2,105,358,1936,-7614,1745184970323640269
1286560,-198,2,92,376,2012,-7582,1745184970323640269
1286752,-208,8,78,393,2043,-7564,1745184970323640269
1286944,-211,13,71,394,2095,-7650,1745184970382311660
1287136,-216,12,70,449,2152,-7766,1745184970382311660
1287328,-233,8,74,433,2244,-7952,1745184970382311660
1287520,-257,-4,78,456,2402,-8092,1745184970382311660
1287712,-278,-21,80,421,2510,-8049,1745184970382311660
1287904,-283,-40,89,369,2596,-8048,1745184970382311660
1288096,-266,-57,99,284,2655,-8012,1745184970382311660
1288288,-241,-73,104,159,2620,-7962,1745184970382311660
1288480,-217,-87,108,14,2596,-7937,1745184970382311660
1288672,-201,-87,112,-147,2623,-7909,1745184970382311660
1288864,-201,-75,115,-260,2706,-7981,1745184970382311660
1289056,-209,-68,116,-244,2737,-8005,1745184970382311660
1289248,-208,-64,117,-170,2837,-8058,1745184970443690109
1289440,-199,-56,109,-148,2858,-8066,1745184970443690109
1289632,-174,-33,94,-108,2813,-7880,1745184970443690109
1289824,-125,1,89,65,2667,-7714,1745184970443690109
1290016,-71,39,99,235,2410,-7647,1745184970443690109
1290208,-20,70,116,405,2099,-7684,1745184970443690109
1290400,19,93,127,522,1823,-7767,1745184970443690109
1290592,38,111,117,589,1646,-7793,1745184970443690109
1290784,39,130,94,613,1550,-7777,1745184970443690109
1290976,28,159,65,514,1621,-7808,1745184970443690109
1291168,13,186,41,345,1772,-7965,1745184970443690109
1291360,-19,183,35,155,1915,-8242,1745184970443690109
1291552,-41,169,46,70,2066,-8016,1745184970499380486
1291744,-25,197,57,-108,2210,-8120,1745184970499380486
1291936,-8,220,56,-137,2316,-8218,1745184970499380486
1292128,16,242,41,-176,2428,-8351,1745184970499380486
1292320,44,258,25,-126,2537,-8400,1745184970499380486
1292512,67,271,19,-84,2606,-8438,1745184970499380486
1292704,80,283,26,-64,2654,-8362,1745184970499380486
1292896,85,294,44,-72,2635,-8258,1745184970499380486
1293088,84,305,56,-99,2588,-8222,1745184970499380486
1293280,80,318,66,-152,2491,-8255,1745184970499380486
1293472,79,330,72,-182,2411,-8306,1745184970499380486
1293664,79,341,72,-190,2353,-8277,1745184970499380486
1293856,81,357,67,-185,2320,-8247,1745184970571778835
1294048,86,374,66,-82,2149,-8347,1745184970571778835
1294240,100,389,90,44,1817,-8506,1745184970571778835
1294432,120,397,127,190,1719,-8052,1745184970571778835
1294624,109,389,107,302,2159,-7397,1745184970571778835
1294816,44,393,-4,373,2823,-7073,1745184970571778835
1295008,-19,416,-109,495,3284,-7117,1745184970571778835
1295200,-43,450,-118,710,3476,-7575,1745184970571778835
1295392,-35,474,-29,996,3176,-7783,1745184970571778835
1295584,28,487,93,1221,2696,-7867,1745184970571778835
1295776,121,477,157,1297,2211,-7760,1745184970571778835
1295968,203,453,137,1106,1671,-7706,1745184970571778835
1296160,253,433,73,770,1147,-7732,1745184970617703624
1296352,253,419,23,506,777,-7753,1745184970617703624
1296544,204,412,4,393,701,-7675,1745184970617703624
1296736,121,409,6,480,875,-7453,1745184970617703624
1296928,36,400,1,620,1298,-7239,1745184970617703624
1297120,-26,385,-23,751,1772,-7147,1745184970617703624
1297312,-59,369,-58,821,2206,-7158,1745184970617703624
1297504,-61,356,-91,865,2572,-7235,1745184970617703624
1297696,-41,352,-107,909,2787,-7280,1745184970617703624
1297888,-11,354,-99,980,2780,-7400,1745184970617703624
1298080,25,352,-65,1070,2476,-7513,1745184970617703624
1298272,63,340,-11,1098,2035,-7628,1745184970617703624
1298464,87,313,32,1073,1628,-7675,1745184970682543605
1298656,76,276,39,1002,1382,-7644,1745184970682543605
1298848,39,238,0,868,1347,-7668,1745184970682543605
1299040,-2,205,-63,733,1482,-7607,1745184970682543605
1299232,-22,186,-113,635,1719,-7463,1745184970682543605
1299424,-14,181,-128,628,2047,-7418,1745184970682543605
1299616,12,181,-120,708,2339,-7450,1745184970682543605
1299808,52,180,-97,790,2482,-7488,1745184970682543605
1300000,111,177,-72,842,2513,-7592,1745184970682543605
1300192,179,169,-60,865,2345,-7683,1745184970682543605
1300384,242,162,-53,852,2055,-7699,1745184970682543605
1300576,286,153,-51,928,1850,-7647,1745184970682543605
1300768,299,146,-63,1049,1785,-7529,1745184970737804141
1300960,279,139,-80,1226,1755,-7452,1745184970737804141
1301152,238,126,-85,1406,1791,-7429,1745184970737804141
1301344,180,105,-72,1611,1844,-7376,1745184970737804141
1301536,113,69,-50,1762,1864,-7314,1745184970737804141
1301728,47,20,-33,1761,1938,-7319,1745184970737804141
1301920,-17,-31,-26,1712,2099,-7446,1745184970737804141
1302112,-81,-78,-30,1566,2299,-7528,1745184970737804141
1302304,-140,-120,-33,1418,2486,-7584,1745184970737804141
1302496,-188,-155,-21,1291,2596,-7689,1745184970737804141
1302688,-221,-183,16,1240,2719,-7722,1745184970737804141
1302880,-245,-208,52,1206,2817,-7520,1745184970737804141
1303072,-256,-230,72,1180,2861,-7430,1745184970798320932
1303264,-256,-246,77,1118,2864,-7393,1745184970798320932
1303456,-254,-255,80,1035,2750,-7422,1745184970798320932
1303648,-251,-262,92,1023,2729,-7551,1745184970798320932
1303840,-256,-270,102,1031,2619,-7707,1745184970798320932
1304032,-260,-276,113,1039,2454,-7882,1745184970798320932
1304224,-263,-280,125,1066,2353,-8013,1745184970798320932
1304416,-270,-283,129,1079,2284,-8145,1745184970798320932
1304608,-279,-286,123,1071,2249,-8200,1745184970798320932
1304800,-285,-290,118,1031,2218,-8238,1745184970798320932
1304992,-287,-290,121,989,2172,-8220,1745184970798320932
1305184,-282,-285,128,931,2133,-8146,1745184970798320932
1305376,-266,-279,128,861,2094,-8109,1745184970858695693
1305568,-239,-271,114,734,2112,-8076,1745184970858695693
1305760,-207,-260,93,553,2146,-8020,1745184970858695693
1305952,-178,-249,75,407,2144,-8047,1745184970858695693
1306144,-152,-231,63,312,2142,-7987,1745184970858695693
1306336,-124,-212,57,295,2148,-7913,1745184970858695693
1306528,-94,-193,54,368,2145,-7872,1745184970858695693
1306720,-65,-177,52,503,2162,-7857,1745184970858695693
1306912,-40,-170,49,634,2146,-7785,1745184970858695693
1307104,-27,-166,47,760,2139,-7742,1745184970858695693
1307296,-24,-170,45,869,2147,-7671,1745184970858695693
1307488,-28,-179,44,908,2194,-7650,1745184970858695693
1307680,-40,-194,41,889,2272,-7601,1745184970918141817
1307872,-55,-210,37,828,2349,-7565,1745184970918141817
1308064,-69,-224,36,773,2437,-7565,1745184970918141817
1308256,-80,-236,40,735,2534,-7593,1745184970918141817
1308448,-86,-248,45,727,2586,-7649,1745184970918141817
1308640,-84,-256,45,676,2583,-7685,1745184970918141817
1308832,-60,-238,-5,1408,-653,-7572,1745184970918141817
1309024,225,-197,-336,-109,-3364,-7483,1745184970918141817
1309216,-145,-278,-514,616,-976,-7779,1745184970918141817
1309408,-796,-348,-534,1346,1679,-8055,1745184970918141817
1309600,-1249,-472,-447,1245,3397,-7998,1745184970918141817
1309792,-1423,-562,-193,550,4910,-7838,1745184970918141817
1309984,-1052,-608,140,608,6194,-6575,1745184970973133242
1310176,-475,-493,380,-521,7445,-7190,1745184970973133242
1310368,-131,-296,573,-418,7917,-7600,1745184970973133242
1310560,232,-114,524,-10,5269,-6851,1745184970973133242
1310752,698,-20,262,206,3241,-6917,1745184970973133242
1310944,932,-12,-28,297,1691,-7168,1745184970973133242
1311136,898,-10,-210,447,472,-7153,1745184970973133242
1311328,724,18,-234,413,-519,-7677,1745184970973133242
1311520,433,-46,-132,812,-1635,-8179,1745184970973133242
1311712,189,-157,55,1078,-4586,-7121,1745184970973133242
1311904,-40,-161,218,624,106,-7572,1745184970973133242
1312096,-532,-157,157,430,877,-8178,1745184970973133242
1312288,-765,-192,79,164,1080,-7373,1745184971029915535
1312480,-731,-183,98,-608,1660,-8038,1745184971029915535
1312672,-645,-130,146,-567,2499,-8136,1745184971029915535
1312864,-614,-20,37,-102,3236,-8310,1745184971029915535
1313056,-616,72,-149,97,3739,-8648,1745184971029915535
1313248,-566,127,-229,446,4104,-8589,1745184971029915535
1313440,-412,155,-241,591,4288,-8697,1745184971029915535
1313632,-237,161,-204,552,4128,-8791,1745184971029915535
1313824,-86,195,-181,329,3877,-8798,1745184971029915535
1314016,19,240,-188,-85,3514,-8916,1745184971029915535
1314208,82,279,-186,-241,3196,-8738,1745184971029915535
1314400,116,331,-199,-483,2890,-8622,1745184971029915535
1314592,110,352,-210,-538,2787,-8674,1745184971091015863
1314784,86,368,-208,-465,2764,-8470,1745184971091015863
1314976,72,387,-211,-355,2942,-8451,1745184971091015863
1315168,71,395,-220,-261,3221,-8377,1745184971091015863
1315360,87,412,-212,-237,3544,-8304,1745184971091015863
1315552,120,443,-192,-108,3744,-8219,1745184971091015863
1315744,167,471,-191,225,3706,-8097,1745184971091015863
1315936,219,484,-209,588,3478,-7971,1745184971091015863
1316128,263,484,-228,842,3156,-7846,1745184971091015863
1316320,291,471,-245,1103,2836,-7676,1745184971091015863
1316512,297,454,-254,1197,2542,-7389,1745184971091015863
1316704,258,389,-244,1841,1990,-7088,1745184971091015863
1316896,166,303,-201,1575,1650,-7298,1745184971146560668
1317088,84,289,-132,801,1726,-7237,1745184971146560668
1317280,13,338,-80,-29,1516,-7564,1745184971146560668
1317472,-44,422,-89,-303,2063,-7071,1745184971146560668
1317664,-48,461,-125,23,2634,-7297,1745184971146560668
1317856,-20,450,-149,348,2814,-7214,1745184971146560668
1318048,35,430,-135,685,2929,-7148,1745184971146560668
1318240,86,415,-102,942,2855,-7030,1745184971146560668
1318432,116,401,-61,1024,2687,-7083,1745184971146560668
1318624,127,384,-15,1004,2424,-7107,1745184971146560668
1318816,129,358,30,895,2122,-7182,1745184971146560668
1319008,122,339,57,791,2072,-7209,1745184971146560668
1319200,101,319,57,728,2085,-7184,1745184971207055324
1319392,77,301,47,681,2223,-7242,1745184971207055324
1319584,54,280,43,699,2344,-7258,1745184971207055324
1319776,37,254,54,747,2406,-7378,1745184971207055324
1319968,18,231,69,858,2403,-7515,1745184971207055324
1320160,7,198,74,929,2387,-7587,1745184971207055324
1320352,11,168,69,996,2516,-7718,1745184971207055324
1320544,19,143,54,1024,2615,-7764,1745184971207055324
1320736,23,120,34,919,2316,-7953,1745184971207055324
1320928,7,116,13,814,2137,-7663,1745184971207055324
1321120,-25,93,30,965,2035,-7700,1745184971207055324
1321312,-70,65,36,1082,1915,-7634,1745184971207055324
1321504,-91,38,13,1058,1899,-7688,1745184971265517185
1321696,-88,17,-10,1021,2109,-7617,1745184971265517185
1321888,-73,4,-32,971,2263,-7588,1745184971265517185
1322080,-39,-11,-64,953,2435,-7515,1745184971265517185
1322272,8,-28,-89,988,2489,-7679,1745184971265517185
1322464,44,-41,-85,874,2426,-7615,1745184971265517185
1322656,76,-51,-63,900,2411,-7495,1745184971265517185
1322848,108,-60,-43,811,2246,-7669,1745184971265517185
1323040,120,-62,-35,762,2201,-7518,1745184971265517185
1323232,110,-55,-29,641,2132,-7503,1745184971265517185
1323424,116,-47,-39,814,2323,-7538,1745184971265517185
1323616,147,-41,-81,987,2710,-7342,1745184971265517185
1323808,197,-59,-127,1221,2929,-7645,1745184971324603781
1324000,198,-74,-133,1150,2825,-7766,1745184971324603781
1324192,174,-92,-88,1144,2770,-7554,1745184971324603781
1324384,131,-111,-52,1049,2680,-7538,1745184971324603781
1324576,109,-104,-27,928,2642,-7520,1745184971324603781
1324768,84,-103,-7,1061,2726,-7456,1745184971324603781
1324960,43,-135,21,1194,2862,-7246,1745184971324603781
1325152,41,-148,65,1099,3076,-7300,1745184971324603781
1325344,76,-140,83,1161,3125,-7564,1745184971324603781
1325536,64,-124,55,1168,3201,-7812,1745184971324603781
1325728,57,-100,18,1396,3160,-7357,1745184971324603781
1325920,147,-69,-7,1270,3123,-7580,1745184971324603781
1326112,95,-48,-4,1394,2678,-7679,1745184971398599824
1326304,0,-76,34,1589,2526,-7832,1745184971398599824
1326496,-76,-120,113,1773,2824,-7641,1745184971398599824
1326688,-108,-149,146,1856,3306,-7651,1745184971398599824
1326880,-107,-156,120,1939,3501,-7575,1745184971398599824
1327072,-82,-165,101,1921,3482,-7629,1745184971398599824
1327264,-97,-187,128,1869,3070,-7488,1745184971398599824
1327456,-138,-235,183,1663,2589,-7728,1745184971398599824
1327648,-187,-259,235,1538,2429,-7683,1745184971398599824
1327840,-232,-278,273,1293,2205,-7571,1745184971398599824
1328032,-273,-283,305,1059,2100,-7671,1745184971398599824
1328224,-326,-282,333,869,1954,-7497,1745184971398599824
1328416,-366,-287,354,698,1866,-7636,1745184971441440266
1328608,-409,-285,357,541,1939,-7573,1745184971441440266
1328800,-432,-289,339,472,2265,-7716,1745184971441440266
1328992,-435,-291,313,280,2617,-7815,1745184971441440266
1329184,-411,-272,274,154,2969,-7742,1745184971441440266
1329376,-296,-271,225,172,3018,-7473,1745184971441440266
1329568,-20,-295,198,295,2895,-7876,1745184971441440266
1329760,-47,-298,177,417,2988,-9199,1745184971441440266
1329952,-203,-270,150,357,2756,-8017,1745184971441440266
1330144,-129,-248,125,333,2722,-7750,1745184971441440266
1330336,-49,-251,107,548,2669,-7871,1745184971441440266
1330528,-37,-261,87,729,2564,-7803,1745184971441440266
1330720,-4,-283,65,720,2628,-7773,1745184971500900139
1330912,13,-308,60,859,2681,-7691,1745184971500900139
1331104,22,-338,53,949,2317,-7668,1745184971500900139
1331296,14,-376,42,966,1929,-7588,1745184971500900139
1331488,-34,-418,82,655,1437,-7526,1745184971500900139
1331680,-99,-454,225,492,1734,-7237,1745184971500900139
1331872,-158,-482,381,419,2328,-7194,1745184971500900139
1332064,-209,-478,454,664,2639,-7369,1745184971500900139
1332256,-222,-469,390,821,2297,-7342,1745184971500900139
1332448,-199,-439,263,925,2056,-7486,1745184971500900139
1332640,-219,-414,154,1021,1829,-7548,1745184971500900139
1332832,-264,-406,97,1127,1831,-7547,1745184971500900139
1333024,-282,-415,82,997,2028,-7469,1745184971556197603
1333216,-294,-406,88,684,1969,-7426,1745184971556197603
1333408,-323,-398,83,475,1870,-7523,1745184971556197603
1333600,-368,-400,81,389,2051,-7419,1745184971556197603
1333792,-411,-411,88,303,2245,-7482,1745184971556197603
1333984,-447,-410,102,19,2331,-7230,1745184971556197603
1334176,-463,-371,111,-360,2567,-6712,1745184971556197603
1334368,-485,-295,104,-467,2670,-6973,1745184971556197603
1334560,-500,-238,48,-217,2431,-7400,1745184971556197603
1334752,-489,-225,-47,98,2425,-7418,1745184971556197603
1334944,-478,-253,-128,263,2725,-7687,1745184971556197603
1335136,-557,-310,-105,396,3027,-7833,1745184971556197603
1406176,-387,-657,92,506,3277,-7115,1745184973419104804
1406368,-341,-644,85,476,2533,-7177,1745184973419104804
1406560,-418,-751,113,640,2986,-6997,1745184973419104804
1406752,-421,-769,152,611,3359,-6949,1745184973419104804
1406944,-414,-752,192,350,3322,-7100,1745184973419104804
1407136,-447,-698,210,-527,2943,-7177,1745184973419104804
1407328,-499,-586,203,-1356,2773,-7286,1745184973419104804
1407520,-512,-470,174,-1771,2767,-7393,1745184973419104804
1407712,-517,-384,118,-1993,2919,-7525,1745184973419104804
1407904,-500,-298,41,-2102,3185,-7696,1745184973419104804
1408096,-470,-232,-38,-1852,3434,-7729,1745184973419104804
1408288,-449,-199,-97,-1220,3544,-7655,1745184973419104804
1408480,-417,-206,-113,-67,3678,-7636,1745184973471889113
1408672,-400,-264,-83,944,3851,-7703,1745184973471889113
1408864,-381,-293,-21,1035,4078,-8073,1745184973471889113
1409056,-348,-254,43,526,4269,-8437,1745184973471889113
1409248,-291,-189,69,-15,4350,-8410,1745184973471889113
1409440,-199,-102,50,-364,4506,-8259,1745184973471889113
1409632,-98,-4,7,-499,4644,-8195,1745184973471889113
1409824,3,101,-28,-530,4610,-8207,1745184973471889113
1410016,130,214,-25,-474,4859,-8246,1745184973471889113
1410208,300,331,8,-192,5255,-8321,1745184973471889113
1410400,507,438,50,203,5822,-8376,1745184973471889113
1410592,766,555,116,439,6629,-8218,1745184973471889113
1410784,1089,669,186,710,7514,-8159,1745184973536611022
1410976,1477,734,209,943,7712,-7758,1745184973536611022
1411168,1819,805,194,310,7118,-8427,1745184973536611022
1411360,2200,741,268,-1257,5894,-10179,1745184973536611022
1411552,2733,334,552,-3604,4198,-4260,1745184973536611022
1411744,1464,1802,7,-11361,-4246,-600,1745184973536611022
1411936,1765,2444,-312,-7220,-3096,-6184,1745184973536611022
1412128,1270,2042,-464,-2170,-3256,-7490,1745184973536611022
1412320,804,1837,-458,1245,-2166,-7873,1745184973536611022
1412512,202,1404,-302,3501,-1236,-8326,1745184973536611022
1412704,-265,816,-112,5663,6,-7719,1745184973536611022
1412896,-559,572,-10,6689,1358,-7627,1745184973536611022
1413088,-697,437,28,6710,2888,-7587,1745184973588887628
1413280,-799,315,42,6184,4665,-8664,1745184973588887628
1413472,-1056,173,67,5298,5125,-6205,1745184973588887628
1413664,-476,57,49,3802,5830,-7112,1745184973588887628
1413856,-253,-29,57,2345,5518,-7487,1745184973588887628
1414048,-87,-97,46,515,4877,-7233,1745184973588887628
1414240,83,-25,19,-703,4071,-7121,1745184973588887628
1414432,197,54,0,-1407,3368,-7160,1745184973588887628
1414624,236,131,-15,-1561,2770,-7084,1745184973588887628
1414816,226,189,-38,-1254,2273,-6813,1745184973588887628
1415008,187,254,-56,-773,1984,-7084,1745184973588887628
1415200,96,265,-61,-157,1846,-7233,1745184973588887628
1415392,6,258,-57,505,1911,-7239,1745184973664924381
1415584,-45,256,-58,1031,2120,-7205,1745184973664924381
1415776,-80,232,-72,1218,2402,-7738,1745184973664924381
1415968,-135,136,-74,1453,2674,-7402,1745184973664924381
1416160,-130,97,-80,1389,2914,-7244,1745184973664924381
1416352,-115,68,-80,1229,3120,-7189,1745184973664924381
1416544,-100,53,-85,1040,3212,-7182,1745184973664924381
1416736,-78,50,-93,902,3190,-7313,1745184973664924381
1416928,-56,54,-104,814,3177,-7424,1745184973664924381
1417120,-37,66,-120,787,3109,-7478,1745184973664924381
1417312,-24,82,-136,867,3036,-7531,1745184973664924381
1417504,-14,94,-153,989,2951,-7559,1745184973664924381
1417696,-8,96,-170,1116,2884,-7555,1745184973708256225
1417888,-4,90,-179,1229,2792,-7510,1745184973708256225
1418080,1,75,-177,1278,2684,-7455,1745184973708256225
1418272,8,59,-170,1223,2620,-7423,1745184973708256225
1418464,12,45,-170,1066,2629,-7368,1745184973708256225
1418656,13,38,-179,911,2659,-7339,1745184973708256225
1418848,11,33,-193,779,2737,-7333,1745184973708256225
1419040,6,31,-208,612,2783,-7315,1745184973708256225
1419232,1,37,-212,449,2828,-7341,1745184973708256225
1419424,2,47,-207,389,2906,-7478,1745184973708256225
1419616,5,53,-202,409,3073,-7677,1745184973708256225
1419808,12,54,-204,508,3247,-7860,1745184973708256225
1420000,21,55,-211,596,3398,-7947,1745184973767778702
1420192,35,58,-216,704,3530,-7938,1745184973767778702
1420384,54,60,-217,826,3586,-7872,1745184973767778702
1420576,74,59,-213,927,3581,-7775,1745184973767778702
1420768,95,55,-211,983,3532,-7642,1745184973767778702
1420960,115,47,-210,984,3460,-7514,1745184973767778702
1421152,128,39,-212,959,3384,-7369,1745184973767778702
1421344,131,32,-217,937,3304,-7273,1745184973767778702
1421536,128,26,-222,913,3184,-7225,1745184973767778702
1421728,124,21,-215,896,2972,-7189,1745184973767778702
1421920,128,15,-198,922,2791,-7171,1745184973767778702
1422112,136,7,-181,962,2657,-7185,1745184973767778702
1422304,140,-5,-175,1012,2575,-7170,1745184973824916514
1422496,138,-18,-175,1061,2577,-7173,1745184973824916514
1422688,117,-30,-177,1115,2608,-7154,1745184973824916514
1422880,88,-46,-172,1158,2631,-7133,1745184973824916514
1423072,51,-64,-158,1193,2677,-7145,1745184973824916514
1423264,19,-83,-136,1199,2782,-7167,1745184973824916514
1423456,-16,-101,-120,1182,2996,-7187,1745184973824916514
1423648,-48,-119,-116,1140,3188,-7234,1745184973824916514
1423840,-71,-133,-113,1107,3408,-7337,1745184973824916514
1424032,-86,-148,-107,1062,3638,-7455,1745184973824916514
1424224,-98,-154,-94,1005,3685,-7517,1745184973824916514
1424416,-91,-156,-65,1001,3653,-7562,1745184973824916514
1424608,-70,-158,-30,1001,3586,-7554,1745184973889198478
1424800,-47,-162,-7,985,3502,-7553,1745184973889198478
1424992,-28,-170,7,932,3357,-7617,1745184973889198478
1425184,-22,-180,24,835,3225,-7728,1745184973889198478
1425376,-36,-186,45,691,3151,-7559,1745184973889198478
1425568,-68,-186,60,581,3214,-7534,1745184973889198478
1425760,-106,-188,63,562,3330,-7559,1745184973889198478
1425952,-135,-190,71,596,3415,-7641,1745184973889198478
1426144,-150,-191,97,655,3546,-7620,1745184973889198478
1426336,-158,-192,123,735,3670,-7669,1745184973889198478
1426528,-157,-191,135,783,3696,-7775,1745184973889198478
1426720,-139,-192,144,764,3560,-7903,1745184973889198478
1426912,-108,-190,160,652,3342,-7970,1745184973940817903
1427104,-81,-183,176,480,3113,-7907,1745184973940817903
1427296,-63,-170,181,313,2912,-7846,1745184973940817903
1427488,-50,-154,171,172,2769,-7835,1745184973940817903
1427680,-41,-140,151,91,2711,-7850,1745184973940817903
1427872,-32,-122,128,57,2743,-7813,1745184973940817903
1428064,-23,-98,108,65,2816,-7703,1745184973940817903
1428256,-8,-73,96,221,2880,-7663,1745184973940817903
1428448,16,-52,94,355,2853,-7756,1745184973940817903
1428640,49,-44,104,509,2727,-7619,1745184973940817903
1428832,84,-33,105,590,2756,-7249,1745184973940817903
1429024,92,-20,71,622,2924,-7017,1745184973940817903
1429216,76,-18,15,635,2966,-7274,1745184973997968891
1429408,65,-26,7,653,2668,-7594,1745184973997968891
1429600,78,-46,64,630,2375,-7875,1745184973997968891
1429792,86,-66,100,560,2389,-7774,1745184973997968891
1429984,69,-65,52,546,2501,-7551,1745184973997968891
1430176,51,-46,-26,621,2523,-7326,1745184973997968891
1430368,41,-26,-60,820,2709,-7034,1745184973997968891
1430560,18,-14,-65,1103,2960,-6860,1745184973997968891
1430752,-5,-19,-57,1342,2996,-6854,1745184973997968891
1430944,5,-43,-31,1471,2896,-7045,1745184973997968891
1431136,29,-88,-15,1388,2832,-7368,1745184973997968891
1431328,39,-141,-33,1078,2696,-7668,1745184973997968891
1431520,43,-178,-63,640,2494,-7744,1745184974065005362
1431712,40,-193,-90,273,2516,-7639,1745184974065005362
1431904,12,-186,-119,29,2585,-7460,1745184974065005362
1432096,-26,-165,-140,55,2697,-7321,1745184974065005362
1432288,-59,-143,-140,229,2832,-7266,1745184974065005362
1432480,-80,-131,-127,508,2933,-7356,1745184974065005362
1432672,-79,-134,-112,707,2911,-7413,1745184974065005362
1432864,-54,-149,-104,729,2839,-7422,1745184974065005362
1433056,-21,-171,-115,608,2820,-7438,1745184974065005362
1433248,3,-191,-145,388,2856,-7456,1745184974065005362
1433440,11,-202,-177,163,2876,-7493,1745184974065005362
1433632,2,-200,-195,23,2934,-7463,1745184974065005362
1433824,-25,-187,-195,32,3008,-7536,1745184974116653067
1434016,-56,-167,-186,172,3065,-7626,1745184974116653067
1434208,-77,-152,-180,412,3147,-7686,1745184974116653067
1434400,-82,-143,-186,633,3246,-7662,1745184974116653067
1434592,-75,-138,-200,766,3355,-7553,1745184974116653067
1434784,-61,-135,-215,822,3412,-7538,1745184974116653067
1434976,-44,-136,-223,794,3357,-7599,1745184974116653067
1435168,-27,-144,-218,689,3181,-7748,1745184974116653067
1435360,-11,-152,-204,530,2929,-7839,1745184974116653067
1435552,-1,-153,-195,321,2756,-7787,1745184974116653067
1435744,-8,-144,-205,121,2694,-7643,1745184974116653067
1435936,-33,-127,-227,12,2686,-7571,1745184974116653067
1436128,-65,-109,-245,23,2715,-7574,1745184974173563745
1436320,-94,-90,-251,57,2814,-7513,1745184974173563745
1436512,-116,-67,-247,132,2921,-7378,1745184974173563745
1436704,-127,-44,-240,185,3025,-7293,1745184974173563745
1436896,-122,-25,-226,176,3042,-7310,1745184974173563745
1437088,-115,-9,-210,167,3135,-7492,1745184974173563745
1437280,-123,6,-210,67,3081,-7609,1745184974173563745
1437472,-117,30,-213,-37,2908,-7670,1745184974173563745
1437664,-89,57,-208,-110,2823,-7733,1745184974173563745
1437856,-67,84,-207,-151,2850,-7733,1745184974173563745
1438048,-57,111,-208,-201,2880,-7719,1745184974173563745
1438240,-53,135,-206,-194,2961,-7727,1745184974173563745
1438432,-56,157,-199,-140,3054,-7697,1745184974234855165
1438624,-58,178,-187,-64,3119,-7648,1745184974234855165
1438816,-59,195,-172,55,3214,-7674,1745184974234855165
1439008,-63,212,-162,208,3324,-7731,1745184974234855165
1439200,-72,223,-153,355,3390,-7744,1745184974234855165
1439392,-81,230,-139,512,3464,-7764,1745184974234855165
1439584,-93,235,-122,645,3511,-7728,1745184974234855165
1439776,-107,240,-107,696,3539,-7637,1745184974234855165
1439968,-115,241,-89,703,3569,-7546,1745184974234855165
1440160,-125,238,-70,641,3636,-7579,1745184974234855165
1440352,-139,228,-54,551,3729,-7679,1745184974234855165
1440544,-149,216,-36,378,3773,-7737,1745184974234855165
1440736,-151,211,-9,235,3918,-7804,1745184974293470515
1440928,-161,212,8,147,4039,-7773,1745184974293470515
1441120,-173,220,11,79,4111,-7692,1745184974293470515
1441312,-172,232,14,66,4097,-7636,1745184974293470515
1441504,-156,242,22,62,4058,-7639,1745184974293470515
1441696,-134,250,39,95,3950,-7678,1745184974293470515
1441888,-109,252,61,146,3763,-7743,1745184974293470515
1442080,-80,250,82,211,3538,-7722,1745184974293470515
1442272,-52,250,96,292,3330,-7628,1745184974293470515
1442464,-27,250,104,393,3128,-7477,1745184974293470515
1442656,-10,246,107,495,2947,-7350,1745184974293470515
1442848,-3,236,113,582,2797,-7252,1745184974293470515
1443040,-6,219,121,659,2739,-7151,1745184974352768827
1443232,-17,201,123,745,2761,-7048,1745184974352768827
1443424,-33,183,117,800,2882,-6928,1745184974352768827
1443616,-48,167,105,846,2983,-6885,1745184974352768827
1443808,-57,151,95,895,3063,-6870,1745184974352768827
1444000,-56,132,95,921,3119,-6889,1745184974352768827
1444192,-49,114,101,953,3116,-6948,1745184974352768827
1444384,-40,91,107,1000,3091,-6956,1745184974352768827
1444576,-31,69,105,998,3040,-6944,1745184974352768827
1444768,-26,49,94,985,2991,-6987,1745184974352768827
1444960,-27,29,83,1028,2997,-7087,1745184974352768827
1445152,-36,2,76,1085,3027,-7213,1745184974352768827
1445344,-48,-28,72,1105,3081,-7236,1745184974408543057
1445536,-57,-55,63,1069,3202,-7143,1745184974408543057
1445728,-68,-78,48,982,3276,-7045,1745184974408543057
1445920,-73,-103,39,864,3281,-7061,1745184974408543057
1446112,-65,-132,41,763,3244,-7148,1745184974408543057
1446304,-47,-154,42,610,3154,-7170,1745184974408543057
1446496,-22,-165,39,462,3048,-7127,1745184974408543057
1446688,5,-167,34,344,2920,-7144,1745184974408543057
1446880,23,-165,28,269,2825,-7188,1745184974408543057
1447072,26,-168,22,260,2734,-7305,1745184974408543057
1447264,20,-178,19,295,2686,-7510,1745184974408543057
1447456,19,-193,16,399,2736,-7671,1745184974408543057
1447648,30,-206,14,514,2884,-7677,1745184974479632720
1447840,48,-212,10,602,3120,-7603,1745184974479632720
1448032,70,-214,3,684,3320,-7466,1745184974479632720
1448224,95,-217,-3,750,3465,-7288,1745184974479632720
1448416,116,-224,-4,769,3532,-7229,1745184974479632720
1448608,133,-239,4,761,3497,-7252,1745184974479632720
1448800,142,-254,16,715,3493,-7357,1745184974479632720
1448992,138,-268,20,652,3491,-7412,1745184974479632720
1449184,131,-277,18,578,3507,-7374,1745184974479632720
1449376,123,-278,20,564,3484,-7306,1745184974479632720
1449568,113,-277,30,559,3456,-7317,1745184974479632720
1449760,98,-279,47,595,3386,-7357,1745184974479632720
1449952,80,-286,69,652,3325,-7366,1745184974524272573
1450144,56,-303,88,740,3287,-7420,1745184974524272573
1450336,23,-325,106,773,3274,-7474,1745184974524272573
1450528,-19,-350,122,772,3306,-7485,1745184974524272573
1450720,-61,-375,139,729,3339,-7452,1745184974524272573
1450912,-99,-400,157,680,3427,-7422,1745184974524272573
1451104,-133,-426,172,587,3541,-7419,1745184974524272573
1451296,-161,-447,181,498,3658,-7408,1745184974524272573
1451488,-183,-464,182,414,3794,-7386,1745184974524272573
1451680,-201,-475,179,290,3882,-7388,1745184974524272573
1451872,-212,-481,180,202,3922,-7551,1745184974524272573
1452064,-216,-486,188,115,3888,-7738,1745184974524272573
1452256,-209,-490,200,36,3796,-7860,1745184974584525200
1452448,-188,-492,208,-61,3685,-7868,1745184974584525200
1452640,-159,-485,214,-200,3532,-7823,1745184974584525200
1452832,-127,-475,217,-284,3312,-7781,1745184974584525200
1453024,-95,-465,218,-312,3100,-7733,1745184974584525200
1453216,-68,-457,216,-349,2931,-7639,1745184974584525200
1453408,-47,-445,207,-384,2838,-7562,1745184974584525200
1453600,-33,-433,189,-283,2781,-7485,1745184974584525200
1453792,-25,-425,170,-206,2738,-7404,1745184974584525200
1453984,-20,-419,156,-89,2720,-7328,1745184974584525200
1454176,-20,-415,146,17,2699,-7234,1745184974584525200
1454368,-26,-414,137,152,2707,-7188,1745184974584525200
1454560,-36,-419,124,-229,-1,-1,1745184974642809511
1454752,-50,-428,107,372,2718,-7215,1745184974642809511
1454944,-66,-442,90,420,2777,-7234,1745184974642809511
1455136,-82,-459,74,433,2839,-7267,1745184974642809511
1455328,-97,-484,63,401,2946,-7306,1745184974642809511
1455520,-109,-519,54,309,3083,-7317,1745184974642809511
1455712,-117,-557,42,241,3164,-7181,1745184974642809511
1455904,-89,-547,20,132,3189,-6943,1745184974642809511
1456096,-64,-518,2,-33,3172,-7284,1745184974642809511
1456288,-62,-528,-14,-138,3149,-7292,1745184974642809511
1456480,-67,-524,-32,-242,3112,-7390,1745184974642809511
1456672,-80,-528,-51,-348,3049,-7418,1745184974642809511
1456864,-89,-531,-68,-476,3062,-7424,1745184974701418298
1457056,-96,-526,-84,-586,3085,-7384,1745184974701418298
1457248,-103,-511,-98,-672,3102,-7381,1745184974701418298
1457440,-109,-490,-109,-736,3047,-7443,1745184974701418298
1457632,-108,-470,-114,-763,2917,-7531,1745184974701418298
1457824,-92,-450,-115,-807,2808,-7629,1745184974701418298
1458016,-72,-428,-121,-864,2798,-7643,1745184974701418298
1458208,-56,-402,-135,-885,2836,-7643,1745184974701418298
1458400,-45,-376,-153,-864,2872,-7612,1745184974701418298
1458592,-38,-348,-166,-806,2905,-7507,1745184974701418298
1458784,-32,-322,-170,-756,2967,-7383,1745184974701418298
1458976,-28,-299,-173,-686,3005,-7358,1745184974701418298
1459168,-25,-279,-178,-650,3022,-7358,1745184974777614165
1459360,-22,-261,-177,-609,3050,-7438,1745184974777614165
1459552,-28,-244,-174,-595,3152,-7489,1745184974777614165
1459744,-35,-224,-173,-619,3311,-7467,1745184974777614165
1459936,-43,-203,-172,-670,3439,-7496,1745184974777614165
1460128,-49,-177,-167,-764,3549,-7481,1745184974777614165
1460320,-57,-150,-160,-858,3638,-7602,1745184974777614165
1460512,-61,-119,-153,-928,3686,-7694,1745184974777614165
1460704,-52,-80,-148,-1005,3718,-7683,1745184974777614165
1460896,-39,-35,-148,-1027,3743,-7745,1745184974777614165
1461088,-32,8,-147,-1021,3754,-7839,1745184974777614165
1461280,-31,46,-146,-1040,3756,-7969,1745184974777614165
1461472,-30,81,-143,-1057,3763,-8123,1745184974817089013
1461664,-25,116,-141,-1125,3746,-8147,1745184974817089013
1461856,-12,159,-140,-1183,3758,-8148,1745184974817089013
1462048,5,209,-140,-1225,3753,-8113,1745184974817089013
1462240,22,266,-136,-1211,3760,-8069,1745184974817089013
1462432,44,324,-131,-1191,3750,-8155,1745184974817089013
1462624,67,381,-124,-1161,3764,-8270,1745184974817089013
1462816,101,440,-112,-1139,3717,-8327,1745184974817089013
1463008,139,496,-100,-1061,3729,-8274,1745184974817089013
1463200,179,554,-95,-1022,3735,-8158,1745184974817089013
1463392,215,610,-99,-975,3682,-8114,1745184974817089013
1463584,248,661,-101,-901,3574,-8003,1745184974817089013
1463776,281,705,-94,-848,3419,-7891,1745184974878749595
1463968,310,743,-84,-775,3303,-7894,1745184974878749595
1464160,337,778,-77,-679,3178,-7839,1745184974878749595
1464352,369,814,-71,-589,3068,-7710,1745184974878749595
1464544,403,853,-67,-531,3016,-7628,1745184974878749595
1464736,434,891,-69,-421,3000,-7560,1745184974878749595
1464928,467,925,-71,-304,3019,-7517,1745184974878749595
1465120,507,952,-76,-222,3040,-7461,1745184974878749595
1465312,548,978,-84,-117,3139,-7353,1745184974878749595
1465504,580,1009,-94,-38,3218,-7183,1745184974878749595
1465696,596,1041,-104,42,3268,-7220,1745184974878749595
1465888,602,1065,-113,121,3282,-7440,1745184974878749595
1466080,600,1081,-121,124,3300,-7625,1745184974932320043
1466272,595,1094,-126,68,3246,-7712,1745184974932320043
1466464,589,1109,-126,59,3272,-7815,1745184974932320043
1466656,593,1137,-126,73,3400,-7871,1745184974932320043
1466848,615,1177,-139,-86,3638,-8617,1745184974932320043
1467040,589,1124,-150,-32,3798,-8661,1745184974932320043
1467232,615,1106,-167,-117,3939,-8714,1745184974932320043
1467424,673,1123,-177,-194,4078,-8854,1745184974932320043
1467616,744,1136,-182,-182,4164,-8855,1745184974932320043
1467808,830,1162,-187,-62,4164,-8848,1745184974932320043
1468000,928,1182,-200,88,4101,-8790,1745184974932320043
1468192,1038,1200,-218,278,4051,-8795,1745184974932320043
1468384,1147,1212,-246,481,3946,-8914,1745184974997045181
1468576,1260,1207,-282,690,3797,-9066,1745184974997045181
1468768,1381,1190,-315,915,3720,-9356,1745184974997045181
1468960,1517,1149,-356,1085,3618,-9676,1745184974997045181
1469152,1655,1092,-406,1131,3446,-9874,1745184974997045181
1469344,1752,1087,-444,742,2938,-9219,1745184974997045181
1469536,1732,1237,-451,-63,1817,-8565,1745184974997045181
1469728,1629,1437,-388,-373,824,-10061,1745184974997045181
1469920,1541,1536,-297,98,338,-12239,1745184974997045181
1470112,1444,1554,-229,997,410,-13765,1745184974997045181
1470304,1313,1484,-208,1709,696,-14132,1745184974997045181
1470496,1065,1416,-218,2336,1078,-13666,1745184974997045181
1470688,905,1319,-231,2936,1598,-13510,1745184975056360264
1470880,897,1205,-213,3732,2355,-14220,1745184975056360264
1471072,1014,1066,-186,4241,3004,-14365,1745184975056360264
1471264,1186,929,-179,4463,3543,-14425,1745184975056360264
1471456,1375,800,-216,4576,3900,-14637,1745184975056360264
1471648,1589,643,-273,4695,4292,-14561,1745184975056360264
1471840,1808,513,-336,4583,4561,-14006,1745184975056360264
1472032,2018,421,-385,4390,4516,-13242,1745184975056360264
1472224,2208,378,-412,4097,4188,-12439,1745184975056360264
1472416,2360,369,-421,3910,3721,-11739,1745184975056360264
1472608,2446,389,-433,3877,3232,-11071,1745184975056360264
1472800,2438,419,-456,3994,2727,-10378,1745184975056360264
1472992,2315,453,-491,4188,2269,-9902,1745184975118619696
1473184,2087,469,-502,4595,1802,-9827,1745184975118619696
1473376,1788,418,-467,5334,1403,-10033,1745184975118619696
1473568,1444,338,-397,6124,1131,-10356,1745184975118619696
1473760,1097,211,-302,7101,1118,-11208,1745184975118619696
1473952,772,28,-224,8100,1462,-11982,1745184975118619696
1474144,480,-201,-174,8935,1880,-12504,1745184975118619696
1474336,281,-468,-132,9521,2169,-13126,1745184975118619696
1474528,212,-748,-92,9826,2402,-13807,1745184975118619696
1474720,239,-1024,-74,9796,2537,-14485,1745184975118619696
1474912,330,-1269,-84,9470,2465,-14852,1745184975118619696
1475104,441,-1463,-116,8928,2136,-14897,1745184975118619696
1475296,533,-1623,-149,8374,1608,-14732,1745184975174544862
1475488,587,-1769,-175,7847,1002,-14518,1745184975174544862
1475680,594,-1909,-189,7429,460,-14254,1745184975174544862
1475872,557,-2047,-190,7103,71,-13871,1745184975174544862
1476064,476,-2184,-186,7017,-39,-13580,1745184975174544862
1476256,349,-2339,-196,7079,78,-13178,1745184975174544862
1476448,201,-2516,-224,7213,338,-12799,1745184975174544862
1476640,50,-2703,-263,7305,617,-12365,1745184975174544862
1476832,-80,-2889,-296,7290,953,-11914,1745184975174544862
1477024,-172,-3074,-312,7254,1375,-11460,1745184975174544862
1477216,-218,-3250,-316,7138,1909,-11055,1745184975174544862
1477408,-207,-3417,-312,6990,2311,-10599,1745184975174544862
1477600,-133,-3564,-299,6828,2726,-10201,1745184975235884093
1477792,-10,-3690,-284,6612,3064,-9775,1745184975235884093
1477984,145,-3792,-271,6424,3234,-9344,1745184975235884093
1478176,308,-3872,-265,6266,3262,-8834,1745184975235884093
1478368,464,-3936,-261,6103,3129,-8247,1745184975235884093
1478560,595,-3998,-257,6115,2979,-7697,1745184975235884093
1478752,686,-4073,-256,6058,2636,-7088,1745184975235884093
1478944,753,-4159,-235,6020,2280,-6678,1745184975235884093
1479136,802,-4271,-199,6033,1940,-6368,1745184975235884093
1479328,818,-4383,-163,5878,1650,-5908,1745184975235884093
1479520,795,-4491,-131,5635,1362,-5376,1745184975235884093
1479712,745,-4587,-99,5284,1109,-4839,1745184975235884093
1479904,670,-4664,-59,4923,897,-4213,1745184975293091591
1480096,567,-4730,-20,4538,735,-3556,1745184975293091591
1480288,448,-4792,21,4176,617,-2948,1745184975293091591
1480480,326,-4850,53,3971,603,-2631,1745184975293091591
1480672,218,-4918,72,3771,632,-2541,1745184975293091591
1480864,135,-4986,80,3616,675,-2491,1745184975293091591
1481056,74,-5050,80,3398,636,-2205,1745184975293091591
1481248,36,-5098,78,3221,606,-1959,1745184975293091591
1481440,10,-5134,75,3012,530,-1698,1745184975293091591
1481632,0,-5158,74,2869,413,-1665,1745184975293091591
1481824,8,-5183,72,2771,260,-1633,1745184975293091591
1482016,20,-5194,68,2573,12,-1170,1745184975293091591
1482208,43,-5201,81,2423,-191,-783,1745184975346573030
1482400,73,-5240,99,2397,-210,-510,1745184975346573030
1482592,84,-5284,89,2280,-90,-147,1745184975346573030
1482784,62,-5305,38,1879,135,250,1745184975346573030
1482976,-82,-5350,-26,1113,244,226,1745184975346573030
1483168,-82,-5412,-121,1272,132,3079,1745184975346573030
1483360,21,-5210,-183,458,281,2823,1745184975346573030
1483552,23,-5188,-198,-35,554,3072,1745184975346573030
1483744,21,-5131,-225,-506,710,3604,1745184975346573030
1483936,26,-5059,-247,-999,706,3805,1745184975346573030
1484128,36,-4962,-263,-1481,577,3860,1745184975346573030
1484320,53,-4866,-263,-2035,381,3940,1745184975346573030
1484512,76,-4729,-256,-2538,97,4064,1745184975406891385
1484704,112,-4598,-249,-3009,-268,4348,1745184975406891385
1484896,187,-4489,-242,-3463,-581,4423,1745184975406891385
1485088,274,-4368,-253,-3930,-690,4424,1745184975406891385
1485280,380,-4238,-291,-4478,-736,4400,1745184975406891385
1485472,613,-4096,-329,-4862,-717,4760,1745184975406891385
1485664,750,-3952,-314,-5667,-410,4918,1745184975406891385
1485856,589,-3762,-372,-5768,-657,6335,1745184975406891385
1486048,634,-3557,-429,-6512,-617,7419,1745184975406891385
1486240,699,-3375,-459,-6485,-904,8106,1745184975406891385
1486432,732,-3177,-497,-6956,-1161,8218,1745184975406891385
1486624,708,-2919,-520,-7487,-1548,8289,1745184975406891385
1486816,637,-2712,-533,-7908,-1862,8551,1745184975466280218
1487008,531,-2514,-560,-8363,-2169,8670,1745184975466280218
1487200,393,-2312,-588,-8855,-2552,8686,1745184975466280218
1487392,233,-2134,-623,-9234,-2978,9028,1745184975466280218
1487584,82,-1961,-672,-9623,-3420,9470,1745184975466280218
1487776,-49,-1768,-719,-10048,-3864,9846,1745184975466280218
1487968,-186,-1559,-752,-10548,-4145,9905,1745184975466280218
1488160,-345,-1302,-784,-11173,-4404,9089,1745184975466280218
1488352,-526,-1000,-771,-11565,-4592,7719,1745184975466280218
1488544,-712,-723,-717,-11539,-4603,6772,1745184975466280218
1488736,-830,-509,-639,-11117,-4343,6499,1745184975466280218
1488928,-861,-329,-559,-10545,-3685,6317,1745184975466280218
1489120,-840,-173,-493,-10031,-3021,6229,1745184975523130584
1489312,-768,-45,-443,-9617,-2527,6377,1745184975523130584
1489504,-625,60,-410,-9331,-2170,6509,1745184975523130584
1489696,-427,157,-387,-9248,-1956,6449,1745184975523130584
1489888,-217,255,-365,-9301,-1887,6369,1745184975523130584
1490080,-12,353,-340,-9431,-2030,6350,1745184975523130584
1490272,171,456,-310,-9593,-2303,6250,1745184975523130584
1490464,318,572,-274,-9716,-2659,6055,1745184975523130584
1490656,424,690,-238,-9754,-2996,5966,1745184975523130584
1490848,498,800,-209,-9715,-3287,5837,1745184975523130584
1491040,551,895,-190,-9610,-3523,5584,1745184975523130584
1491232,585,974,-178,-9431,-3773,5215,1745184975523130584
1491424,602,1042,-171,-9191,-3990,4798,1745184975580492247
1491616,601,1097,-159,-8904,-4157,4347,1745184975580492247
1491808,577,1143,-144,-8555,-4267,3946,1745184975580492247
1492000,528,1178,-130,-8200,-4244,3586,1745184975580492247
1492192,460,1202,-127,-7872,-4159,3115,1745184975580492247
1492384,366,1224,-137,-7584,-4080,2566,1745184975580492247
1492576,251,1233,-147,-7275,-4048,2274,1745184975580492247
1492768,137,1241,-148,-7074,-3932,2169,1745184975580492247
1492960,30,1254,-139,-7048,-3730,2191,1745184975580492247
1493152,-71,1275,-122,-7295,-3592,2307,1745184975580492247
1493344,-158,1296,-77,-7779,-3266,2630,1745184975580492247
1493536,-240,1336,-5,-8373,-2919,3110,1745184975580492247
1493728,-305,1409,93,-8725,-2623,3421,1745184975641919915
1493920,-351,1509,185,-8660,-2360,3350,1745184975641919915
1494112,-383,1609,251,-8143,-2187,3294,1745184975641919915
1494304,-402,1671,304,-7320,-2101,3194,1745184975641919915
1494496,-441,1681,334,-6467,-2253,3039,1745184975641919915
1494688,-519,1645,335,-5736,-2585,3249,1745184975641919915
1494880,-622,1600,342,-5242,-3000,3437,1745184975641919915
1495072,-750,1551,386,-5044,-3346,3348,1745184975641919915
1495264,-919,1517,462,-5200,-3539,3059,1745184975641919915
1495456,-1113,1544,555,-5419,-3685,2626,1745184975641919915
1495648,-1303,1593,640,-5588,-3780,2280,1745184975641919915
1495840,-1435,1645,732,-5680,-3234,2627,1745184975641919915
1496032,-1546,1764,764,-5946,-2659,2327,1745184975697919195
1496224,-1685,1915,752,-6278,-2385,1854,1745184975697919195
1496416,-1723,2028,765,-6274,-1965,1480,1745184975697919195
1496608,-1680,2151,764,-6272,-1568,1253,1745184975697919195
1496800,-1579,2235,775,-6123,-1304,1212,1745184975697919195
1496992,-1453,2429,784,-7149,-828,1375,1745184975697919195
1497184,-1321,2544,826,-5937,-998,1296,1745184975697919195
1497376,-1198,2779,717,-5212,-1119,1083,1745184975697919195
1497568,-1119,2856,650,-4741,-393,1548,1745184975697919195
1497760,-1012,2765,785,-4385,-380,1765,1745184975697919195
1497952,-958,2823,858,-4678,-1005,966,1745184975697919195
1498144,-948,2972,831,-4975,-1265,331,1745184975697919195
1498336,-934,3064,876,-4637,-1022,450,1745184975757729691
1498528,-890,3167,1001,-4375,-1048,304,1745184975757729691
1498720,-834,3252,1103,-4038,-1099,-117,1745184975757729691
1498912,-770,3268,1166,-3441,-1015,-583,1745184975757729691
1499104,-719,3263,1193,-3030,-971,-1092,1745184975757729691
1499296,-691,3257,1195,-2772,-895,-1771,1745184975757729691
1499488,-667,3221,1207,-2583,-684,-2587,1745184975757729691
1499680,-656,3191,1231,-2477,-518,-3360,1745184975757729691
1499872,-647,3170,1255,-2443,-317,-3892,1745184975757729691
1500064,-628,3158,1273,-2354,-47,-4194,1745184975757729691
1500256,-602,3133,1285,-2189,320,-4668,1745184975757729691
1500448,-571,3097,1291,-2148,773,-5194,1745184975757729691
1500640,-547,3068,1279,-2198,1204,-5902,1745184975815973742
1500832,-512,3070,1244,-2190,1756,-6491,1745184975815973742
1501024,-449,3095,1224,-2072,2343,-6446,1745184975815973742
1501216,-351,3104,1241,-1806,2796,-6226,1745184975815973742
1501408,-215,3097,1269,-1567,3167,-6354,1745184975815973742
1501600,-36,3087,1305,-1241,3439,-6497,1745184975815973742
1501792,118,3091,1326,-1139,3451,-6583,1745184975815973742
1501984,212,3121,1319,-1082,3349,-6993,1745184975815973742
1502176,251,3161,1288,-858,3256,-7243,1745184975815973742
1502368,223,3187,1235,-423,3211,-7211,1745184975815973742
1502560,130,3184,1172,250,3344,-7313,1745184975815973742
1502752,57,3140,1081,641,2679,-6962,1745184975815973742
1502944,298,3030,828,1982,4908,-8576,1745184975885353421
1503136,-203,3114,981,1362,3620,-10921,1745184975885353421
1503328,-438,2888,1140,1637,3941,-10000,1745184975885353421
1503520,-561,2846,1177,1642,3544,-10639,1745184975885353421
1503712,-690,2764,1153,1579,3273,-11223,1745184975885353421
1503904,-799,2631,1109,1542,3115,-11745,1745184975885353421
1504096,-900,2484,1074,1399,3194,-12062,1745184975885353421
1504288,-972,2344,1050,1126,3546,-11971,1745184975885353421
1504480,-994,2199,1016,1017,4302,-11566,1745184975885353421
1504672,-944,2080,972,829,5265,-10980,1745184975885353421
1504864,-820,1982,937,758,6231,-10619,1745184975885353421
1505056,-645,1929,931,598,7037,-10446,1745184975885353421
1505248,-439,1907,933,459,7459,-10143,1745184975944213977
1505440,-199,1909,905,198,7454,-9948,1745184975944213977
1505632,64,1942,847,9,7046,-9735,1745184975944213977
1505824,317,1994,776,-223,6369,-9638,1745184975944213977
1506016,521,2027,709,170,5496,-9526,1745184975944213977
1506208,662,2059,641,126,4516,-9410,1745184975944213977
1506400,736,2052,624,204,3548,-9346,1745184975944213977
1506592,758,2030,624,393,2601,-9444,1745184975944213977
1506784,742,2048,612,-221,1822,-9182,1745184975944213977
1506976,704,2061,626,-580,1239,-9264,1745184975944213977
1507168,650,2071,607,1818,863,-8970,1745184975944213977
1507360,548,1947,599,2122,241,-8999,1745184975944213977
1507552,383,1786,552,2295,-237,-9151,1745184975996372042
1507744,174,1666,478,1983,-210,-9333,1745184975996372042
1507936,-51,1552,436,1661,225,-9057,1745184975996372042
1508128,-250,1442,402,1442,811,-8866,1745184975996372042
1508320,-384,1354,341,858,1402,-8588,1745184975996372042
1508512,-477,1301,294,647,2002,-8503,1745184975996372042
1508704,-650,1310,269,701,1802,-8652,1745184975996372042
1508896,-582,1279,165,-209,1553,-8807,1745184975996372042
1509088,-473,1187,69,-100,1469,-8990,1745184975996372042
1509280,-510,1199,60,-975,1562,-9311,1745184975996372042
1509472,-544,1263,114,-969,2257,-9230,1745184975996372042
1509664,-521,1207,205,-32,2598,-9167,1745184975996372042
1509856,-506,1097,157,1083,2151,-9041,1745184976049946448
1510048,-487,1043,92,661,2442,-9297,1745184976049946448
1510240,-480,1034,199,682,2598,-9109,1745184976049946448
1510432,-489,966,344,788,2844,-9389,1745184976049946448
1510624,-509,983,495,116,1770,-7294,1745184976049946448
1510816,-494,925,619,374,1518,-8824,1745184976049946448
1511008,-462,728,517,180,2640,-8634,1745184976049946448
1511200,-505,746,340,146,3950,-7654,1745184976049946448
1511392,-424,727,226,1494,6388,-10089,1745184976049946448
1511584,18,379,58,4024,9388,-15371,1745184976049946448
1511776,623,157,-232,4254,10756,-14076,1745184976049946448
1511968,1035,124,-470,3010,10505,-13447,1745184976049946448
1512160,1107,77,-559,1256,7993,-14461,1745184976109131689
1512352,1014,157,-531,-808,4792,-14476,1745184976109131689
1512544,792,332,-388,-2183,2347,-12583,1745184976109131689
1512736,468,356,-192,-2448,368,-11557,1745184976109131689
1512928,110,319,-39,-2054,-723,-12003,1745184976109131689
1513120,-286,228,34,-1237,-714,-11967,1745184976109131689
1513312,-719,52,31,-228,-114,-12021,1745184976109131689
1513504,-1100,-174,-26,590,924,-11970,1745184976109131689
1513696,-1317,-370,-101,821,2469,-11358,1745184976109131689
1513888,-1410,-509,-177,686,4132,-10870,1745184976109131689
1514080,-1531,-580,-266,231,5870,-11656,1745184976109131689
1514272,-1726,-644,-356,-232,6022,-8522,1745184976109131689
1514464,-1157,-575,-481,-1063,6550,-9984,1745184976167752560
1514656,-731,-430,-481,-1882,6258,-10051,1745184976167752560
1514848,-252,-315,-439,-2090,3662,-9994,1745184976167752560
1515040,172,-106,-510,-3020,2389,-10174,1745184976167752560
1515232,484,22,-462,-3039,1671,-10252,1745184976167752560
1515424,620,122,-383,-2302,1205,-10483,1745184976167752560
1515616,623,154,-265,-1244,983,-10888,1745184976167752560
1515808,585,140,-63,-15,534,-11241,1745184976167752560
1516000,544,115,164,1064,200,-11243,1745184976167752560
1516192,461,64,380,2022,-507,-10577,1745184976167752560
1516384,352,9,548,2801,-1043,-10374,1745184976167752560
1516576,187,-73,613,3270,-1248,-10390,1745184976167752560
1516768,-41,-162,590,3262,-1036,-10322,1745184976227046549
1516960,-281,-220,544,2869,-589,-9913,1745184976227046549
1517152,-488,-289,477,2405,-197,-9266,1745184976227046549
1517344,-626,-327,405,1809,351,-8718,1745184976227046549
1517536,-709,-355,360,1113,1012,-8297,1745184976227046549
1517728,-762,-352,354,433,1720,-7626,1745184976227046549
1517920,-815,-332,391,-70,2298,-7321,1745184976227046549
1518112,-835,-329,403,101,2416,-6630,1745184976227046549
1518304,-808,-302,351,-288,2680,-6459,1745184976227046549
1518496,-794,-212,244,-849,3036,-6810,1745184976227046549
1518688,-765,-147,139,-1014,3358,-7112,1745184976227046549
1518880,-746,-55,72,-1066,3506,-7273,1745184976227046549
1519072,-689,-13,76,-853,3641,-7540,1745184976284654148
1519264,-606,1,147,-596,3567,-7687,1745184976284654148
1519456,-506,26,228,-536,3322,-7748,1745184976284654148
1519648,-419,48,283,-556,3013,-7979,1745184976284654148
1519840,-362,68,293,-556,2789,-8342,1745184976284654148
1520032,-349,69,262,-571,2536,-8614,1745184976284654148
1520224,-376,39,233,-611,2491,-8768,1745184976284654148
1520416,-432,-6,231,-628,2412,-8812,1745184976284654148
1520608,-488,-45,229,-700,2431,-8603,1745184976284654148
1520800,-531,-91,238,-674,2603,-8317,1745184976284654148
1520992,-547,-125,256,-756,2782,-8125,1745184976284654148
1521184,-523,-137,277,-862,2999,-7884,1745184976284654148
1521376,-482,-139,291,-1080,3132,-7748,1745184976343998450
1521568,-455,-161,288,-1011,3227,-7552,1745184976343998450
1521760,-399,-166,297,-1107,3257,-7507,1745184976343998450
1521952,-313,-112,221,-1159,2747,-7466,1745184976343998450
1522144,-278,-43,143,-1707,3408,-7297,1745184976343998450
1522336,-258,-9,323,-1548,4233,-7283,1745184976343998450
1522528,-222,-64,591,-535,4407,-7198,1745184976343998450
1522720,-148,-170,630,455,3705,-7340,1745184976343998450
1522912,-99,-247,398,957,2844,-7546,1745184976343998450
1523104,-150,-430,108,1029,2236,-6821,1745184976343998450
1523296,-104,-311,28,-112,2440,-7265,1745184976343998450
1523488,-167,-171,203,-600,2877,-7559,1745184976343998450
1523680,-220,-178,360,-433,2798,-7272,1745184976398990083
1523872,-220,-161,374,-402,2597,-7397,1745184976398990083
1524064,-196,-178,287,-508,2445,-7572,1745184976398990083
1524256,-190,-153,239,-618,2605,-7737,1745184976398990083
1524448,-181,-102,293,-874,2954,-7300,1745184976398990083
1524640,-143,-43,370,-412,3108,-8086,1745184976398990083
1524832,-165,-140,419,159,3298,-7306,1745184976398990083
1525024,-132,-275,373,700,3071,-7026,1745184976398990083
1525216,-131,-330,251,291,3102,-7161,1745184976398990083
1525408,-171,-346,172,-240,3041,-7247,1745184976398990083
1525600,-202,-340,163,-458,2855,-7409,1745184976398990083
1525792,-222,-351,174,-577,2604,-7691,1745184976398990083
1525984,-242,-372,173,-756,2334,-7723,1745184976459156981
1526176,-266,-395,170,-867,2072,-7525,1745184976459156981
1526368,-260,-374,158,-796,1897,-7089,1745184976459156981
1526560,-271,-329,132,-736,1884,-7055,1745184976459156981
1526752,-320,-339,109,-554,1981,-6807,1745184976459156981
1526944,-373,-353,134,-224,2268,-6618,1745184976459156981
1527136,-436,-377,162,18,2581,-6542,1745184976459156981
1527328,-491,-392,174,173,2835,-6466,1745184976459156981
1527520,-533,-399,161,138,3090,-6716,1745184976459156981
1527712,-556,-409,138,-66,3294,-7096,1745184976459156981
1527904,-551,-429,121,-421,3386,-7376,1745184976459156981
1528096,-515,-440,110,-873,3414,-7650,1745184976459156981
1528288,-459,-422,107,-1301,3446,-7882,1745184976519882780
1528480,-403,-400,105,-1482,3491,-7952,1745184976519882780
1528672,-368,-362,79,-1591,3575,-7923,1745184976519882780
1528864,-337,-320,48,-1588,3660,-8083,1745184976519882780
1529056,-314,-292,15,-1456,3605,-8045,1745184976519882780
1529248,-291,-270,-9,-1359,3381,-8018,1745184976519882780
1529440,-260,-254,-13,-1365,3102,-7826,1745184976519882780
1529632,-230,-241,-8,-1509,2865,-7692,1745184976519882780
1529824,-208,-215,5,-1737,2619,-8125,1745184976519882780
1530016,-181,-189,13,-1886,2505,-8149,1745184976519882780
1530208,-149,-167,1,-1974,2672,-8204,1745184976519882780
1530400,-130,-115,-24,-1943,3081,-8041,1745184976519882780
1530592,-122,-52,-42,-1776,3514,-7880,1745184976573954474
1530784,-102,17,-37,-1475,3959,-7774,1745184976573954474
1530976,-56,75,-12,-1166,4241,-7682,1745184976573954474
1531168,15,118,25,-886,4335,-7623,1745184976573954474
1531360,97,140,50,-736,4251,-7581,1745184976573954474
1531552,165,149,46,-808,3947,-7542,1745184976573954474
1531744,210,161,30,-1088,3507,-7623,1745184976573954474
1531936,227,178,25,-1322,3184,-7857,1745184976573954474
1532128,204,203,17,-1435,3137,-7999,1745184976573954474
1532320,153,232,6,-1367,3277,-7994,1745184976573954474
1532512,106,265,2,-1171,3580,-7842,1745184976573954474
1532704,77,282,7,-869,3873,-7584,1745184976573954474
1532896,69,291,14,-666,4027,-7391,1745184976632916748
1533088,81,291,27,-632,4016,-7332,1745184976632916748
1533280,106,287,46,-744,3876,-7330,1745184976632916748
1533472,133,295,62,-982,3680,-7415,1745184976632916748
1533664,151,308,62,-1209,3531,-7487,1745184976632916748
1533856,156,324,52,-1308,3370,-7390,1745184976632916748
1534048,148,345,49,-1369,3294,-7349,1745184976632916748
1534240,136,369,68,-1271,3274,-7310,1745184976632916748
1534432,167,434,99,-977,3193,-6865,1745184976632916748
1534624,179,467,105,-994,3408,-8344,1745184976632916748
1534816,96,366,101,-593,3215,-7306,1745184976632916748
1535008,103,369,87,-386,3227,-7427,1745184976632916748
1535200,107,348,93,-388,3158,-7223,1745184976695612477
1535392,118,352,121,-411,3015,-7180,1745184976695612477
1535584,129,339,145,-438,2867,-7277,1745184976695612477
1535776,122,330,144,-508,2818,-7399,1745184976695612477
1535968,96,318,127,-529,2903,-7443,1745184976695612477
1536160,59,306,109,-478,3060,-7423,1745184976695612477
1536352,20,303,98,-335,3258,-7349,1745184976695612477
1536544,-8,299,100,-170,3437,-7172,1745184976695612477
1536736,-17,294,113,-60,3557,-7102,1745184976695612477
1536928,-7,287,129,-30,3594,-7177,1745184976695612477
1537120,24,277,138,-78,3649,-7221,1745184976695612477
1537312,60,274,131,-230,3657,-7277,1745184976695612477
1537504,96,274,115,-358,3618,-7274,1745184976750409425
1537696,128,279,104,-441,3453,-7320,1745184976750409425
1537888,148,295,105,-501,3246,-7395,1745184976750409425
1538080,158,300,115,-457,3090,-7486,1745184976750409425
1538272,158,301,120,-385,3077,-7626,1745184976750409425
1538464,146,293,115,-305,3037,-7711,1745184976750409425
1538656,133,283,107,-250,2981,-7625,1745184976750409425
1538848,127,274,111,-268,2945,-7424,1745184976750409425
1539040,118,262,122,-385,2923,-7313,1745184976750409425
1539232,102,252,129,-563,2900,-7390,1745184976750409425
1539424,86,246,130,-696,2876,-7534,1745184976750409425
1539616,72,247,128,-746,2938,-7545,1745184976750409425
1539808,62,254,121,-693,3116,-7437,1745184976810148723
1540000,61,261,109,-524,3364,-7303,1745184976810148723
1540192,71,263,93,-379,3587,-7532,1745184976810148723
1540384,46,185,88,-242,3695,-7875,1745184976810148723
1540576,107,179,88,99,3517,-6527,1745184976810148723
1540768,202,304,90,-163,3366,-7921,1745184976810148723
1540960,223,264,90,-112,3162,-7369,1745184976810148723
1541152,254,296,75,-155,2998,-7592,1745184976810148723
1541344,270,280,58,-184,2880,-7618,1745184976810148723
1541536,274,279,44,-208,2762,-7645,1745184976810148723
1541728,269,275,35,-223,2684,-7456,1745184976810148723
1541920,268,282,31,-167,2566,-7291,1745184976810148723
1542112,277,293,32,-140,2486,-7189,1745184976872126750
1542304,287,300,34,-70,2499,-7285,1745184976872126750
1542496,289,299,35,5,2540,-7387,1745184976872126750
1542688,287,289,34,77,2595,-7465,1745184976872126750
1542880,288,277,24,120,2692,-7434,1745184976872126750
1543072,279,263,5,143,2806,-7408,1745184976872126750
1543264,261,252,-20,117,2883,-7372,1745184976872126750
1543456,243,237,-37,110,2924,-7433,1745184976872126750
1543648,225,226,-50,126,2928,-7422,1745184976872126750
1543840,207,219,-62,142,3004,-7377,1745184976872126750
1544032,192,215,-78,168,3103,-7381,1745184976872126750
1544224,181,214,-96,161,3186,-7327,1745184976872126750
1544416,182,216,-110,107,3194,-7557,1745184976924833040
1544608,193,222,-111,39,3145,-7750,1745184976924833040
1544800,195,231,-105,24,3054,-7782,1745184976924833040
1544992,187,241,-87,33,3025,-7760,1745184976924833040
1545184,180,244,-60,57,2989,-7765,1745184976924833040
1545376,173,246,-43,80,2987,-7831,1745184976924833040
1545568,152,238,-31,73,3019,-7825,1745184976924833040
1545760,130,229,-9,57,3035,-7745,1745184976924833040
1545952,108,218,17,59,3050,-7649,1745184976924833040
1546144,88,205,36,31,3082,-7596,1745184976924833040
1546336,67,196,56,-10,3154,-7605,1745184976924833040
1546528,46,185,74,-45,3176,-7650,1745184976924833040
1546720,30,173,88,-56,3125,-7690,1745184976987389604
1546912,22,162,96,-39,3069,-7742,1745184976987389604
1547104,19,154,99,-8,3006,-7795,1745184976987389604
1547296,12,143,97,58,2934,-7802,1745184976987389604
1547488,5,131,95,96,2923,-7782,1745184976987389604
1547680,2,120,98,124,2880,-7703,1745184976987389604
1547872,4,112,98,180,2786,-7659,1745184976987389604
1548064,9,109,102,223,2738,-7652,1745184976987389604
1548256,10,104,106,290,2694,-7555,1745184976987389604
1548448,10,98,103,361,2693,-7511,1745184976987389604
1548640,9,85,91,382,2713,-7433,1745184976987389604
1548832,11,74,79,355,2731,-7314,1745184976987389604
1549024,13,67,79,317,2650,-7313,1745184977042029417
1549216,16,60,85,334,2532,-7395,1745184977042029417
1549408,13,52,87,346,2467,-7432,1745184977042029417
1549600,3,37,81,409,2463,-7456,1745184977042029417
1549792,-9,20,71,512,2514,-7463,1745184977042029417
1549984,-21,4,56,608,2615,-7354,1745184977042029417
1550176,-25,3,43,678,2723,-7126,1745184977042029417
1550368,-12,25,30,502,2896,-7527,1745184977042029417
1550560,-57,-41,25,569,3006,-7465,1745184977042029417
1550752,-13,-92,37,485,1399,-6160,1745184977042029417
1550944,506,-59,48,358,2266,-7286,1745184977042029417
1551136,402,-29,77,188,3884,-7848,1745184977042029417
1551328,-10,-98,173,-18,2336,-7617,1745184977103565521
1551520,-244,-164,246,586,1101,-7367,1745184977103565521
1551712,-350,-231,212,867,761,-7413,1745184977103565521
1551904,-394,-282,139,847,1503,-7358,1745184977103565521
1552096,-434,-301,105,636,2305,-7402,1745184977103565521
1552288,-463,-318,117,412,2938,-7623,1745184977103565521
1552480,-497,-377,147,320,3309,-7273,1745184977103565521
1552672,-408,-310,161,-96,3465,-7066,1745184977103565521
1552864,-357,-240,170,-299,3319,-7554,1745184977103565521
1553056,-314,-231,141,-518,3383,-7450,1745184977103565521
1553248,-257,-187,110,-624,3637,-7632,1745184977103565521
1553440,-211,-171,78,-531,3577,-7522,1745184977103565521
1553632,-155,-138,50,-488,3392,-7510,1745184977159570166
1553824,-93,-103,30,-348,3165,-7505,1745184977159570166
1554016,-31,-56,2,-132,2754,-7270,1745184977159570166
1554208,25,4,-38,-121,2446,-8011,1745184977159570166
1554400,-50,-74,-62,303,2109,-7713,1745184977159570166
1554592,-137,-126,-104,543,1835,-7678,1745184977159570166
1554784,-240,-184,-144,953,2030,-7621,1745184977159570166
1554976,-294,-258,-159,1440,2939,-7639,1745184977159570166
1555168,-308,-314,-134,1515,3518,-7596,1745184977159570166
1555360,-249,-344,-106,1287,3348,-6938,1745184977159570166
1555552,-94,-416,-91,705,3703,-8221,1745184977159570166
1555744,-284,-341,-90,415,3347,-7379,1745184977159570166
1555936,-288,-327,-98,286,3752,-7430,1745184977217806561
1556128,-267,-376,-144,-155,3888,-8109,1745184977217806561
1556320,-208,-355,-169,-337,3164,-6523,1745184977217806561
1556512,-116,-153,-148,-1005,3021,-7842,1745184977217806561
1556704,-110,-116,-111,-1280,2662,-7769,1745184977217806561
1556896,-91,-38,-87,-1366,2609,-7974,1745184977217806561
1557088,-76,9,-89,-1562,2506,-8205,1745184977217806561
1557280,-82,48,-108,-1595,2485,-8229,1745184977217806561
1557472,-114,87,-134,-1277,2577,-8114,1745184977217806561
1557664,-129,114,-170,-632,2773,-7996,1745184977217806561
1557856,-125,113,-207,-156,2808,-8213,1745184977217806561
1558048,-148,95,-193,131,2974,-8153,1745184977217806561
1558240,-165,81,-143,83,3113,-8179,1745184977277473360
1558432,-165,72,-87,-158,3009,-8050,1745184977277473360
1558624,-159,89,-46,-572,3004,-7966,1745184977277473360
1558816,-178,96,2,-750,3252,-7812,1745184977277473360
1559008,-195,99,54,-891,3503,-7495,1745184977277473360
1559200,-194,132,96,-1089,3441,-7479,1745184977277473360
1559392,-219,159,89,-767,3016,-7344,1745184977277473360
1559584,-207,205,46,176,2866,-5622,1745184977277473360
1559776,-123,247,7,-277,3556,-9449,1745184977277473360
1559968,-249,17,29,691,4035,-6876,1745184977277473360
1560160,-12,34,-50,1350,4261,-7846,1745184977277473360
1560352,-164,53,-186,856,4278,-7309,1745184977277473360
1706656,40,-199,-129,2603,2712,-7812,1745184981050439310
1706848,-115,-354,-59,4354,638,-7676,1745184981050439310
1707040,-548,-647,6,5126,846,-7735,1745184981050439310
1707232,-805,-829,13,4672,1324,-7875,1745184981050439310
1707424,-1059,-993,-36,3648,1956,-8122,1745184981050439310
1707616,-1289,-1097,-102,2584,2433,-8232,1745184981050439310
1707808,-1455,-1159,-128,1798,2512,-8293,1745184981050439310
1708000,-1621,-1236,-104,1180,2398,-8226,1745184981050439310
1708192,-1780,-1270,-46,448,2107,-8068,1745184981050439310
1708384,-1875,-1231,20,-583,1647,-7599,1745184981050439310
1708576,-1893,-1131,63,-1071,1877,-7646,1745184981050439310
1708768,-1951,-1006,65,-995,2803,-7918,1745184981050439310
1708960,-1979,-870,30,-784,4179,-7937,1745184981110733395
1709152,-1851,-730,-52,-889,5622,-7933,1745184981110733395
1709344,-1603,-545,-104,-1451,6698,-7850,1745184981110733395
1709536,-1339,-327,-81,-1661,7210,-7805,1745184981110733395
1709728,-1107,-154,-29,-1166,7007,-7658,1745184981110733395
1709920,-899,-8,-2,-592,6412,-7994,1745184981110733395
1710112,-743,89,55,-136,6450,-7840,1745184981110733395
1710304,-550,176,114,-238,6698,-7717,1745184981110733395
1710496,-328,284,169,-515,7296,-7456,1745184981110733395
1710688,-38,413,174,-557,7727,-7229,1745184981110733395
1710880,239,539,136,-654,7469,-7677,1745184981110733395
1711072,422,650,166,-279,7504,-8132,1745184981110733395
1711264,299,748,225,123,7958,-8394,1745184981162664639
1711456,642,763,318,769,6164,-6171,1745184981162664639
1711648,1202,831,311,1231,6385,-8008,1745184981162664639
1711840,1443,851,367,1680,5741,-7371,1745184981162664639
1712032,1720,890,480,1716,7036,-6587,1745184981162664639
1712224,2048,1031,567,32,6228,-5086,1745184981162664639
1712416,2457,1726,518,-6872,6152,-4786,1745184981162664639
1712608,2666,2291,392,-5388,4506,-5733,1745184981162664639
1712800,2793,2185,278,-2076,2640,-5420,1745184981162664639
1712992,2830,2080,236,612,1269,-5680,1745184981162664639
1713184,2686,1772,279,2610,186,-6252,1745184981162664639
1713376,2365,1378,343,3870,-756,-6016,1745184981162664639
1713568,1995,1115,391,4748,-1332,-6242,1745184981228461226
1713760,1520,928,394,6244,-1359,-6346,1745184981228461226
1713952,1026,724,362,5985,-1359,-6353,1745184981228461226
1714144,598,586,287,5987,-1303,-6490,1745184981228461226
1714336,218,396,210,5531,-948,-6476,1745184981228461226
1714528,-72,212,124,4672,-443,-6313,1745184981228461226
1714720,-276,80,50,3650,239,-6279,1745184981228461226
1714912,-413,7,-8,2706,1040,-6447,1745184981228461226
1715104,-491,-22,-47,1977,1918,-6687,1745184981228461226
1715296,-510,-33,-64,1513,2699,-6916,1745184981228461226
1715488,-464,-33,-71,1225,3381,-7103,1745184981228461226
1715680,-356,-29,-69,1139,3914,-7185,1745184981228461226
1715872,-237,-7,-73,1174,4408,-7153,1745184981281531418
1716064,-127,16,-86,1341,4439,-7105,1745184981281531418
1716256,-22,28,-95,1478,4139,-7009,1745184981281531418
1716448,80,22,-84,1663,3654,-6958,1745184981281531418
1716640,145,-3,-66,1790,3152,-6931,1745184981281531418
1716832,155,-40,-65,1837,2642,-6898,1745184981281531418
1717024,121,-77,-71,1854,2289,-6830,1745184981281531418
1717216,57,-118,-86,1875,2106,-6775,1745184981281531418
1717408,-28,-161,-111,1925,2118,-6788,1745184981281531418
1717600,-116,-205,-137,1962,2249,-6809,1745184981281531418
1717792,-190,-244,-154,2026,2457,-6847,1745184981281531418
1717984,-240,-276,-159,2096,2676,-6932,1745184981281531418
1718176,-264,-304,-157,2185,2879,-7046,1745184981344562353
1718368,-264,-332,-153,2236,3049,-7143,1745184981344562353
1718560,-248,-362,-151,2213,3171,-7279,1745184981344562353
1718752,-226,-391,-154,2154,3240,-7417,1745184981344562353
1718944,-203,-420,-152,2069,3195,-7568,1745184981344562353
1719136,-185,-452,-139,1971,3134,-7706,1745184981344562353
1719328,-171,-478,-128,1857,3143,-7792,1745184981344562353
1719520,-161,-499,-131,1772,3188,-7812,1745184981344562353
1719712,-154,-513,-148,1700,3234,-7754,1745184981344562353
1719904,-147,-524,-163,1683,3231,-7630,1745184981344562353
1720096,-138,-540,-165,1666,3156,-7518,1745184981344562353
1720288,-129,-563,-150,1638,3024,-7461,1745184981344562353
1720480,-123,-590,-129,1629,2890,-7438,1745184981397513223
1720672,-122,-619,-117,1597,2731,-7411,1745184981397513223
1720864,-119,-646,-114,1575,2614,-7311,1745184981397513223
1721056,-115,-672,-122,1534,2576,-7091,1745184981397513223
1721248,-120,-695,-137,1493,2609,-6918,1745184981397513223
1721440,-134,-719,-147,1479,2641,-6858,1745184981397513223
1721632,-152,-746,-147,1468,2668,-6950,1745184981397513223
1721824,-169,-778,-143,1471,2684,-7116,1745184981397513223
1722016,-180,-813,-139,1452,2740,-7252,1745184981397513223
1722208,-185,-848,-143,1408,2834,-7343,1745184981397513223
1722400,-182,-881,-158,1355,2971,-7346,1745184981397513223
1722592,-173,-908,-178,1277,3111,-7288,1745184981397513223
1722784,-158,-933,-187,1198,3276,-7235,1745184981457529706
1722976,-149,-954,-185,1100,3429,-7129,1745184981457529706
1723168,-151,-974,-180,991,3542,-7070,1745184981457529706
1723360,-164,-990,-171,904,3637,-7125,1745184981457529706
1723552,-190,-1003,-163,828,3690,-7262,1745184981457529706
1723744,-225,-1014,-159,792,3783,-7422,1745184981457529706
1723936,-258,-1016,-159,779,3869,-7467,1745184981457529706
1724128,-277,-1007,-162,754,3898,-7225,1745184981457529706
1724320,-285,-982,-164,726,3924,-6966,1745184981457529706
1724512,-293,-955,-155,678,3839,-6958,1745184981457529706
1724704,-307,-930,-131,676,3714,-7156,1745184981457529706
1724896,-325,-906,-100,629,3577,-7337,1745184981457529706
1725088,-339,-880,-76,577,3466,-7443,1745184981514973088
1725280,-348,-842,-65,497,3364,-7468,1745184981514973088
1725472,-350,-797,-56,395,3240,-7461,1745184981514973088
1725664,-344,-749,-44,302,3164,-7551,1745184981514973088
1725856,-334,-713,-29,226,3180,-7828,1745184981514973088
1726048,-322,-684,-17,106,3304,-8120,1745184981514973088
1726240,-310,-654,-8,-54,3466,-8341,1745184981514973088
1726432,-299,-616,0,-221,3644,-8397,1745184981514973088
1726624,-282,-564,3,-402,3800,-8404,1745184981514973088
1726816,-263,-506,0,-604,3900,-8344,1745184981514973088
1727008,-224,-444,2,-846,3904,-8359,1745184981514973088
1727200,-178,-366,14,-1031,3919,-8478,1745184981514973088
1727392,-137,-279,27,-1210,3914,-8498,1745184981574974988
1727584,-99,-187,33,-1292,3905,-8517,1745184981574974988
1727776,-53,-97,33,-1328,3834,-8490,1745184981574974988
1727968,5,-2,37,-1236,3799,-8475,1745184981574974988
1728160,64,93,44,-1054,3720,-8423,1745184981574974988
1728352,121,182,57,-804,3613,-8342,1745184981574974988
1728544,179,259,74,-519,3483,-8304,1745184981574974988
1728736,229,324,85,-271,3384,-8241,1745184981574974988
1728928,269,378,85,-72,3317,-8079,1745184981574974988
1729120,297,423,74,59,3316,-7936,1745184981574974988
1729312,315,462,56,98,3344,-7682,1745184981574974988
1729504,326,496,37,94,3398,-7570,1745184981574974988
1729696,331,519,19,70,3467,-7586,1745184981641197039
1729888,333,540,11,59,3367,-7748,1745184981641197039
1730080,344,562,27,59,3180,-7682,1745184981641197039
1730272,357,585,53,123,3080,-7549,1745184981641197039
1730464,357,606,50,234,3153,-7524,1745184981641197039
1730656,341,612,24,395,3111,-7536,1745184981641197039
1730848,331,609,18,506,2922,-7537,1745184981641197039
1731040,322,594,50,595,2748,-7468,1745184981641197039
1731232,299,579,74,666,2771,-7304,1745184981641197039
1731424,260,569,58,702,2938,-7053,1745184981641197039
1731616,220,561,11,750,3130,-6808,1745184981641197039
1731808,187,545,-27,762,3291,-6743,1745184981641197039
1732000,162,519,-36,751,3368,-6832,1745184981693771715
1732192,147,488,-20,709,3375,-6968,1745184981693771715
1732384,143,463,-3,621,3310,-7066,1745184981693771715
1732576,144,454,4,517,3206,-7072,1745184981693771715
1732768,147,458,3,475,3059,-7108,1745184981693771715
1732960,152,464,3,530,2942,-7194,1745184981693771715
1733152,156,464,1,609,2904,-7270,1745184981693771715
1733344,154,461,-8,729,2948,-7291,1745184981693771715
1733536,151,455,-23,866,3046,-7285,1745184981693771715
1733728,153,443,-37,992,3140,-7311,1745184981693771715
1733920,162,423,-45,1059,3215,-7408,1745184981693771715
1734112,179,397,-41,1064,3208,-7453,1745184981693771715
1734304,200,371,-30,1004,3153,-7465,1745184981749373811
1734496,216,354,-22,969,3086,-7413,1745184981749373811
1734688,219,346,-20,975,3075,-7317,1745184981749373811
1734880,209,341,-29,1021,3099,-7187,1745184981749373811
1735072,188,334,-37,1125,3102,-7079,1745184981749373811
1735264,158,320,-38,1235,3103,-7034,1745184981749373811
1735456,122,304,-31,1278,3085,-6912,1745184981749373811
1735648,82,290,-18,1265,3038,-6844,1745184981749373811
1735840,43,273,-2,1218,2945,-6952,1745184981749373811
1736032,13,256,9,1136,2893,-7122,1745184981749373811
1736224,-3,239,9,1053,2902,-7242,1745184981749373811
1736416,-3,233,0,973,2885,-7320,1745184981749373811
1736608,12,242,-7,990,2869,-7383,1745184981819398640
1736800,35,255,-5,1069,2827,-7493,1745184981819398640
1736992,57,258,3,1167,2800,-7672,1745184981819398640
1737184,78,251,9,1245,2786,-7773,1745184981819398640
1737376,96,235,4,1257,2809,-7750,1745184981819398640
1737568,108,218,-9,1195,2906,-7683,1745184981819398640
1737760,116,200,-23,1088,2995,-7632,1745184981819398640
1737952,122,184,-37,980,3109,-7575,1745184981819398640
1738144,125,173,-49,849,3258,-7456,1745184981819398640
1738336,116,170,-55,750,3370,-7291,1745184981819398640
1738528,94,170,-55,715,3392,-7249,1745184981819398640
1738720,70,171,-45,745,3324,-7390,1745184981819398640
1738912,52,169,-26,842,3161,-7539,1745184981869766722
1739104,45,166,-4,951,2976,-7625,1745184981869766722
1739296,44,161,10,1114,2848,-7562,1745184981869766722
1739488,46,158,13,1235,2759,-7430,1745184981869766722
1739680,50,151,9,1355,2729,-7367,1745184981869766722
1739872,53,140,6,1419,2733,-7315,1745184981869766722
1740064,54,126,2,1500,2818,-7246,1745184981869766722
1740256,52,112,1,1516,2962,-7210,1745184981869766722
1740448,42,101,5,1539,3027,-7189,1745184981869766722
1740640,32,89,21,1509,3023,-7209,1745184981869766722
1740832,21,75,50,1459,3017,-7288,1745184981869766722
1741024,5,56,73,1402,3086,-7359,1745184981869766722
1741216,-18,37,79,1333,3189,-7419,1745184981932416462
1741408,-44,24,74,1277,3317,-7430,1745184981932416462
1741600,-65,18,71,1233,3396,-7386,1745184981932416462
1741792,-85,15,79,1217,3479,-7350,1745184981932416462
1741984,-99,9,91,1208,3620,-7372,1745184981932416462
1742176,-106,0,102,1137,3630,-7448,1745184981932416462
1742368,-99,-10,116,1044,3558,-7610,1745184981932416462
1742560,-79,-16,130,931,3399,-7777,1745184981932416462
1742752,-51,-16,139,851,3190,-7891,1745184981932416462
1742944,-19,-11,141,800,2970,-7913,1745184981932416462
1743136,9,1,137,836,2816,-7837,1745184981932416462
1743328,29,14,130,939,2723,-7736,1745184981932416462
1743520,41,27,122,1100,2630,-7635,1745184982026967369
1743712,47,34,120,1256,2574,-7548,1745184982026967369
1743904,49,30,119,1359,2536,-7491,1745184982026967369
1744096,50,19,111,1376,2517,-7424,1745184982026967369
1744288,52,5,98,1310,2526,-7349,1745184982026967369
1744480,51,-5,80,1179,2543,-7303,1745184982026967369
1744672,49,-9,60,1074,2542,-7255,1745184982026967369
1744864,46,-9,43,1021,2589,-7212,1745184982026967369
1745056,42,-5,32,1037,2601,-7212,1745184982026967369
1745248,38,-1,27,1161,2603,-7236,1745184982026967369
1745440,37,1,28,1308,2608,-7264,1745184982026967369
1745632,38,-5,29,1441,2581,-7256,1745184982026967369
1745824,39,-17,27,1541,2539,-7212,1745184982045569543
1746016,39,-34,16,1574,2543,-7188,1745184982045569543
1746208,36,-57,0,1575,2570,-7209,1745184982045569543
1746400,30,-82,-20,1530,2668,-7230,1745184982045569543
1746592,22,-102,-39,1448,2796,-7205,1745184982045569543
1746784,11,-115,-54,1361,2932,-7190,1745184982045569543
1746976,2,-124,-63,1333,3063,-7204,1745184982045569543
1747168,-6,-134,-69,1295,3186,-7270,1745184982045569543
1747360,-10,-147,-75,1271,3218,-7335,1745184982045569543
1747552,-8,-159,-74,1239,3185,-7366,1745184982045569543
1747744,-4,-168,-68,1161,3060,-7415,1745184982045569543
1747936,-1,-174,-60,1114,2894,-7434,1745184982045569543
1748128,4,-180,-57,1069,2747,-7450,1745184982106306332
1748320,5,-185,-61,1029,2629,-7479,1745184982106306332
1748512,4,-190,-72,994,2523,-7501,1745184982106306332
1748704,1,-197,-85,975,2504,-7548,1745184982106306332
1748896,-2,-204,-103,990,2552,-7562,1745184982106306332
1749088,-4,-209,-121,1031,2635,-7556,1745184982106306332
1749280,-3,-213,-135,1079,2748,-7475,1745184982106306332
1749472,1,-217,-149,1146,2873,-7341,1745184982106306332
1749664,5,-217,-160,1210,2970,-7228,1745184982106306332
1749856,8,-218,-166,1233,3001,-7171,1745184982106306332
1750048,9,-222,-161,1257,2987,-7191,1745184982106306332
1750240,6,-231,-150,1255,2931,-7270,1745184982106306332
1750432,1,-242,-139,1214,2848,-7366,1745184982164532102
1750624,-5,-252,-137,1122,2761,-7418,1745184982164532102
1750816,-16,-257,-142,1029,2692,-7421,1745184982164532102
1751008,-35,-258,-152,917,2670,-7381,1745184982164532102
1751200,-62,-260,-162,832,2642,-7398,1745184982164532102
1751392,-90,-261,-165,783,2589,-7445,1745184982164532102
1751584,-114,-259,-162,738,2603,-7489,1745184982164532102
1751776,-137,-256,-164,744,2688,-7622,1745184982164532102
1751968,-149,-247,-168,803,2745,-7665,1745184982164532102
1752160,-145,-234,-167,862,2842,-7597,1745184982164532102
1752352,-138,-218,-168,926,2989,-7524,1745184982164532102
1752544,-136,-205,-168,923,3087,-7508,1745184982164532102
1752736,-136,-203,-156,870,3107,-7624,1745184982218355829
1752928,-136,-209,-134,713,3097,-7811,1745184982218355829
1753120,-139,-216,-114,501,3141,-7998,1745184982218355829
1753312,-143,-212,-108,296,3239,-8103,1745184982218355829
1753504,-146,-194,-115,154,3388,-8105,1745184982218355829
1753696,-140,-164,-125,116,3565,-8026,1745184982218355829
1753888,-127,-130,-128,167,3735,-7980,1745184982218355829
1754080,-103,-100,-116,280,3785,-7928,1745184982218355829
1754272,-68,-76,-90,407,3713,-7904,1745184982218355829
1754464,-27,-57,-61,451,3601,-7896,1745184982218355829
1754656,10,-42,-42,443,3476,-7908,1745184982218355829
1754848,37,-29,-38,385,3331,-7927,1745184982218355829
1755040,50,-14,-46,299,3223,-7938,1745184982283967261
1755232,56,4,-56,242,3139,-7924,1745184982283967261
1755424,53,30,-64,211,3056,-7856,1745184982283967261
1755616,53,60,-65,275,2971,-7793,1745184982283967261
1755808,57,86,-62,421,2921,-7755,1745184982283967261
1756000,65,104,-60,579,2876,-7721,1745184982283967261
1756192,76,118,-60,746,2829,-7679,1745184982283967261
1756384,91,131,-61,888,2824,-7586,1745184982283967261
1756576,107,141,-67,990,2836,-7495,1745184982283967261
1756768,121,147,-80,1031,2875,-7448,1745184982283967261
1756960,131,144,-88,1030,2885,-7430,1745184982283967261
1757152,139,139,-89,985,2892,-7448,1745184982283967261
1757344,142,133,-86,941,2908,-7483,1745184982339421806
1757536,141,129,-87,921,2968,-7491,1745184982339421806
1757728,139,128,-95,928,3037,-7470,1745184982339421806
1757920,141,128,-104,960,3098,-7450,1745184982339421806
1758112,143,127,-109,1011,3136,-7372,1745184982339421806
1758304,142,123,-104,1055,3092,-7323,1745184982339421806
1758496,140,114,-85,1103,2960,-7314,1745184982339421806
1758688,138,95,-58,1095,2846,-7325,1745184982339421806
1758880,130,66,-41,1029,2779,-7332,1745184982339421806
1759072,115,34,-40,945,2768,-7304,1745184982339421806
1759264,97,4,-49,820,2812,-7207,1745184982339421806
1759456,72,-17,-66,719,2910,-7128,1745184982339421806
1759648,43,-36,-81,667,3017,-7061,1745184982398512360
1759840,25,-54,-87,662,3125,-7040,1745184982398512360
1760032,13,-71,-81,700,3188,-7089,1745184982398512360
1760224,8,-85,-68,762,3227,-7163,1745184982398512360
1760416,12,-96,-55,855,3218,-7226,1745184982398512360
1760608,25,-106,-44,931,3176,-7312,1745184982398512360
1760800,44,-116,-35,992,3104,-7394,1745184982398512360
1760992,62,-127,-30,1005,3000,-7470,1745184982398512360
1761184,76,-139,-29,990,2909,-7544,1745184982398512360
1761376,85,-150,-34,941,2855,-7591,1745184982398512360
1761568,94,-159,-41,875,2810,-7606,1745184982398512360
1761760,105,-168,-49,791,2815,-7656,1745184982398512360
1761952,112,-175,-60,734,2903,-7696,1745184982458175982
1762144,115,-180,-73,677,2945,-7728,1745184982458175982
1762336,121,-181,-81,660,2980,-7778,1745184982458175982
1762528,131,-182,-88,623,3026,-7833,1745184982458175982
1762720,145,-180,-90,603,3077,-7869,1745184982458175982
1762912,166,-180,-85,598,3118,-7931,1745184982458175982
1763104,194,-182,-81,563,3155,-7980,1745184982458175982
1763296,236,-184,-81,543,3177,-8041,1745184982458175982
1763488,295,-187,-82,541,3253,-8147,1745184982458175982
1763680,362,-191,-93,561,3417,-8226,1745184982458175982
1763872,431,-198,-115,572,3565,-8275,1745184982458175982
1764064,508,-200,-139,604,3729,-8333,1745184982458175982
1764256,593,-195,-159,626,3822,-8387,1745184982514968015
1764448,679,-188,-177,621,3918,-8487,1745184982514968015
1764640,768,-188,-198,598,3958,-8587,1745184982514968015
1764832,860,-185,-214,514,3915,-8707,1745184982514968015
1765024,949,-176,-237,371,3790,-8741,1745184982514968015
1765216,1021,-145,-249,168,3617,-8720,1745184982514968015
1765408,1079,-90,-247,-166,3342,-8630,1745184982514968015
1765600,1113,3,-231,-500,2967,-8497,1745184982514968015
1765792,1108,133,-198,-815,2548,-8332,1745184982514968015
1765984,1063,274,-160,-976,2057,-8337,1745184982514968015
1766176,982,394,-125,-901,1687,-8657,1745184982514968015
1766368,880,473,-94,-648,1458,-8927,1745184982514968015
1766560,767,509,-72,-344,1356,-8971,1745184982574417733
1766752,644,522,-57,-30,1332,-8897,1745184982574417733
1766944,521,519,-58,295,1446,-8983,1745184982574417733
1767136,415,504,-72,575,1638,-9102,1745184982574417733
1767328,334,484,-86,733,1857,-9085,1745184982574417733
1767520,286,468,-94,826,2120,-9097,1745184982574417733
1767712,267,465,-99,857,2356,-9215,1745184982574417733
1767904,276,474,-102,873,2553,-9373,1745184982574417733
1768096,314,495,-107,888,2731,-9593,1745184982574417733
1768288,367,521,-114,947,2741,-10538,1745184982574417733
1768480,433,545,-121,1034,2609,-11029,1745184982574417733
1768672,513,601,-130,1048,2453,-10991,1745184982574417733
1768864,577,626,-127,1211,2416,-10964,1745184982634264009
1769056,651,629,-130,1496,2514,-11350,1745184982634264009
1769248,755,579,-150,1731,2610,-11730,1745184982634264009
1769440,869,518,-211,1677,2993,-11872,1745184982634264009
1769632,983,461,-303,1590,3390,-11817,1745184982634264009
1769824,1120,439,-374,1535,3586,-11754,1745184982634264009
1770016,1309,437,-397,1470,3542,-12025,1745184982634264009
1770208,1538,457,-398,1426,3468,-12404,1745184982634264009
1770400,1765,493,-407,1443,3382,-12648,1745184982634264009
1770592,1972,536,-435,1433,3289,-12643,1745184982634264009
1770784,2158,586,-477,1472,3081,-12475,1745184982634264009
1770976,2333,653,-516,1488,2708,-12329,1745184982634264009
1771168,2473,742,-536,1476,2152,-12162,1745184982689285225
1771360,2564,844,-528,1566,1464,-12122,1745184982689285225
1771552,2595,942,-494,1776,700,-12080,1745184982689285225
1771744,2550,1017,-448,2173,33,-12282,1745184982689285225
1771936,2434,1042,-404,2789,-352,-12523,1745184982689285225
1772128,2271,1039,-371,3567,-609,-12735,1745184982689285225
1772320,2068,991,-345,4431,-734,-12754,1745184982689285225
1772512,1829,948,-331,5125,-779,-12837,1745184982689285225
1772704,1557,896,-324,5842,-803,-13164,1745184982689285225
1772896,1294,805,-322,6671,-661,-13872,1745184982689285225
1773088,1060,676,-342,7596,-153,-14369,1745184982689285225
1773280,886,513,-398,8454,600,-14522,1745184982689285225
1773472,819,332,-477,9030,1336,-14656,1745184982767901642
1773664,879,152,-551,9363,2074,-15038,1745184982767901642
1773856,1022,-5,-623,9456,2798,-15182,1745184982767901642
1774048,1210,-105,-682,9328,3051,-15178,1745184982767901642
1774240,1455,-205,-679,9228,2879,-15501,1745184982767901642
1774432,1719,-289,-609,8916,2425,-15321,1745184982767901642
1774624,1938,-345,-522,8446,1541,-15218,1745184982767901642
1774816,2098,-392,-441,7963,434,-15286,1745184982767901642
1775008,2195,-436,-361,7536,-634,-15168,1745184982767901642
1775200,2212,-466,-272,7372,-1523,-15013,1745184982767901642
1775392,2162,-515,-171,7544,-2051,-14820,1745184982767901642
1775584,2062,-604,-62,7939,-2395,-14408,1745184982767901642
1775776,1924,-724,33,8498,-2447,-14004,1745184982806732017
1775968,1766,-880,107,9058,-2523,-13539,1745184982806732017
1776160,1621,-1066,164,9484,-2422,-13033,1745184982806732017
1776352,1499,-1257,191,9779,-2255,-12726,1745184982806732017
1776544,1384,-1465,189,9777,-1989,-12455,1745184982806732017
1776736,1283,-1693,160,9821,-1689,-12218,1745184982806732017
1776928,1196,-1903,121,10111,-1326,-12024,1745184982806732017
1777120,1122,-2106,99,9506,-925,-11712,1745184982806732017
1777312,1080,-2305,97,8939,-580,-11317,1745184982806732017
1777504,1068,-2476,116,8269,-315,-10913,1745184982806732017
1777696,1073,-2611,149,7557,-121,-10559,1745184982806732017
1777888,1086,-2714,194,6836,-44,-10194,1745184982806732017
1778080,1092,-2794,248,6182,-87,-9879,1745184982869364830
1778272,1079,-2852,309,5574,-212,-9685,1745184982869364830
1778464,1046,-2904,379,5125,-356,-9636,1745184982869364830
1778656,1000,-2962,452,4845,-413,-9667,1745184982869364830
1778848,943,-3037,515,4663,-391,-9587,1745184982869364830
1779040,886,-3126,564,4549,-235,-9397,1745184982869364830
1779232,845,-3222,605,4443,7,-9106,1745184982869364830
1779424,822,-3298,622,4379,351,-8869,1745184982869364830
1779616,808,-3379,610,4210,609,-8427,1745184982869364830
1779808,818,-3453,598,4008,839,-7911,1745184982869364830
1780000,849,-3529,595,3765,1058,-7471,1745184982869364830
1780192,903,-3607,601,3474,1276,-7096,1745184982869364830
1780384,970,-3680,614,3130,1466,-6588,1745184982924029956
1780576,1038,-3735,631,2703,1614,-5989,1745184982924029956
1780768,1101,-3769,655,2296,1692,-5389,1745184982924029956
1780960,1158,-3779,687,1920,1736,-4889,1745184982924029956
1781152,1202,-3782,725,1689,1776,-4559,1745184982924029956
1781344,1246,-3792,760,1503,1827,-4312,1745184982924029956
1781536,1288,-3796,793,1329,1781,-3880,1745184982924029956
1781728,1322,-3790,821,1146,1696,-3442,1745184982924029956
1781920,1347,-3776,841,964,1576,-3159,1745184982924029956
1782112,1359,-3759,854,891,1595,-3098,1745184982924029956
1782304,1366,-3747,890,770,1799,-2887,1745184982924029956
1782496,1369,-3784,927,1019,1248,-2698,1745184982924029956
1782688,1363,-3784,880,685,1168,-2447,1745184982983534360
1782880,1361,-3805,861,431,1060,-2020,1745184982983534360
1783072,1352,-3804,874,211,946,-1786,1745184982983534360
1783264,1340,-3809,895,104,931,-1811,1745184982983534360
1783456,1335,-3842,910,82,1043,-2066,1745184982983534360
1783648,1327,-3878,913,34,1166,-2049,1745184982983534360
1783840,1314,-3894,914,-62,1210,-1632,1745184982983534360
1784032,1305,-3885,924,-102,1109,-1127,1745184982983534360
1784224,1297,-3857,937,-14,1006,-681,1745184982983534360
1784416,1281,-3823,953,174,863,-72,1745184982983534360
1784608,1246,-3786,970,391,719,544,1745184982983534360
1784800,1193,-3762,984,630,574,1207,1745184982983534360
1784992,1102,-3746,1009,859,442,1864,1745184983045067704
1785184,940,-3754,1062,947,208,2344,1745184983045067704
1785376,782,-3808,1078,795,18,2947,1745184983045067704
1785568,601,-3853,1073,467,-139,3164,1745184983045067704
1785760,387,-3914,1045,-4,-170,3092,1745184983045067704
1785952,140,-3963,1003,-568,-218,3356,1745184983045067704
1786144,-142,-3999,953,-1081,-210,3716,1745184983045067704
1786336,-439,-4028,889,-1494,-242,4028,1745184983045067704
1786528,-717,-4033,813,-1930,-180,3755,1745184983045067704
1786720,-961,-4005,721,-2295,82,3134,1745184983045067704
1786912,-1158,-3930,609,-1678,537,2970,1745184983045067704
1787104,-1240,-3762,478,-4107,752,3458,1745184983045067704
1787296,-1233,-3807,333,-3371,1864,4012,1745184983098022637
1787488,-1195,-3632,205,-3451,2107,5370,1745184983098022637
1787680,-987,-3520,71,-3529,2530,5868,1745184983098022637
1787872,-742,-3391,-47,-3498,2555,6226,1745184983098022637
1788064,-462,-3283,-120,-3562,2113,6555,1745184983098022637
1788256,-160,-3157,-128,-3648,1499,7158,1745184983098022637
1788448,105,-3059,-87,-3768,678,7776,1745184983098022637
1788640,287,-2934,-18,-4068,-331,8109,1745184983098022637
1788832,362,-2800,59,-4415,-1289,8496,1745184983098022637
1789024,331,-2674,121,-4789,-2201,9213,1745184983098022637
1789216,215,-2515,153,-5254,-2954,9881,1745184983098022637
1789408,44,-2362,150,-5916,-3649,10417,1745184983098022637
1789600,-170,-2199,128,-6625,-4321,10630,1745184983159920197
1789792,-395,-2010,112,-7433,-4737,10484,1745184983159920197
1789984,-618,-1794,108,-8310,-4893,9718,1745184983159920197
1790176,-834,-1561,119,-9014,-4622,8596,1745184983159920197
1790368,-1026,-1334,124,-9405,-4023,7563,1745184983159920197
1790560,-1155,-1137,120,-9574,-3373,6770,1745184983159920197
1790752,-1185,-986,116,-9550,-2940,6406,1745184983159920197
1790944,-1112,-856,130,-9478,-2466,6110,1745184983159920197
1791136,-963,-714,155,-9475,-2355,5821,1745184983159920197
1791328,-781,-535,197,-9413,-2297,5699,1745184983159920197
1791520,-579,-343,243,-9364,-2428,5381,1745184983159920197
1791712,-362,-212,278,-9302,-2829,5215,1745184983159920197
1791904,-154,-89,313,-9277,-3237,5186,1745184983215749114
1792096,27,35,350,-9299,-3589,5203,1745184983215749114
1792288,165,159,388,-9400,-3901,4991,1745184983215749114
1792480,252,272,431,-9618,-4072,4662,1745184983215749114
1792672,295,357,485,-9802,-4137,4431,1745184983215749114
1792864,314,452,531,-9828,-4182,3865,1745184983215749114
1793056,314,569,540,-9778,-4094,3282,1745184983215749114
1793248,295,644,527,-9675,-3830,2992,1745184983215749114
1793440,274,678,519,-9621,-3530,2836,1745184983215749114
1793632,278,653,544,-9722,-3185,2747,1745184983215749114
1793824,338,635,618,-9725,-2743,2570,1745184983215749114
1794016,409,663,733,-9753,-2300,2027,1745184983215749114
1794208,420,676,875,-9454,-2892,1840,1745184983281344087
1794400,409,638,709,-8886,-2370,2179,1745184983281344087
1794592,449,651,620,-8829,-2142,1463,1745184983281344087
1794784,493,641,595,-8906,-1987,1137,1745184983281344087
1794976,512,667,588,-8901,-1993,815,1745184983281344087
1795168,527,686,596,-8478,-1988,176,1745184983281344087
1795360,559,618,642,-8409,-2405,-798,1745184983281344087
1795552,619,465,770,-7925,-1878,528,1745184983281344087
1795744,520,626,644,-8039,-2428,-319,1745184983281344087
1795936,444,655,560,-8058,-2544,-764,1745184983281344087
1796128,355,612,483,-8199,-2772,-733,1745184983281344087
1796320,238,610,396,-8059,-3003,-607,1745184983281344087
1796512,110,607,353,-8291,-2185,-42,1745184983331204205
1796704,35,530,487,-7441,-1927,-1139,1745184983331204205
