timestamp,gyr_x,gyr_y,gyr_z,acc_x,acc_y,acc_z,pkt_time_ns
745312,-299,-314,17,5521,1217,-5369,1745149969505109924
745504,-140,-240,27,3913,2269,-7013,1745149969505109924
745696,-129,-276,43,3637,2331,-6861,1745149969505109924
745888,-150,-236,40,3626,1868,-6770,1745149969505109924
746080,-160,-230,17,3605,1527,-6955,1745149969505109924
746272,-244,-264,3,3364,1623,-7051,1745149969505109924
746464,-280,-240,5,3175,1752,-7111,1745149969505109924
746656,-292,-234,8,3072,1905,-7159,1745149969505109924
746848,-309,-198,10,3009,2125,-7257,1745149969505109924
747040,-282,-142,5,3002,2352,-7300,1745149969505109924
747232,-249,-106,-7,3041,2638,-7398,1745149969505109924
747424,-209,-53,-23,3071,2826,-7533,1745149969505109924
747616,-147,10,-42,3002,3092,-7765,1745149969562559503
747808,-67,78,-46,2956,3210,-8037,1745149969562559503
748000,27,169,-39,3023,3225,-8322,1745149969562559503
748192,111,247,-25,3118,3146,-8334,1745149969562559503
748384,175,305,-7,3236,2961,-8086,1745149969562559503
748576,326,251,2,2559,4169,-6392,1745149969562559503
748768,314,423,16,2408,2874,-9631,1745149969562559503
748960,265,495,2,3407,2060,-6455,1745149969562559503
749152,357,483,-51,3851,1709,-6988,1745149969562559503
749344,338,504,-143,3714,2519,-7725,1745149969562559503
749536,288,607,-41,2932,2242,-5180,1745149969562559503
749728,220,280,-40,5289,225,-5920,1745149969562559503
749920,50,28,-78,5342,349,-6415,1745149969621628130
750112,-81,-10,-20,5030,622,-6761,1745149969621628130
750304,-171,-97,-8,4479,1023,-6309,1745149969621628130
750496,-223,-93,-28,3899,1763,-6421,1745149969621628130
750688,-238,-92,-16,3507,2245,-6510,1745149969621628130
750880,-200,-98,-31,3166,2716,-6710,1745149969621628130
751072,-134,-46,-41,2887,2953,-6694,1745149969621628130
751264,-45,12,-43,2806,3056,-6700,1745149969621628130
751456,52,71,-37,2944,3087,-6745,1745149969621628130
751648,135,123,-27,3271,2900,-6810,1745149969621628130
751840,194,150,-21,3586,2667,-6821,1745149969621628130
752032,220,152,-22,3901,2379,-6865,1745149969621628130
752224,211,137,-27,4131,2079,-6905,1745149969678460580
752416,178,108,-29,4239,1863,-6928,1745149969678460580
752608,125,75,-29,4247,1726,-6915,1745149969678460580
752800,62,44,-26,4141,1714,-6891,1745149969678460580
752992,2,16,-23,3969,1790,-6837,1745149969678460580
753184,-48,-2,-18,3794,1960,-6808,1745149969678460580
753376,-78,-13,-14,3666,2153,-6776,1745149969678460580
753568,-89,-17,-11,3582,2345,-6765,1745149969678460580
753760,-85,-12,-12,3530,2500,-6769,1745149969678460580
753952,-65,-3,-12,3554,2562,-6762,1745149969678460580
754144,-35,10,-10,3566,2594,-6782,1745149969678460580
754336,-1,22,-7,3621,2566,-6810,1745149969678460580
754528,25,30,-4,3693,2500,-6783,1745149969737156606
754720,42,33,-1,3743,2386,-6782,1745149969737156606
754912,48,29,0,3786,2285,-6795,1745149969737156606
755104,43,24,0,3817,2167,-6810,1745149969737156606
755296,29,17,1,3822,2071,-6834,1745149969737156606
755488,7,9,2,3827,2058,-6867,1745149969737156606
755680,-17,0,4,3833,2070,-6903,1745149969737156606
755872,-35,-9,4,3801,2146,-6957,1745149969737156606
756064,-47,-17,4,3768,2226,-6999,1745149969737156606
756256,-54,-21,2,3733,2308,-7028,1745149969737156606
756448,-55,-22,0,3723,2378,-7050,1745149969737156606
756640,-50,-23,-2,3696,2429,-7052,1745149969737156606
756832,-40,-20,-4,3651,2441,-7028,1745149969797020955
757024,-31,-18,-4,3654,2444,-7033,1745149969797020955
757216,-22,-14,-6,3641,2400,-7025,1745149969797020955
757408,-17,-11,-10,3616,2369,-6990,1745149969797020955
757600,-15,-7,-13,3636,2331,-6945,1745149969797020955
757792,-14,-6,-13,3643,2286,-6938,1745149969797020955
757984,-15,-5,-10,3655,2281,-6928,1745149969797020955
758176,-14,-4,-7,3653,2272,-6944,1745149969797020955
758368,-10,-2,-6,3655,2270,-6931,1745149969797020955
758560,-6,2,-8,3652,2315,-6948,1745149969797020955
758752,1,10,-9,3665,2341,-6967,1745149969797020955
758944,10,17,-10,3666,2351,-6969,1745149969797020955
759136,23,23,-10,3694,2332,-6950,1745149969869544199
759328,38,31,-7,3699,2286,-6955,1745149969869544199
759520,56,38,-5,3688,2219,-7001,1745149969869544199
759712,73,45,-3,3688,2170,-7010,1745149969869544199
759904,88,51,-2,3676,2116,-7032,1745149969869544199
760096,95,57,-2,3701,2090,-7067,1745149969869544199
760288,91,62,-2,3726,2075,-7080,1745149969869544199
760480,80,66,-2,3775,2089,-7097,1745149969869544199
760672,68,69,-1,3796,2089,-7073,1745149969869544199
760864,57,71,0,3825,2101,-7041,1745149969869544199
761056,50,71,2,3857,2120,-7024,1745149969869544199
761248,49,69,6,3856,2129,-7008,1745149969869544199
761440,50,69,11,3842,2140,-6998,1745149969915795756
761632,59,70,14,3819,2145,-7103,1745149969915795756
761824,74,67,10,3866,2219,-7314,1745149969915795756
762016,98,62,1,3921,2310,-7489,1745149969915795756
762208,134,59,-9,3947,2412,-7654,1745149969915795756
762400,177,58,-18,4004,2467,-7756,1745149969915795756
762592,222,60,-30,4049,2518,-7843,1745149969915795756
762784,268,67,-39,4048,2473,-7900,1745149969915795756
762976,300,73,-39,4053,2374,-7753,1745149969915795756
763168,320,68,-31,4076,2256,-7651,1745149969915795756
763360,342,54,-16,4084,2112,-7624,1745149969915795756
763552,358,43,-2,4052,1941,-7623,1745149969915795756
763744,353,35,11,4011,1785,-7539,1745149969970363591
763936,320,29,24,4005,1667,-7416,1745149969970363591
764128,270,19,33,4044,1630,-7321,1745149969970363591
764320,220,0,37,4124,1676,-7265,1745149969970363591
764512,176,-22,40,4182,1756,-7189,1745149969970363591
764704,142,-43,45,4240,1876,-7163,1745149969970363591
764896,116,-64,49,4295,1979,-6920,1745149969970363591
765088,109,-87,48,4312,2056,-6846,1745149969970363591
765280,111,-100,48,4297,2109,-7325,1745149969970363591
765472,100,-86,45,4227,1917,-7322,1745149969970363591
765664,105,-67,39,4237,1693,-7072,1745149969970363591
765856,146,-86,46,4290,1637,-6969,1745149969970363591
766048,191,-120,59,4189,1654,-7058,1745149970030912517
766240,204,-144,66,4027,1654,-7200,1745149970030912517
766432,187,-144,58,3955,1545,-7374,1745149970030912517
766624,170,-144,46,4031,1405,-7503,1745149970030912517
766816,181,-154,41,4184,1314,-7661,1745149970030912517
767008,222,-174,45,4293,1318,-7697,1745149970030912517
767200,263,-197,49,4391,1476,-7692,1745149970030912517
767392,289,-218,40,4531,1759,-7728,1745149970030912517
767584,298,-239,12,4680,1924,-7698,1745149970030912517
767776,294,-266,-27,4722,2032,-7583,1745149970030912517
767968,293,-292,-54,4660,1969,-7392,1745149970030912517
768160,297,-310,-61,4550,1820,-7105,1745149970030912517
768352,307,-331,-54,4477,1744,-6817,1745149970086734871
768544,316,-362,-48,4402,1857,-6844,1745149970086734871
768736,272,-384,-55,4199,2007,-6669,1745149970086734871
768928,155,-408,-73,4017,2049,-6603,1745149970086734871
769120,38,-425,-93,3833,1992,-6725,1745149970086734871
769312,-36,-419,-95,3654,1870,-6829,1745149970086734871
769504,-59,-421,-74,3695,1874,-6942,1745149970086734871
769696,-25,-472,-41,3990,2204,-7536,1745149970086734871
769888,41,-518,-15,3976,2393,-7527,1745149970086734871
770080,90,-528,3,3879,2290,-7663,1745149970086734871
770272,150,-541,-9,3851,2250,-8027,1745149970086734871
770464,225,-555,-50,3962,2452,-8292,1745149970086734871
770656,279,-601,-89,4086,2744,-8559,1745149970149088989
770848,322,-656,-123,4127,2879,-8525,1745149970149088989
771040,371,-695,-149,3969,2726,-8524,1745149970149088989
771232,430,-712,-154,3662,2299,-8527,1745149970149088989
771424,486,-709,-133,3282,1864,-8413,1745149970149088989
771616,525,-698,-81,2976,1353,-8159,1745149970149088989
771808,529,-683,-19,2698,820,-7928,1745149970149088989
772000,498,-666,36,2541,386,-7975,1745149970149088989
772192,428,-655,76,2581,84,-7908,1745149970149088989
772384,325,-676,90,2869,182,-8331,1745149970149088989
772576,182,-703,80,3177,246,-8602,1745149970149088989
772768,22,-721,64,3369,105,-8230,1745149970149088989
772960,-112,-764,50,3558,320,-8472,1745149970227755666
773152,-253,-818,22,3664,801,-8667,1745149970227755666
773344,-419,-855,-25,3591,1283,-8654,1745149970227755666
773536,-576,-900,-67,3483,1725,-8806,1745149970227755666
773728,-696,-948,-88,3332,2035,-8896,1745149970227755666
773920,-768,-997,-80,3202,2119,-8914,1745149970227755666
774112,-786,-1041,-50,3036,2121,-8987,1745149970227755666
774304,-765,-1068,-19,2970,2205,-9224,1745149970227755666
774496,-737,-1082,-2,3338,2809,-9603,1745149970227755666
774688,-709,-1116,-22,4270,4010,-9732,1745149970227755666
774880,-646,-1201,-41,4611,4452,-9276,1745149970227755666
775072,-530,-1327,-105,4149,4347,-8915,1745149970227755666
775264,-331,-1394,-198,3180,3853,-9106,1745149970271856618
775456,-161,-1389,-232,2326,3219,-9431,1745149970271856618
775648,-90,-1365,-196,1848,2666,-9585,1745149970271856618
775840,-105,-1363,-136,1800,2317,-9659,1745149970271856618
776032,-153,-1390,-103,1993,2135,-9590,1745149970271856618
776224,-208,-1431,-109,2235,2191,-9540,1745149970271856618
776416,-269,-1476,-135,2475,2324,-9604,1745149970271856618
776608,-324,-1516,-162,2571,2371,-9534,1745149970271856618
776800,-348,-1548,-179,2448,2200,-9502,1745149970271856618
776992,-342,-1572,-182,2153,1948,-9640,1745149970271856618
777184,-343,-1589,-173,1826,1752,-9840,1745149970271856618
777376,-380,-1598,-163,1568,1692,-9873,1745149970271856618
777568,-447,-1606,-171,1469,1735,-9762,1745149970321232625
777760,-526,-1623,-204,1536,1958,-9648,1745149970321232625
777952,-602,-1654,-250,1703,2289,-9640,1745149970321232625
778144,-661,-1697,-292,1823,2707,-9655,1745149970321232625
778336,-695,-1746,-321,1872,3136,-9624,1745149970321232625
778528,-698,-1790,-342,1788,3493,-9537,1745149970321232625
778720,-668,-1825,-363,1641,3778,-9542,1745149970321232625
778912,-618,-1850,-388,1461,4013,-9534,1745149970321232625
779104,-557,-1867,-417,1321,4218,-9488,1745149970321232625
779296,-488,-1887,-453,1246,4388,-9447,1745149970321232625
779488,-407,-1907,-496,1204,4503,-9428,1745149970321232625
779680,-325,-1922,-538,1111,4519,-9387,1745149970321232625
779872,-243,-1937,-577,1030,4428,-9456,1745149970384071738
780064,-156,-1954,-610,917,4264,-9610,1745149970384071738
780256,-67,-1974,-634,790,4088,-9754,1745149970384071738
780448,15,-1995,-645,645,3831,-9811,1745149970384071738
780640,91,-2009,-647,508,3540,-9748,1745149970384071738
780832,159,-2018,-647,387,3182,-9691,1745149970384071738
781024,215,-2025,-645,230,2808,-9660,1745149970384071738
781216,251,-2028,-640,102,2457,-9595,1745149970384071738
781408,264,-2034,-633,-27,2146,-9517,1745149970384071738
781600,250,-2040,-626,-98,1899,-9482,1745149970384071738
781792,206,-2048,-626,-160,1729,-9418,1745149970384071738
781984,136,-2058,-633,-169,1619,-9346,1745149970384071738
782176,60,-2081,-650,-180,1632,-9462,1745149970437615989
782368,-9,-2119,-670,-140,1836,-9610,1745149970437615989
782560,-73,-2159,-685,-163,2157,-9612,1745149970437615989
782752,-125,-2191,-699,-236,2457,-9466,1745149970437615989
782944,-152,-2215,-716,-337,2755,-9281,1745149970437615989
783136,-155,-2226,-732,-461,2941,-8997,1745149970437615989
783328,-137,-2230,-750,-640,3030,-8729,1745149970437615989
783520,-101,-2232,-766,-821,3053,-8564,1745149970437615989
783712,-51,-2237,-781,-946,3102,-8551,1745149970437615989
783904,6,-2245,-797,-1056,3181,-8499,1745149970437615989
784096,54,-2248,-813,-1135,3246,-8377,1745149970437615989
784288,95,-2242,-830,-1249,3192,-8174,1745149970437615989
784480,140,-2232,-850,-1302,3073,-7989,1745149970496628679
784672,187,-2227,-866,-1315,2830,-7852,1745149970496628679
784864,233,-2228,-878,-1453,2696,-7862,1745149970496628679
785056,281,-2231,-879,-1567,2498,-7856,1745149970496628679
785248,322,-2234,-875,-1749,2307,-7817,1745149970496628679
785440,355,-2233,-866,-1903,2119,-7805,1745149970496628679
785632,376,-2226,-857,-2030,1952,-7670,1745149970496628679
785824,382,-2212,-851,-2130,1746,-7461,1745149970496628679
786016,372,-2190,-847,-2288,1525,-7226,1745149970496628679
786208,354,-2171,-838,-2397,1349,-7097,1745149970496628679
786400,334,-2165,-823,-2465,1305,-7151,1745149970496628679
786592,306,-2165,-805,-2526,1346,-7156,1745149970496628679
786784,264,-2162,-797,-2608,1444,-7080,1745149970556082980
786976,218,-2160,-798,-2649,1571,-6992,1745149970556082980
787168,177,-2153,-805,-2727,1715,-6872,1745149970556082980
787360,148,-2139,-809,-2830,1819,-6723,1745149970556082980
787552,137,-2125,-810,-2933,1973,-6713,1745149970556082980
787744,149,-2117,-811,-2991,2157,-6801,1745149970556082980
787936,178,-2106,-817,-3026,2379,-6798,1745149970556082980
788128,210,-2090,-827,-3145,2522,-6644,1745149970556082980
788320,248,-2062,-841,-3269,2526,-6482,1745149970556082980
788512,299,-2035,-850,-3329,2452,-6408,1745149970556082980
788704,361,-2013,-858,-3414,2363,-6411,1745149970556082980
788896,419,-1992,-862,-3541,2224,-6388,1745149970556082980
789088,469,-1970,-866,-3707,2062,-6289,1745149970612675431
789280,513,-1950,-874,-3835,1833,-6073,1745149970612675431
789472,555,-1925,-868,-3943,1626,-5935,1745149970612675431
789664,583,-1904,-852,-3994,1442,-5772,1745149970612675431
789856,603,-1881,-833,-4068,1291,-5687,1745149970612675431
790048,614,-1860,-815,-4106,1150,-5687,1745149970612675431
790240,618,-1840,-806,-4145,1056,-5741,1745149970612675431
790432,615,-1828,-803,-4174,1055,-5822,1745149970612675431
790624,600,-1817,-800,-4190,1070,-5787,1745149970612675431
790816,574,-1802,-799,-4224,1105,-5678,1745149970612675431
791008,547,-1787,-799,-4276,1172,-5577,1745149970612675431
791200,524,-1768,-796,-4335,1260,-5489,1745149970612675431
791392,502,-1751,-791,-4413,1348,-5393,1745149970677004323
791584,484,-1736,-790,-4508,1320,-5318,1745149970677004323
791776,474,-1718,-791,-4618,1224,-5276,1745149970677004323
791968,468,-1704,-792,-4714,1152,-5367,1745149970677004323
792160,469,-1696,-795,-4780,1155,-5505,1745149970677004323
792352,473,-1691,-799,-4837,1190,-5474,1745149970677004323
792544,475,-1682,-799,-4891,1250,-5379,1745149970677004323
792736,486,-1667,-798,-4883,1289,-5255,1745149970677004323
792928,506,-1649,-795,-4875,1269,-5145,1745149970677004323
793120,531,-1630,-795,-4883,1183,-5062,1745149970677004323
793312,562,-1612,-793,-4971,1058,-5084,1745149970677004323
793504,590,-1590,-782,-5108,954,-5077,1745149970677004323
793696,609,-1564,-771,-5241,864,-4910,1745149970729346814
793888,625,-1536,-764,-5315,767,-4624,1745149970729346814
794080,641,-1513,-760,-5336,714,-4380,1745149970729346814
794272,659,-1481,-749,-5302,696,-4575,1745149970729346814
794464,678,-1436,-738,-5408,552,-3918,1745149970729346814
794656,690,-1454,-734,-5258,527,-4291,1745149970729346814
794848,687,-1438,-731,-5266,414,-4416,1745149970729346814
795040,667,-1419,-734,-5336,267,-4422,1745149970729346814
795232,642,-1404,-734,-5359,207,-4411,1745149970729346814
795424,609,-1403,-728,-5365,198,-4377,1745149970729346814
795616,594,-1407,-718,-5387,242,-4365,1745149970729346814
795808,589,-1409,-704,-5449,373,-4359,1745149970729346814
796000,594,-1401,-692,-5574,455,-4337,1745149970789924125
796192,605,-1381,-693,-5630,468,-4250,1745149970789924125
796384,614,-1360,-702,-5673,407,-4170,1745149970789924125
796576,624,-1340,-705,-5725,295,-4199,1745149970789924125
796768,634,-1331,-702,-5781,315,-4353,1745149970789924125
796960,642,-1332,-697,-5622,337,-4400,1745149970789924125
797152,636,-1348,-708,-5548,487,-4319,1745149970789924125
797344,619,-1336,-712,-5554,516,-4089,1745149970789924125
797536,605,-1328,-711,-5599,551,-3892,1745149970789924125
797728,600,-1319,-712,-5705,673,-3684,1745149970789924125
797920,603,-1310,-715,-5788,738,-3510,1745149970789924125
798112,615,-1308,-725,-5776,698,-3432,1745149970789924125
798304,634,-1299,-734,-5829,604,-3444,1745149970847510630
798496,650,-1282,-738,-5923,429,-3463,1745149970847510630
798688,659,-1263,-737,-5985,215,-3459,1745149970847510630
798880,659,-1253,-744,-5978,21,-3436,1745149970847510630
799072,652,-1254,-754,-5966,-83,-3459,1745149970847510630
799264,640,-1260,-758,-5927,-161,-3475,1745149970847510630
799456,630,-1265,-756,-5940,-226,-3515,1745149970847510630
799648,626,-1268,-753,-5991,-266,-3563,1745149970847510630
799840,620,-1262,-753,-6091,-330,-3481,1745149970847510630
800032,612,-1250,-755,-6192,-446,-3291,1745149970847510630
800224,610,-1236,-757,-6251,-537,-3089,1745149970847510630
800416,610,-1225,-754,-6300,-601,-2911,1745149970847510630
800608,609,-1218,-749,-6273,-644,-2815,1745149970906978003
800800,611,-1212,-745,-6291,-679,-2746,1745149970906978003
800992,613,-1202,-744,-6337,-744,-2639,1745149970906978003
801184,614,-1186,-744,-6354,-854,-2522,1745149970906978003
801376,613,-1175,-740,-6411,-959,-2403,1745149970906978003
801568,616,-1168,-733,-6483,-1026,-2424,1745149970906978003
801760,620,-1158,-720,-6539,-1019,-2491,1745149970906978003
801952,624,-1144,-709,-6552,-994,-2448,1745149970906978003
802144,632,-1135,-707,-6511,-986,-2353,1745149970906978003
802336,653,-1128,-709,-6488,-954,-2327,1745149970906978003
802528,680,-1115,-707,-6520,-978,-2241,1745149970906978003
802720,704,-1093,-700,-6566,-1087,-2083,1745149970906978003
802912,729,-1076,-695,-6609,-1254,-2024,1745149970963311864
803104,749,-1065,-690,-6658,-1408,-2049,1745149970963311864
803296,757,-1055,-683,-6705,-1560,-2094,1745149970963311864
803488,753,-1047,-672,-6747,-1676,-2120,1745149970963311864
803680,740,-1037,-660,-6756,-1740,-2121,1745149970963311864
803872,725,-1030,-649,-6772,-1759,-2083,1745149970963311864
804064,709,-1025,-635,-6791,-1713,-1969,1745149970963311864
804256,703,-1017,-610,-6786,-1636,-1885,1745149970963311864
804448,703,-996,-601,-6683,-1738,-1863,1745149970963311864
804640,696,-993,-625,-6477,-1867,-1829,1745149970963311864
804832,677,-987,-630,-6543,-1856,-1745,1745149970963311864
805024,642,-982,-608,-6665,-1851,-1532,1745149970963311864
805216,611,-975,-588,-6722,-1877,-1379,1745149971023511262
805408,590,-969,-583,-6717,-1860,-1287,1745149971023511262
805600,575,-958,-584,-6731,-1852,-1235,1745149971023511262
805792,562,-941,-582,-6746,-1885,-1180,1745149971023511262
805984,550,-919,-578,-6776,-1966,-1147,1745149971023511262
806176,543,-900,-574,-6805,-2050,-1062,1745149971023511262
806368,538,-884,-567,-6834,-2131,-906,1745149971023511262
806560,533,-870,-557,-6849,-2174,-730,1745149971023511262
806752,531,-853,-548,-6842,-2218,-585,1745149971023511262
806944,532,-832,-546,-6887,-2213,-485,1745149971023511262
807136,536,-810,-541,-6885,-2164,-381,1745149971023511262
807328,546,-789,-525,-6805,-2137,-326,1745149971023511262
807520,555,-770,-512,-6735,-2165,-317,1745149971093152657
807712,555,-747,-511,-6675,-2292,-251,1745149971093152657
807904,547,-722,-512,-6643,-2412,-186,1745149971093152657
808096,538,-701,-507,-6623,-2527,-68,1745149971093152657
808288,525,-684,-497,-6629,-2593,4,1745149971093152657
808480,507,-666,-484,-6662,-2619,144,1745149971093152657
808672,491,-643,-470,-6698,-2665,288,1745149971093152657
808864,483,-620,-458,-6724,-2676,401,1745149971093152657
809056,477,-594,-445,-6745,-2644,479,1745149971093152657
809248,474,-571,-430,-6737,-2614,523,1745149971093152657
809440,472,-542,-417,-6730,-2622,603,1745149971093152657
809632,468,-504,-409,-6777,-2703,712,1745149971093152657
809824,460,-461,-400,-6835,-2801,945,1745149971139725200
810016,452,-429,-384,-6894,-2807,1160,1745149971139725200
810208,442,-393,-360,-6925,-2794,1284,1745149971139725200
810400,431,-358,-339,-6892,-2829,1336,1745149971139725200
810592,420,-322,-329,-6775,-2841,1303,1745149971139725200
810784,402,-290,-324,-6716,-2814,1265,1745149971139725200
810976,379,-259,-317,-6696,-2806,1227,1745149971139725200
811168,356,-225,-310,-6711,-2863,1229,1745149971139725200
811360,338,-188,-299,-6772,-2874,1296,1745149971139725200
811552,327,-157,-276,-6824,-2912,1320,1745149971139725200
811744,319,-129,-254,-6793,-2933,1316,1745149971139725200
811936,317,-106,-238,-6810,-2915,1251,1745149971139725200
812128,314,-80,-224,-6828,-2939,1161,1745149971197096968
812320,310,-55,-211,-6821,-2982,1060,1745149971197096968
812512,305,-33,-197,-6820,-3033,966,1745149971197096968
812704,299,-15,-181,-6827,-3077,872,1745149971197096968
812896,286,3,-163,-6841,-3093,795,1745149971197096968
813088,267,22,-146,-6858,-3102,810,1745149971197096968
813280,244,38,-132,-6873,-3108,825,1745149971197096968
813472,219,54,-118,-6870,-3083,873,1745149971197096968
813664,190,74,-103,-6912,-3085,931,1745149971197096968
813856,165,93,-88,-6966,-3056,966,1745149971197096968
814048,145,113,-69,-6984,-3052,977,1745149971197096968
814240,125,131,-53,-6989,-3046,972,1745149971197096968
814432,111,150,-38,-7050,-3094,959,1745149971257300897
814624,103,173,-20,-7081,-3121,945,1745149971257300897
814816,96,192,-3,-7115,-3168,889,1745149971257300897
815008,91,205,7,-7074,-3137,800,1745149971257300897
815200,89,215,10,-7070,-3135,702,1745149971257300897
815392,90,227,17,-7081,-3142,585,1745149971257300897
815584,95,237,27,-7111,-3169,458,1745149971257300897
815776,98,244,40,-7112,-3186,342,1745149971257300897
815968,98,245,51,-7124,-3208,210,1745149971257300897
816160,95,242,57,-7106,-3230,84,1745149971257300897
816352,88,239,63,-7117,-3217,-36,1745149971257300897
816544,81,233,68,-7126,-3225,-130,1745149971257300897
816736,71,227,74,-7157,-3198,-169,1745149971313807152
816928,63,223,81,-7216,-3166,-180,1745149971313807152
817120,60,220,90,-7262,-3111,-173,1745149971313807152
817312,57,216,101,-7260,-3091,-179,1745149971313807152
817504,48,214,110,-7257,-3099,-190,1745149971313807152
817696,36,212,121,-7316,-3164,-214,1745149971313807152
817888,16,213,130,-7387,-3221,-208,1745149971313807152
818080,-9,212,141,-7467,-3251,-210,1745149971313807152
818272,-41,212,153,-7521,-3258,-179,1745149971313807152
818464,-74,211,161,-7565,-3211,-131,1745149971313807152
818656,-104,210,169,-7579,-3153,-140,1745149971313807152
818848,-131,211,176,-7583,-3065,-196,1745149971313807152
819040,-147,217,181,-7592,-3026,-208,1745149971373842749
819232,-151,220,186,-7561,-2958,-236,1745149971373842749
819424,-145,223,190,-7532,-2903,-289,1745149971373842749
819616,-133,223,190,-7521,-2855,-377,1745149971373842749
819808,-119,221,188,-7498,-2858,-448,1745149971373842749
820000,-107,217,185,-7538,-2878,-560,1745149971373842749
820192,-97,216,184,-7596,-2891,-658,1745149971373842749
820384,-90,211,182,-7619,-2923,-678,1745149971373842749
820576,-85,203,182,-7639,-2922,-720,1745149971373842749
820768,-79,196,184,-7633,-2888,-754,1745149971373842749
820960,-77,188,183,-7625,-2825,-782,1745149971373842749
821152,-79,181,180,-7625,-2776,-808,1745149971373842749
821344,-74,174,175,-7642,-2743,-819,1745149971430568272
821536,-70,166,169,-7664,-2706,-855,1745149971430568272
821728,-71,165,167,-7713,-2651,-838,1745149971430568272
821920,-74,167,164,-7749,-2645,-804,1745149971430568272
822112,-76,169,155,-7742,-2656,-766,1745149971430568272
822304,-74,171,147,-7748,-2666,-735,1745149971430568272
822496,-75,174,144,-7782,-2690,-734,1745149971430568272
822688,-76,179,144,-7796,-2736,-725,1745149971430568272
822880,-77,186,147,-7783,-2757,-708,1745149971430568272
823072,-82,190,145,-7757,-2775,-733,1745149971430568272
823264,-91,193,141,-7684,-2775,-747,1745149971430568272
823456,-101,195,134,-7648,-2765,-761,1745149971430568272
823648,-107,198,128,-7649,-2740,-804,1745149971505181653
823840,-115,199,125,-7656,-2738,-867,1745149971505181653
824032,-121,198,121,-7632,-2713,-958,1745149971505181653
824224,-126,198,118,-7666,-2710,-1019,1745149971505181653
824416,-129,201,119,-7695,-2707,-998,1745149971505181653
824608,-130,202,120,-7691,-2684,-1027,1745149971505181653
824800,-132,197,119,-7642,-2638,-1089,1745149971505181653
824992,-131,190,114,-7616,-2571,-1161,1745149971505181653
825184,-123,188,110,-7598,-2559,-1210,1745149971505181653
825376,-111,190,108,-7642,-2585,-1207,1745149971505181653
825568,-95,192,104,-7667,-2608,-1213,1745149971505181653
825760,-83,188,98,-7685,-2629,-1263,1745149971505181653
825952,-74,184,94,-7697,-2638,-1292,1745149971548864119
826144,-67,181,92,-7701,-2649,-1353,1745149971548864119
826336,-61,181,93,-7709,-2668,-1379,1745149971548864119
826528,-57,181,93,-7696,-2665,-1370,1745149971548864119
826720,-56,178,93,-7658,-2679,-1372,1745149971548864119
826912,-56,172,92,-7653,-2673,-1366,1745149971548864119
827104,-59,167,90,-7646,-2680,-1404,1745149971548864119
827296,-66,162,92,-7627,-2703,-1417,1745149971548864119
827488,-76,160,95,-7615,-2697,-1401,1745149971548864119
827680,-86,156,97,-7597,-2712,-1397,1745149971548864119
827872,-100,153,99,-7600,-2727,-1422,1745149971548864119
828064,-112,148,102,-7585,-2724,-1483,1745149971548864119
828256,-122,144,105,-7575,-2664,-1519,1745149971607260825
828448,-131,140,108,-7557,-2624,-1505,1745149971607260825
828640,-133,134,108,-7532,-2583,-1516,1745149971607260825
828832,-130,129,108,-7516,-2541,-1556,1745149971607260825
829024,-123,124,106,-7500,-2519,-1613,1745149971607260825
829216,-112,116,106,-7477,-2497,-1613,1745149971607260825
829408,-102,110,104,-7524,-2510,-1594,1745149971607260825
829600,-94,107,103,-7565,-2510,-1584,1745149971607260825
829792,-86,107,107,-7615,-2517,-1560,1745149971607260825
829984,-82,106,109,-7645,-2555,-1522,1745149971607260825
830176,-77,102,106,-7663,-2569,-1545,1745149971607260825
830368,-73,97,104,-7647,-2558,-1566,1745149971607260825
830560,-71,93,104,-7629,-2544,-1567,1745149971666560127
830752,-69,89,106,-7619,-2532,-1602,1745149971666560127
830944,-68,87,106,-7627,-2509,-1631,1745149971666560127
831136,-72,86,107,-7629,-2513,-1656,1745149971666560127
831328,-79,83,104,-7627,-2506,-1664,1745149971666560127
831520,-88,81,101,-7633,-2517,-1629,1745149971666560127
831712,-97,79,101,-7617,-2495,-1639,1745149971666560127
831904,-104,76,100,-7607,-2457,-1604,1745149971666560127
832096,-108,76,103,-7627,-2450,-1584,1745149971666560127
832288,-111,73,105,-7629,-2416,-1582,1745149971666560127
832480,-111,70,106,-7646,-2403,-1546,1745149971666560127
832672,-111,71,107,-7662,-2388,-1526,1745149971666560127
832864,-107,73,108,-7661,-2411,-1522,1745149971719805214
833056,-105,75,106,-7653,-2420,-1535,1745149971719805214
833248,-106,80,106,-7694,-2415,-1514,1745149971719805214
833440,-109,86,107,-7713,-2422,-1467,1745149971719805214
833632,-112,92,108,-7706,-2390,-1375,1745149971719805214
833824,-112,97,109,-7673,-2384,-1306,1745149971719805214
834016,-108,98,108,-7640,-2350,-1269,1745149971719805214
834208,-105,99,107,-7609,-2292,-1291,1745149971719805214
834400,-99,101,105,-7620,-2264,-1327,1745149971719805214
834592,-91,105,103,-7619,-2234,-1397,1745149971719805214
834784,-87,109,100,-7596,-2240,-1483,1745149971719805214
834976,-83,113,96,-7589,-2287,-1557,1745149971719805214
835168,-80,121,94,-7615,-2313,-1526,1745149971783575360
835360,-77,129,95,-7613,-2308,-1483,1745149971783575360
835552,-74,130,95,-7590,-2283,-1472,1745149971783575360
835744,-74,131,95,-7553,-2222,-1468,1745149971783575360
835936,-75,132,94,-7525,-2215,-1478,1745149971783575360
836128,-75,133,92,-7521,-2200,-1523,1745149971783575360
836320,-76,134,88,-7565,-2208,-1559,1745149971783575360
836512,-82,138,86,-7562,-2218,-1607,1745149971783575360
836704,-90,140,85,-7568,-2247,-1628,1745149971783575360
836896,-99,142,85,-7560,-2227,-1635,1745149971783575360
837088,-108,142,86,-7548,-2232,-1611,1745149971783575360
837280,-121,142,87,-7516,-2193,-1573,1745149971783575360
837472,-133,143,87,-7484,-2177,-1571,1745149971841198167
837664,-144,144,85,-7464,-2140,-1558,1745149971841198167
837856,-151,150,84,-7507,-2125,-1514,1745149971841198167
838048,-156,165,85,-7590,-2169,-1372,1745149971841198167
838240,-157,178,85,-7606,-2185,-1234,1745149971841198167
838432,-160,188,87,-7549,-2161,-1171,1745149971841198167
838624,-166,194,88,-7468,-2120,-1152,1745149971841198167
838816,-175,201,88,-7363,-2049,-1155,1745149971841198167
839008,-181,207,86,-7305,-1999,-1201,1745149971841198167
839200,-184,216,82,-7272,-1974,-1227,1745149971841198167
839392,-184,228,79,-7308,-1997,-1219,1745149971841198167
839584,-182,243,80,-7347,-2013,-1157,1745149971841198167
839776,-184,258,81,-7348,-2000,-1087,1745149971917268931
839968,-193,272,81,-7282,-1984,-1025,1745149971917268931
840160,-209,286,80,-7183,-1949,-986,1745149971917268931
840352,-228,302,78,-7125,-1911,-933,1745149971917268931
840544,-247,318,77,-7086,-1889,-875,1745149971917268931
840736,-268,338,76,-7057,-1862,-821,1745149971917268931
840928,-290,360,76,-7032,-1822,-734,1745149971917268931
841120,-317,383,76,-6978,-1795,-635,1745149971917268931
841312,-347,408,76,-6920,-1782,-534,1745149971917268931
841504,-380,435,77,-6848,-1746,-413,1745149971917268931
841696,-417,464,79,-6777,-1679,-331,1745149971917268931
841888,-450,495,81,-6690,-1595,-287,1745149971917268931
842080,-477,529,82,-6611,-1515,-282,1745149971956883569
842272,-493,566,81,-6561,-1486,-268,1745149971956883569
842464,-499,606,81,-6515,-1501,-255,1745149971956883569
842656,-499,645,83,-6502,-1510,-268,1745149971956883569
842848,-496,682,84,-6468,-1559,-282,1745149971956883569
843040,-496,719,84,-6473,-1581,-297,1745149971956883569
843232,-497,757,83,-6452,-1548,-368,1745149971956883569
843424,-500,797,78,-6439,-1539,-420,1745149971956883569
843616,-502,843,76,-6434,-1524,-388,1745149971956883569
843808,-502,891,77,-6452,-1529,-355,1745149971956883569
844000,-501,943,82,-6466,-1584,-294,1745149971956883569
844192,-506,992,88,-6457,-1615,-215,1745149971956883569
844384,-520,1042,95,-6447,-1641,-167,1745149972026832201
844576,-546,1093,105,-6409,-1640,-144,1745149972026832201
844768,-572,1144,115,-6327,-1615,-153,1745149972026832201
844960,-598,1195,121,-6222,-1596,-158,1745149972026832201
845152,-624,1243,126,-6143,-1577,-247,1745149972026832201
845344,-651,1292,133,-6073,-1555,-356,1745149972026832201
845536,-673,1338,138,-6019,-1519,-508,1745149972026832201
845728,-689,1382,145,-5964,-1498,-663,1745149972026832201
845920,-701,1427,156,-5937,-1484,-796,1745149972026832201
846112,-706,1471,168,-5901,-1486,-889,1745149972026832201
846304,-700,1510,178,-5866,-1510,-983,1745149972026832201
846496,-687,1553,186,-5894,-1527,-1099,1745149972026832201
846688,-673,1589,198,-5880,-1560,-1210,1745149972078758810
846880,-664,1622,210,-5843,-1590,-1369,1745149972078758810
847072,-663,1655,220,-5781,-1595,-1605,1745149972078758810
847264,-674,1688,226,-5745,-1619,-1758,1745149972078758810
847456,-696,1727,232,-5732,-1661,-1750,1745149972078758810
847648,-724,1764,242,-5720,-1711,-1709,1745149972078758810
847840,-756,1801,258,-5692,-1735,-1640,1745149972078758810
848032,-795,1839,276,-5656,-1730,-1604,1745149972078758810
848224,-839,1872,296,-5556,-1628,-1675,1745149972078758810
848416,-883,1902,311,-5444,-1527,-1867,1745149972078758810
848608,-920,1939,327,-5362,-1403,-2013,1745149972078758810
848800,-942,1976,346,-5289,-1349,-2069,1745149972078758810
848992,-938,2009,363,-5216,-1299,-2163,1745149972131874835
849184,-923,2038,379,-5144,-1278,-2298,1745149972131874835
849376,-906,2064,391,-5085,-1235,-2488,1745149972131874835
849568,-888,2085,404,-5047,-1171,-2691,1745149972131874835
849760,-868,2104,414,-5013,-1120,-2879,1745149972131874835
849952,-851,2123,422,-4967,-1101,-3062,1745149972131874835
850144,-840,2143,431,-4958,-1075,-3239,1745149972131874835
850336,-833,2169,441,-4952,-1088,-3331,1745149972131874835
850528,-837,2191,447,-4907,-1054,-3463,1745149972131874835
850720,-847,2207,449,-4809,-965,-3669,1745149972131874835
850912,-858,2220,452,-4717,-882,-3809,1745149972131874835
851104,-864,2230,458,-4637,-834,-3978,1745149972131874835
851296,-860,2239,474,-4597,-751,-4260,1745149972192386990
851488,-840,2251,493,-4593,-675,-4529,1745149972192386990
851680,-813,2271,507,-4660,-665,-4639,1745149972192386990
851872,-786,2291,516,-4722,-671,-4639,1745149972192386990
852064,-759,2310,526,-4777,-699,-4698,1745149972192386990
852256,-738,2325,537,-4737,-740,-4851,1745149972192386990
852448,-725,2335,544,-4686,-714,-5017,1745149972192386990
852640,-721,2342,548,-4621,-677,-5197,1745149972192386990
852832,-718,2347,552,-4565,-612,-5357,1745149972192386990
853024,-714,2352,561,-4448,-543,-5551,1745149972192386990
853216,-707,2350,565,-4300,-450,-5852,1745149972192386990
853408,-693,2340,558,-4135,-299,-6202,1745149972192386990
853600,-673,2328,547,-4043,-202,-6470,1745149972265555541
853792,-640,2315,545,-3972,-167,-6771,1745149972265555541
853984,-588,2297,548,-3904,-132,-7074,1745149972265555541
854176,-531,2270,551,-3797,-168,-7305,1745149972265555541
854368,-476,2228,556,-3731,-182,-7616,1745149972265555541
854560,-441,2217,566,-3718,-248,-7757,1745149972265555541
854752,-415,2210,569,-3720,-276,-7749,1745149972265555541
854944,-401,2180,573,-3578,-287,-7804,1745149972265555541
855136,-401,2149,572,-3542,-223,-7825,1745149972265555541
855328,-412,2121,567,-3412,-183,-7993,1745149972265555541
855520,-433,2089,546,-3227,9,-8165,1745149972265555541
855712,-454,2044,530,-3113,266,-8341,1745149972265555541
855904,-477,2006,527,-3026,454,-8339,1745149972306606624
856096,-491,1966,534,-2991,593,-8368,1745149972306606624
856288,-484,1930,543,-2960,669,-8532,1745149972306606624
856480,-472,1896,540,-2949,718,-8776,1745149972306606624
856672,-462,1861,533,-2965,741,-9023,1745149972306606624
856864,-457,1828,533,-2985,694,-9177,1745149972306606624
857056,-456,1801,540,-2988,599,-9270,1745149972306606624
857248,-458,1775,546,-2939,508,-9313,1745149972306606624
857440,-461,1746,542,-2835,424,-9278,1745149972306606624
857632,-473,1711,531,-2713,363,-9191,1745149972306606624
857824,-497,1675,521,-2599,352,-9087,1745149972306606624
858016,-527,1638,516,-2513,337,-8951,1745149972306606624
858208,-557,1602,512,-2444,375,-8920,1745149972371586916
858400,-591,1563,510,-2359,469,-8935,1745149972371586916
858592,-626,1519,503,-2296,613,-8963,1745149972371586916
858784,-656,1480,492,-2295,711,-9013,1745149972371586916
858976,-671,1444,483,-2312,750,-9109,1745149972371586916
859168,-666,1416,483,-2357,726,-9217,1745149972371586916
859360,-643,1390,488,-2399,715,-9340,1745149972371586916
859552,-615,1370,492,-2436,718,-9421,1745149972371586916
859744,-587,1352,492,-2410,736,-9523,1745149972371586916
859936,-566,1330,490,-2299,771,-9497,1745149972371586916
860128,-548,1304,484,-2156,837,-9531,1745149972371586916
860320,-530,1271,480,-2028,932,-9566,1745149972371586916
860512,-518,1242,479,-1913,1067,-9542,1745149972434549101
860704,-506,1215,484,-1807,1117,-9437,1745149972434549101
860896,-493,1188,487,-1690,1135,-9351,1745149972434549101
861088,-481,1162,486,-1622,1131,-9277,1745149972434549101
861280,-478,1141,488,-1625,1048,-9160,1745149972434549101
861472,-483,1125,494,-1677,943,-9015,1745149972434549101
861664,-492,1109,506,-1732,819,-8925,1745149972434549101
861856,-503,1094,520,-1737,732,-8874,1745149972434549101
862048,-515,1078,533,-1716,708,-8898,1745149972434549101
862240,-525,1063,542,-1653,742,-8995,1745149972434549101
862432,-528,1047,545,-1537,836,-9086,1745149972434549101
862624,-523,1030,539,-1462,981,-9103,1745149972434549101
862816,-510,1017,528,-1360,1122,-9128,1745149972482675953
863008,-487,1008,515,-1286,1240,-9148,1745149972482675953
863200,-452,1001,501,-1225,1298,-9184,1745149972482675953
863392,-414,994,488,-1152,1334,-9233,1745149972482675953
863584,-379,984,476,-1139,1329,-9239,1745149972482675953
863776,-354,974,462,-1096,1303,-9228,1745149972482675953
863968,-341,964,452,-1040,1293,-9151,1745149972482675953
864160,-338,951,446,-1005,1244,-9085,1745149972482675953
864352,-341,937,445,-930,1201,-8993,1745149972482675953
864544,-344,923,445,-906,1193,-8901,1745149972482675953
864736,-350,910,446,-926,1205,-8818,1745149972482675953
864928,-357,898,447,-932,1199,-8700,1745149972482675953
865120,-365,894,444,-913,1211,-8594,1745149972546801669
865312,-375,893,438,-880,1221,-8532,1745149972546801669
865504,-380,893,430,-834,1230,-8545,1745149972546801669
865696,-385,890,422,-804,1281,-8627,1745149972546801669
865888,-384,887,419,-773,1372,-8725,1745149972546801669
866080,-378,888,420,-745,1441,-8778,1745149972546801669
866272,-364,892,419,-710,1509,-8884,1745149972546801669
866464,-339,890,412,-612,1668,-9035,1745149972546801669
866656,-306,882,402,-508,1881,-9220,1745149972546801669
866848,-266,871,389,-422,2079,-9292,1745149972546801669
867040,-220,863,375,-335,2230,-9304,1745149972546801669
867232,-173,863,362,-311,2309,-9206,1745149972546801669
867424,-128,868,349,-240,2293,-9051,1745149972607990017
867616,-88,869,333,-182,2240,-8873,1745149972607990017
867808,-51,869,320,-121,2108,-8773,1745149972607990017
868000,-21,866,313,-85,1975,-8660,1745149972607990017
868192,2,860,312,-73,1814,-8566,1745149972607990017
868384,18,856,310,-96,1666,-8500,1745149972607990017
868576,27,852,309,-90,1547,-8464,1745149972607990017
868768,34,846,305,-61,1486,-8471,1745149972607990017
868960,37,841,296,-55,1452,-8464,1745149972607990017
869152,40,838,284,-60,1433,-8451,1745149972607990017
869344,41,841,276,-46,1409,-8412,1745149972607990017
869536,40,844,270,-2,1378,-8383,1745149972607990017
869728,41,844,264,32,1365,-8394,1745149972663095190
869920,41,844,257,67,1365,-8405,1745149972663095190
870112,40,843,253,101,1394,-8389,1745149972663095190
870304,38,840,252,178,1441,-8391,1745149972663095190
870496,41,836,249,235,1524,-8406,1745149972663095190
870688,45,835,246,266,1584,-8420,1745149972663095190
870880,52,835,240,316,1631,-8439,1745149972663095190
871072,60,835,235,371,1635,-8422,1745149972663095190
871264,67,839,230,394,1572,-8427,1745149972663095190
871456,73,841,227,423,1500,-8437,1745149972663095190
871648,82,842,227,449,1400,-8436,1745149972663095190
871840,91,840,230,479,1324,-8448,1745149972663095190
872032,95,840,237,518,1255,-8416,1745149972724485255
872224,93,842,249,534,1210,-8326,1745149972724485255
872416,88,843,261,552,1225,-8186,1745149972724485255
872608,83,840,265,631,1288,-8092,1745149972724485255
872800,82,836,267,703,1375,-7970,1745149972724485255
872992,86,830,269,785,1443,-7926,1745149972724485255
873184,91,826,271,834,1467,-7934,1745149972724485255
873376,98,827,272,890,1427,-7972,1745149972724485255
873568,109,832,272,891,1357,-7984,1745149972724485255
873760,119,840,270,882,1274,-7976,1745149972724485255
873952,129,848,271,874,1202,-8000,1745149972724485255
874144,134,855,274,917,1168,-8027,1745149972724485255
874336,137,856,276,996,1222,-8088,1745149972779847926
874528,135,852,278,1125,1300,-8173,1745149972779847926
874720,135,841,280,1262,1412,-8213,1745149972779847926
874912,140,829,278,1388,1528,-8195,1745149972779847926
875104,151,821,274,1444,1588,-8216,1745149972779847926
875296,167,817,269,1482,1593,-8185,1745149972779847926
875488,182,812,268,1515,1564,-8173,1745149972779847926
875680,196,804,270,1535,1477,-8147,1745149972779847926
875872,206,800,271,1525,1330,-8119,1745149972779847926
876064,206,798,271,1514,1162,-8116,1745149972779847926
876256,194,791,272,1551,1049,-8084,1745149972779847926
876448,171,778,274,1609,979,-8051,1745149972779847926
876640,146,762,275,1657,1009,-8083,1745149972842160638
876832,121,747,276,1712,1092,-8141,1745149972842160638
877024,101,739,275,1733,1245,-8092,1745149972842160638
877216,86,733,275,1770,1414,-7994,1745149972842160638
877408,77,729,273,1796,1512,-7953,1745149972842160638
877600,81,727,271,1857,1539,-7979,1745149972842160638
877792,93,725,269,1867,1541,-8054,1745149972842160638
877984,105,722,270,1881,1508,-8102,1745149972842160638
878176,114,717,268,1903,1480,-8155,1745149972842160638
878368,118,712,266,1951,1473,-8206,1745149972842160638
878560,117,705,259,2022,1467,-8210,1745149972842160638
878752,117,696,253,2077,1455,-8150,1745149972842160638
878944,115,688,248,2111,1450,-8119,1745149972896866180
879136,119,680,243,2162,1432,-8060,1745149972896866180
879328,125,671,240,2202,1465,-8048,1745149972896866180
879520,133,664,236,2232,1438,-8028,1745149972896866180
879712,141,660,233,2204,1369,-8013,1745149972896866180
879904,148,658,228,2207,1301,-8032,1745149972896866180
880096,154,654,226,2252,1285,-8072,1745149972896866180
880288,154,646,224,2300,1303,-8046,1745149972896866180
880480,154,636,221,2368,1354,-7968,1745149972896866180
880672,160,628,218,2396,1454,-7903,1745149972896866180
880864,168,620,221,2484,1424,-7915,1745149972896866180
881056,169,608,212,2533,1403,-7908,1745149972896866180
881248,172,599,207,2502,1425,-7919,1745149972957270107
881440,177,594,208,2528,1337,-7957,1745149972957270107
881632,179,590,210,2568,1246,-7997,1745149972957270107
881824,177,584,208,2599,1139,-8044,1745149972957270107
882016,170,577,204,2641,1038,-8073,1745149972957270107
882208,162,566,198,2675,937,-8012,1745149972957270107
882400,156,555,196,2680,916,-7943,1745149972957270107
882592,155,547,195,2631,911,-7900,1745149972957270107
882784,157,540,194,2588,918,-7815,1745149972957270107
882976,160,540,191,2547,956,-7698,1745149972957270107
883168,165,547,186,2566,1034,-7628,1745149972957270107
883360,180,544,177,2776,1253,-8041,1745149972957270107
883552,230,493,164,3232,1601,-8941,1745149973014636302
883744,318,423,156,3503,1771,-9552,1745149973014636302
883936,423,377,164,3432,1463,-9916,1745149973014636302
884128,497,379,185,3132,649,-9950,1745149973014636302
884320,508,393,214,2930,-257,-9932,1745149973014636302
884512,440,374,233,3040,-773,-9970,1745149973014636302
884704,289,309,215,3311,-684,-9870,1745149973014636302
884896,90,228,163,3576,-172,-9696,1745149973014636302
885088,-100,145,114,3771,491,-9430,1745149973014636302
885280,-244,76,85,3864,1194,-9129,1745149973014636302
885472,-325,31,68,3821,1751,-8785,1745149973014636302
885664,-342,12,53,3622,2165,-8419,1745149973014636302
885856,-300,19,43,3258,2405,-8077,1745149973074026020
886048,-218,40,37,2955,2281,-7868,1745149973074026020
886240,-116,89,25,2594,2049,-7748,1745149973074026020
886432,-8,144,22,2376,1649,-7689,1745149973074026020
886624,92,197,26,2370,1160,-7669,1745149973074026020
886816,163,237,40,2564,690,-7699,1745149973074026020
887008,190,255,47,2780,338,-7715,1745149973074026020
887200,183,259,42,3009,131,-7712,1745149973074026020
887392,149,251,27,3235,73,-7695,1745149973074026020
887584,106,237,9,3357,131,-7676,1745149973074026020
887776,69,219,-7,3412,214,-7619,1745149973074026020
887968,43,204,-24,3345,326,-7617,1745149973074026020
888160,32,196,-39,3243,390,-7634,1745149973144444543
888352,30,198,-49,3126,468,-7609,1745149973144444543
888544,32,206,-55,3035,491,-7588,1745149973144444543
888736,33,219,-60,2943,505,-7567,1745149973144444543
888928,34,235,-61,2908,508,-7523,1745149973144444543
889120,37,251,-61,2923,464,-7475,1745149973144444543
889312,40,266,-59,2954,404,-7472,1745149973144444543
889504,42,277,-52,2984,368,-7483,1745149973144444543
889696,36,283,-39,3034,335,-7509,1745149973144444543
889888,27,286,-24,3071,345,-7513,1745149973144444543
890080,21,285,-11,3079,350,-7523,1745149973144444543
890272,17,284,-5,3073,356,-7559,1745149973144444543
890464,12,285,-1,3049,372,-7638,1745149973189058198
890656,4,290,5,2998,398,-7694,1745149973189058198
890848,-2,294,10,2992,423,-7730,1745149973189058198
891040,-9,296,16,3022,453,-7739,1745149973189058198
891232,-11,293,21,3061,469,-7772,1745149973189058198
891424,-10,286,23,3107,489,-7788,1745149973189058198
891616,-4,280,23,3135,497,-7732,1745149973189058198
891808,1,279,26,3158,479,-7716,1745149973189058198
892000,4,281,30,3192,482,-7718,1745149973189058198
892192,-1,279,37,3219,454,-7670,1745149973189058198
892384,-15,273,50,3227,440,-7683,1745149973189058198
892576,-40,261,64,3250,453,-7679,1745149973189058198
892768,-78,244,73,3244,505,-7655,1745149973248331407
892960,-118,229,75,3240,584,-7680,1745149973248331407
893152,-151,219,73,3239,696,-7604,1745149973248331407
893344,-176,209,67,3240,806,-7493,1745149973248331407
893536,-186,201,60,3206,921,-7501,1745149973248331407
893728,-180,195,53,3164,1023,-7589,1745149973248331407
893920,-164,197,48,3129,1084,-7667,1745149973248331407
894112,-146,202,44,3123,1092,-7714,1745149973248331407
894304,-123,206,41,3098,1069,-7786,1745149973248331407
894496,-98,207,42,3144,1064,-7871,1745149973248331407
894688,-73,205,38,3174,1049,-7912,1745149973248331407
894880,-52,200,36,3221,1006,-8003,1745149973248331407
895072,-39,194,39,3284,944,-8002,1745149973308023466
895264,-36,184,41,3360,890,-7998,1745149973308023466
895456,-40,169,41,3408,814,-7988,1745149973308023466
895648,-49,156,41,3436,743,-7951,1745149973308023466
895840,-61,141,45,3431,719,-7944,1745149973308023466
896032,-77,128,52,3405,717,-7940,1745149973308023466
896224,-98,114,57,3396,749,-7864,1745149973308023466
896416,-122,97,63,3411,827,-7828,1745149973308023466
896608,-148,78,67,3429,937,-7743,1745149973308023466
896800,-168,58,63,3452,1058,-7675,1745149973308023466
896992,-182,39,54,3460,1199,-7640,1745149973308023466
897184,-192,25,41,3421,1338,-7543,1745149973308023466
897376,-201,21,28,3363,1421,-7475,1745149973365048414
897568,-204,22,17,3321,1456,-7490,1745149973365048414
897760,-196,25,8,3286,1484,-7502,1745149973365048414
897952,-174,29,-1,3269,1459,-7454,1745149973365048414
898144,-143,36,-11,3244,1419,-7453,1745149973365048414
898336,-114,44,-18,3222,1358,-7502,1745149973365048414
898528,-89,54,-24,3224,1270,-7511,1745149973365048414
898720,-64,64,-24,3256,1171,-7442,1745149973365048414
898912,-38,71,-20,3272,1057,-7379,1745149973365048414
899104,-14,77,-11,3315,932,-7328,1745149973365048414
899296,4,80,0,3336,808,-7292,1745149973365048414
899488,14,80,8,3386,686,-7260,1745149973365048414
899680,21,79,15,3408,583,-7232,1745149973424841149
899872,24,77,19,3439,529,-7248,1745149973424841149
900064,22,74,21,3468,489,-7266,1745149973424841149
900256,17,70,19,3490,501,-7306,1745149973424841149
900448,5,65,16,3487,547,-7324,1745149973424841149
900640,-15,58,13,3483,619,-7349,1745149973424841149
900832,-36,51,9,3472,702,-7395,1745149973424841149
901024,-50,44,4,3499,748,-7423,1745149973424841149
901216,-57,39,-8,3435,844,-7454,1745149973424841149
901408,-54,38,-17,3411,909,-7488,1745149973424841149
901600,-46,37,-20,3414,992,-7527,1745149973424841149
901792,-35,35,-20,3445,995,-7545,1745149973424841149
901984,-30,31,-23,3462,983,-7528,1745149973482047553
902176,-31,28,-27,3444,999,-7466,1745149973482047553
902368,-35,24,-26,3447,987,-7427,1745149973482047553
902560,-44,21,-25,3472,980,-7384,1745149973482047553
902752,-52,18,-23,3491,963,-7304,1745149973482047553
902944,-57,15,-23,3462,975,-7239,1745149973482047553
903136,-55,15,-23,3464,980,-7229,1745149973482047553
903328,-53,15,-26,3417,999,-7243,1745149973482047553
903520,-48,20,-29,3394,986,-7302,1745149973482047553
903712,-45,22,-34,3385,959,-7364,1745149973482047553
903904,-44,24,-40,3366,915,-7315,1745149973482047553
904096,-35,27,-42,3352,890,-7288,1745149973482047553
904288,-21,30,-35,3350,832,-7295,1745149973554567099
904480,-8,31,-24,3364,784,-7278,1745149973554567099
904672,-5,32,-15,3380,719,-7278,1745149973554567099
904864,-10,29,-8,3389,687,-7298,1745149973554567099
905056,-20,24,-6,3389,695,-7309,1745149973554567099
905248,-31,20,-5,3399,710,-7331,1745149973554567099
905440,-41,16,-4,3384,759,-7322,1745149973554567099
905632,-49,11,-4,3378,818,-7312,1745149973554567099
905824,-53,8,-3,3381,904,-7319,1745149973554567099
906016,-56,4,-3,3417,941,-7333,1745149973554567099
906208,-59,3,-4,3389,1000,-7329,1745149973554567099
906400,-58,4,-9,3372,1017,-7323,1745149973554567099
906592,-54,6,-16,3385,1022,-7327,1745149973598431959
906784,-49,7,-21,3376,1019,-7367,1745149973598431959
906976,-46,7,-23,3374,1009,-7400,1745149973598431959
907168,-46,7,-19,3395,970,-7409,1745149973598431959
907360,-46,7,-15,3386,960,-7409,1745149973598431959
907552,-47,7,-10,3402,948,-7425,1745149973598431959
907744,-51,7,-4,3387,919,-7434,1745149973598431959
907936,-54,7,0,3408,909,-7443,1745149973598431959
908128,-58,7,3,3421,905,-7414,1745149973598431959
908320,-63,5,7,3456,911,-7387,1745149973598431959
908512,-68,1,10,3461,910,-7374,1745149973598431959
908704,-73,-2,12,3468,915,-7353,1745149973598431959
908896,-76,-4,12,3422,916,-7317,1745149973657296160
909088,-76,-4,10,3400,927,-7345,1745149973657296160
909280,-73,-4,7,3366,923,-7384,1745149973657296160
909472,-68,-2,3,3351,958,-7418,1745149973657296160
909664,-68,0,0,3337,970,-7451,1745149973657296160
909856,-68,0,-3,3362,977,-7448,1745149973657296160
910048,-67,-1,-4,3360,991,-7427,1745149973657296160
910240,-61,-3,-5,3375,1006,-7395,1745149973657296160
910432,-55,-3,-6,3381,993,-7378,1745149973657296160
910624,-50,-2,-5,3375,994,-7365,1745149973657296160
910816,-45,1,-4,3377,994,-7333,1745149973657296160
911008,-41,2,-2,3360,989,-7303,1745149973657296160
911200,-40,2,2,3353,990,-7319,1745149973717239050
911392,-41,1,5,3351,1003,-7324,1745149973717239050
911584,-42,1,7,3340,1000,-7340,1745149973717239050
911776,-40,1,7,3361,1016,-7357,1745149973717239050
911968,-38,4,7,3370,1037,-7374,1745149973717239050
912160,-34,6,6,3384,1068,-7382,1745149973717239050
912352,-32,5,5,3394,1085,-7399,1745149973717239050
912544,-31,5,3,3383,1100,-7429,1745149973717239050
912736,-32,3,1,3378,1100,-7444,1745149973717239050
912928,-32,3,-2,3366,1078,-7428,1745149973717239050
913120,-27,5,-4,3330,1054,-7422,1745149973717239050
913312,-21,7,-5,3326,1013,-7414,1745149973717239050
913504,-20,10,-3,3316,988,-7405,1745149973774955138
913696,-24,9,1,3330,974,-7414,1745149973774955138
913888,-28,6,6,3350,967,-7400,1745149973774955138
914080,-35,2,13,3362,982,-7379,1745149973774955138
914272,-41,-11,19,3476,992,-7121,1745149973774955138
914464,-39,-66,29,3792,1163,-6936,1745149973774955138
914656,10,-113,58,3249,1691,-7190,1745149973774955138
914848,85,-46,79,2494,1865,-7158,1745149973774955138
915040,165,16,70,2565,1860,-6975,1745149973774955138
915232,245,54,62,3051,1687,-7170,1745149973774955138
915424,291,74,54,3188,1443,-7259,1745149973774955138
915616,307,81,67,3271,1022,-7384,1745149973774955138
915808,304,98,65,3416,817,-7387,1745149973834674540
916000,286,102,76,3557,697,-7337,1745149973834674540
916192,262,83,97,3625,611,-7338,1745149973834674540
916384,241,64,98,3566,705,-7349,1745149973834674540
916576,182,40,126,3672,480,-7507,1745149973834674540
916768,146,57,75,3510,649,-7311,1745149973834674540
916960,134,62,54,3431,562,-7343,1745149973834674540
917152,107,58,43,3415,574,-7336,1745149973834674540
917344,83,49,36,3507,624,-7340,1745149973834674540
917536,62,32,33,3547,655,-7378,1745149973834674540
917728,40,23,31,3522,726,-7398,1745149973834674540
917920,24,14,28,3527,823,-7390,1745149973834674540
918112,16,7,25,3526,893,-7409,1745149973890577675
918304,11,0,18,3524,925,-7403,1745149973890577675
918496,5,-3,4,3432,959,-7369,1745149973890577675
918688,5,0,-8,3332,995,-7354,1745149973890577675
918880,12,6,-17,3229,1027,-7336,1745149973890577675
919072,21,14,-16,3235,990,-7325,1745149973890577675
919264,22,17,-15,3294,916,-7322,1745149973890577675
919456,20,18,-15,3305,895,-7299,1745149973890577675
919648,18,19,-14,3331,848,-7277,1745149973890577675
919840,15,18,-15,3391,856,-7232,1745149973890577675
920032,14,16,-14,3429,842,-7218,1745149973890577675
920224,12,14,-13,3426,829,-7220,1745149973890577675
920416,9,13,-11,3398,740,-7257,1745149973963710445
920608,-3,13,-12,3366,660,-7299,1745149973963710445
920800,-22,10,-15,3358,620,-7311,1745149973963710445
920992,-38,1,-17,3403,681,-7325,1745149973963710445
921184,-39,-16,-14,3519,852,-7301,1745149973963710445
921376,-29,-36,-7,3629,927,-7337,1745149973963710445
921568,-24,-45,0,3609,893,-7399,1745149973963710445
921760,-26,-47,2,3596,787,-7437,1745149973963710445
921952,-37,-47,-6,3458,759,-7447,1745149973963710445
922144,-41,-39,-17,3273,850,-7417,1745149973963710445
922336,-38,-31,-24,3162,898,-7424,1745149973963710445
922528,-34,-21,-28,3118,915,-7438,1745149973963710445
922720,-29,-8,-28,3079,947,-7409,1745149974007750459
922912,-18,3,-23,3104,1018,-7370,1745149974007750459
923104,-5,10,-17,3175,1016,-7369,1745149974007750459
923296,5,2,-12,3437,949,-7337,1745149974007750459
923488,-1,-23,-9,3701,786,-7373,1745149974007750459
923680,-27,-55,-9,3862,594,-7403,1745149974007750459
923872,-68,-85,-9,3862,448,-7416,1745149974007750459
924064,-115,-112,-10,3796,371,-7443,1745149974007750459
924256,-157,-131,-13,3640,395,-7455,1745149974007750459
924448,-194,-143,-16,3473,438,-7481,1745149974007750459
924640,-224,-147,-20,3304,556,-7531,1745149974007750459
924832,-244,-145,-24,3183,720,-7528,1745149974007750459
926368,-19,-8,-16,3405,980,-7474,1745149990152460165
1558048,272,-3,36,2007,1656,-8301,1745149990152460165
1558240,336,-68,55,1815,728,-6944,1745149990152460165
1558432,241,58,33,1681,636,-8203,1745149990152460165
1558624,216,56,12,1866,257,-7497,1745149990152460165
1558816,138,29,-6,1903,-2,-7768,1745149990152460165
1559008,70,30,-19,1902,-116,-7764,1745149990152460165
1559200,9,3,-27,1938,-87,-7758,1745149990152460165
1559392,-52,-3,-31,2061,64,-7764,1745149990152460165
1559584,-86,-11,-32,2116,238,-7760,1745149990152460165
1559776,-121,-34,-36,2135,403,-7721,1745149990152460165
1559968,-142,-40,-44,2178,725,-7636,1745149990152460165
1560160,-132,-55,-52,2254,1084,-7569,1745149990346747504
1560352,-107,-72,-55,2364,1316,-7576,1745149990346747504
1560544,-72,-70,-53,2337,1360,-7638,1745149990346747504
1560736,-41,-58,-52,2169,1314,-7729,1745149990346747504
1560928,-12,-36,-56,2011,1267,-7848,1745149990346747504
1561120,19,-12,-58,1918,1267,-7958,1745149990346747504
1561312,46,2,-56,1886,1264,-8090,1745149990346747504
1561504,67,17,-49,1923,1271,-8202,1745149990346747504
1561696,86,31,-40,1955,1256,-8228,1745149990346747504
1561888,100,44,-31,1989,1185,-8266,1745149990346747504
1562080,105,58,-23,2029,1067,-8305,1745149990346747504
1562272,101,66,-18,2116,993,-8271,1745149990346747504
1562464,92,67,-11,2196,932,-8229,1745149990360230037
1562656,81,60,0,2312,886,-8192,1745149990360230037
1562848,69,54,11,2360,828,-8191,1745149990360230037
1563040,59,53,20,2367,773,-8163,1745149990360230037
1563232,49,51,26,2407,730,-8164,1745149990360230037
1563424,36,44,31,2455,680,-8126,1745149990360230037
1563616,19,34,33,2460,609,-8114,1745149990360230037
1563808,-8,23,32,2443,543,-8134,1745149990360230037
1564000,-42,13,29,2429,478,-8146,1745149990360230037
1564192,-79,0,24,2413,450,-8184,1745149990360230037
1564384,-115,-11,21,2413,441,-8244,1745149990360230037
1564576,-151,-21,21,2407,440,-8347,1745149990360230037
1564768,-186,-27,23,2389,470,-8439,1745149990369098342
1564960,-220,-34,27,2389,566,-8423,1745149990369098342
1565152,-242,-47,29,2416,716,-8355,1745149990369098342
1565344,-246,-65,29,2411,909,-8274,1745149990369098342
1565536,-237,-79,28,2285,1054,-8177,1745149990369098342
1565728,-262,-104,20,2081,104,-7515,1745149990369098342
1565920,-315,-103,5,2015,1718,-9295,1745149990369098342
1566112,-169,-31,48,1802,1721,-6768,1745149990369098342
1566304,-175,-28,48,1276,1420,-7838,1745149990369098342
1566496,-131,34,8,1276,1319,-7843,1745149990369098342
1566688,-107,71,-31,1581,991,-7499,1745149990369098342
1566880,-87,109,-96,1876,642,-7671,1745149990369098342
1567072,-109,173,-187,2006,765,-7774,1745149990377641962
1567264,-179,227,-203,2251,1018,-7106,1745149990377641962
1567456,-142,66,-83,3043,1123,-6315,1745149990377641962
1567648,-53,-63,-2,2829,1188,-7342,1745149990377641962
1567840,-47,-61,9,2361,1148,-7300,1745149990377641962
1568032,-32,-39,4,2026,1113,-7365,1745149990377641962
1568224,-10,-17,-14,1824,1090,-7518,1745149990377641962
1568416,8,-10,-28,1700,1056,-7623,1745149990377641962
1568608,15,1,-29,1710,1077,-7696,1745149990377641962
1568800,15,13,-23,1825,1114,-7708,1745149990377641962
1568992,17,17,-13,2028,1151,-7720,1745149990377641962
1569184,19,13,1,2238,1161,-7731,1745149990377641962
1569376,15,8,10,2349,1120,-7734,1745149990453790693
1569568,2,3,11,2361,1090,-7697,1745149990453790693
1569760,-12,-2,9,2300,1064,-7680,1745149990453790693
1569952,-26,-9,8,2213,1024,-7686,1745149990453790693
1570144,-43,-16,9,2099,969,-7685,1745149990453790693
1570336,-59,-25,14,1997,951,-7688,1745149990453790693
1570528,-73,-31,20,1958,939,-7687,1745149990453790693
1570720,-81,-35,25,1929,965,-7702,1745149990453790693
1570912,-83,-35,27,1913,1007,-7684,1745149990453790693
1571104,-78,-33,25,1928,1060,-7675,1745149990453790693
1571296,-67,-30,23,1969,1097,-7669,1745149990453790693
1571488,-52,-26,21,1960,1126,-7729,1745149990453790693
1571680,-38,-22,20,-1,-1,-1,1745149990503860392
1571872,-23,-19,23,1995,1067,-7795,1745149990503860392
1572064,-11,-18,27,2029,1035,-7837,1745149990503860392
1572256,-7,-16,29,2049,987,-7886,1745149990503860392
1572448,-11,-16,28,2064,951,-7928,1745149990503860392
1572640,-19,-20,29,2096,917,-7947,1745149990503860392
1572832,-29,-26,31,2112,939,-7959,1745149990503860392
1573024,-38,-33,36,2137,944,-7987,1745149990503860392
1573216,-47,-40,38,2141,967,-7988,1745149990503860392
1573408,-53,-44,40,2124,989,-7996,1745149990503860392
1573600,-57,-45,37,2097,996,-7946,1745149990503860392
1573792,-61,-46,32,2092,997,-7916,1745149990503860392
1573984,-62,-45,29,2065,963,-7888,1745149990552228232
1574176,-59,-44,26,2081,957,-7857,1745149990552228232
1574368,-55,-43,25,2092,925,-7821,1745149990552228232
1574560,-48,-41,25,2113,919,-7800,1745149990552228232
1574752,-42,-41,22,2161,941,-7804,1745149990552228232
1574944,-38,-40,20,2189,964,-7791,1745149990552228232
1575136,-37,-39,20,2212,989,-7776,1745149990552228232
1575328,-37,-40,20,2269,1010,-7808,1745149990552228232
1575520,-38,-41,18,2268,1069,-7820,1745149990552228232
1575712,-39,-43,15,2290,1109,-7813,1745149990552228232
1575904,-41,-44,12,2288,1157,-7843,1745149990552228232
1576096,-43,-45,12,2279,1161,-7879,1745149990552228232
1576288,-44,-46,12,2248,1149,-7907,1745149990615275520
1576480,-43,-47,13,2185,1104,-7974,1745149990615275520
1576672,-42,-49,14,2178,1059,-8025,1745149990615275520
1576864,-42,-51,15,2156,1009,-8048,1745149990615275520
1577056,-44,-53,17,2154,958,-8054,1745149990615275520
1577248,-48,-57,19,2137,899,-8060,1745149990615275520
1577440,-53,-61,23,2151,834,-8067,1745149990615275520
1577632,-58,-66,26,2147,801,-8096,1745149990615275520
1577824,-62,-72,27,2169,806,-8187,1745149990615275520
1578016,-67,-78,27,2170,821,-8272,1745149990615275520
1578208,-74,-85,26,2216,895,-8363,1745149990615275520
1578400,-78,-91,25,2288,956,-8306,1745149990615275520
1578592,-74,-95,26,2323,1038,-8243,1745149990670294861
1578784,-57,-99,31,2349,1090,-8233,1745149990670294861
1578976,-32,-97,35,2351,1106,-8295,1745149990670294861
1579168,-9,-93,40,2318,1079,-8331,1745149990670294861
1579360,9,-88,47,2292,1014,-8340,1745149990670294861
1579552,24,-88,59,2308,928,-8400,1745149990670294861
1579744,41,-95,75,2348,836,-8466,1745149990670294861
1579936,56,-103,91,2374,776,-8538,1745149990670294861
1580128,63,-114,100,2403,736,-8589,1745149990670294861
1580320,63,-124,100,2436,713,-8537,1745149990670294861
1580512,64,-146,96,2517,773,-8488,1745149990670294861
1580704,70,-170,91,2523,886,-8491,1745149990670294861
1580896,64,-190,86,2469,1005,-8623,1745149990734120372
1581088,47,-200,76,2398,1037,-8688,1745149990734120372
1581280,37,-203,62,2351,1088,-8594,1745149990734120372
1581472,48,-206,54,2303,1134,-8352,1745149990734120372
1581664,69,-200,53,2234,1153,-8052,1745149990734120372
1581856,103,-193,62,2187,1124,-7922,1745149990734120372
1582048,145,-187,77,2197,1071,-7914,1745149990734120372
1582240,189,-186,90,2335,1011,-7913,1745149990734120372
1582432,234,-209,91,2571,1031,-8290,1745149990734120372
1582624,260,-241,76,2701,1076,-8389,1745149990734120372
1582816,250,-273,51,2711,1023,-8535,1745149990734120372
1583008,229,-300,28,2737,947,-8818,1745149990734120372
1583200,225,-338,8,2777,989,-9112,1745149990784879023
1583392,211,-379,-11,2756,1092,-9102,1745149990784879023
1583584,184,-417,-27,2699,1068,-9126,1745149990784879023
1583776,160,-451,-36,2610,927,-9517,1745149990784879023
1583968,129,-487,-34,2571,719,-9966,1745149990784879023
1584160,86,-533,-17,2634,563,-10267,1745149990784879023
1584352,36,-591,5,2723,550,-10476,1745149990784879023
1584544,-28,-654,7,2725,583,-10382,1745149990784879023
1584736,-100,-714,-1,2615,720,-10275,1745149990784879023
1584928,-178,-771,-14,2461,901,-10199,1745149990784879023
1585120,-258,-812,-27,2224,909,-9915,1745149990784879023
1585312,-316,-842,-29,2011,883,-9511,1745149990784879023
1585504,-350,-869,-27,1774,868,-9137,1745149990858739442
1585696,-368,-884,-20,1595,896,-8851,1745149990858739442
1585888,-371,-895,-7,1453,985,-8536,1745149990858739442
1586080,-357,-895,6,1312,1059,-8249,1745149990858739442
1586272,-345,-881,8,1242,1187,-8156,1745149990858739442
1586464,-357,-865,-6,1386,1533,-8291,1745149990858739442
1586656,-388,-849,-32,1595,1706,-8387,1745149990858739442
1586848,-437,-841,-66,2315,2683,-8970,1745149990858739442
1587040,-498,-849,-76,2788,2701,-9179,1745149990858739442
1587232,-451,-909,-97,2193,2037,-9548,1745149990858739442
1587424,-377,-974,-163,1277,1406,-10499,1745149990858739442
1587616,-398,-986,-190,650,798,-11184,1745149990858739442
1587808,-495,-989,-151,516,256,-11279,1745149990901282699
1588000,-608,-1031,-100,866,149,-11258,1745149990901282699
1588192,-712,-1107,-79,1246,382,-11103,1745149990901282699
1588384,-796,-1199,-73,1453,819,-11005,1745149990901282699
1588576,-858,-1299,-76,1450,1403,-10906,1745149990901282699
1588768,-907,-1381,-93,1216,1954,-10822,1745149990901282699
1588960,-929,-1446,-122,864,2437,-10735,1745149990901282699
1589152,-920,-1495,-156,509,2814,-10620,1745149990901282699
1589344,-890,-1529,-179,142,3063,-10444,1745149990901282699
1589536,-846,-1554,-189,-141,3140,-10281,1745149990901282699
1589728,-786,-1573,-195,-346,3181,-10193,1745149990901282699
1589920,-719,-1591,-198,-452,3172,-10180,1745149990901282699
1590112,-655,-1612,-204,-498,3097,-10198,1745149990967546260
1590304,-597,-1633,-213,-515,3001,-10200,1745149990967546260
1590496,-547,-1659,-228,-547,2861,-10252,1745149990967546260
1590688,-502,-1691,-244,-568,2787,-10296,1745149990967546260
1590880,-457,-1724,-261,-615,2778,-10370,1745149990967546260
1591072,-411,-1761,-277,-625,2786,-10399,1745149990967546260
1591264,-370,-1791,-293,-694,2770,-10341,1745149990967546260
1591456,-333,-1816,-309,-786,2728,-10255,1745149990967546260
1591648,-305,-1834,-325,-879,2591,-10124,1745149990967546260
1591840,-282,-1852,-338,-977,2405,-10017,1745149990967546260
1592032,-266,-1874,-346,-1101,2219,-10028,1745149990967546260
1592224,-258,-1898,-353,-1207,2066,-10156,1745149990967546260
1592416,-263,-1921,-363,-1346,2011,-10254,1745149991018326422
1592608,-277,-1946,-373,-1395,2058,-10188,1745149991018326422
1592800,-292,-1978,-388,-1372,2163,-10094,1745149991018326422
1592992,-295,-2009,-407,-1330,2300,-9965,1745149991018326422
1593184,-288,-2037,-433,-1313,2390,-9870,1745149991018326422
1593376,-278,-2062,-462,-1367,2456,-9789,1745149991018326422
1593568,-266,-2087,-489,-1431,2522,-9750,1745149991018326422
1593760,-244,-2114,-510,-1519,2607,-9697,1745149991018326422
1593952,-218,-2144,-532,-1629,2657,-9595,1745149991018326422
1594144,-195,-2170,-552,-1736,2667,-9478,1745149991018326422
1594336,-177,-2194,-569,-1803,2628,-9430,1745149991018326422
1594528,-154,-2221,-584,-1821,2647,-9470,1745149991018326422
1594720,-125,-2252,-599,-1797,2755,-9484,1745149991084769356
1594912,-94,-2284,-615,-1778,2898,-9375,1745149991084769356
1595104,-67,-2307,-633,-1759,2979,-9121,1745149991084769356
1595296,-42,-2317,-651,-1786,2961,-8762,1745149991084769356
1595488,-14,-2313,-666,-1856,2863,-8374,1745149991084769356
1595680,26,-2308,-679,-1942,2694,-8052,1745149991084769356
1595872,77,-2305,-686,-2050,2509,-7782,1745149991084769356
1596064,135,-2304,-688,-2213,2330,-7495,1745149991084769356
1596256,203,-2304,-682,-2312,2224,-7363,1745149991084769356
1596448,264,-2296,-676,-2457,2062,-7130,1745149991084769356
1596640,300,-2272,-674,-2545,1879,-7087,1745149991084769356
1596832,322,-2255,-685,-2512,1735,-7247,1745149991084769356
1597024,336,-2255,-704,-2441,1801,-7622,1745149991247438756
1597216,331,-2270,-727,-2357,2061,-7890,1745149991247438756
1597408,302,-2284,-750,-2287,2344,-7916,1745149991247438756
1597600,259,-2284,-772,-2233,2490,-7743,1745149991247438756
1597792,224,-2270,-793,-2245,2527,-7508,1745149991247438756
1597984,206,-2257,-811,-2267,2557,-7336,1745149991247438756
1598176,210,-2257,-823,-2304,2572,-7227,1745149991247438756
1598368,224,-2269,-829,-2364,2648,-6983,1745149991247438756
1598560,241,-2282,-834,-2451,2524,-6706,1745149991247438756
1598752,261,-2276,-852,-2669,2442,-6481,1745149991247438756
1598944,285,-2249,-869,-2876,2280,-6288,1745149991247438756
1599136,307,-2224,-888,-3027,2168,-6159,1745149991247438756
1599328,325,-2203,-905,-3129,2103,-6052,1745149991256680026
1599520,348,-2188,-920,-3154,2048,-5963,1745149991256680026
1599712,378,-2175,-937,-3168,2022,-5979,1745149991256680026
1599904,410,-2166,-952,-3146,1995,-6071,1745149991256680026
1600096,436,-2155,-968,-3172,1986,-6121,1745149991256680026
1600288,458,-2143,-976,-3220,1922,-6118,1745149991256680026
1600480,475,-2129,-979,-3272,1843,-5976,1745149991256680026
1600672,491,-2103,-984,-3363,1700,-5745,1745149991256680026
1600864,503,-2076,-993,-3461,1482,-5597,1745149991256680026
1601056,489,-2050,-997,-3556,1174,-5362,1745149991256680026
1601248,461,-2024,-994,-3681,849,-5266,1745149991256680026
1601440,427,-2003,-990,-3800,600,-5191,1745149991256680026
1601632,386,-1987,-988,-3863,486,-4986,1745149991271244163
1601824,341,-1975,-988,-3861,477,-4741,1745149991271244163
1602016,287,-1960,-988,-3869,482,-4543,1745149991271244163
1602208,230,-1939,-990,-3883,498,-4443,1745149991271244163
1602400,179,-1911,-989,-3883,555,-4464,1745149991271244163
1602592,141,-1895,-991,-3979,640,-4251,1745149991271244163
1602784,103,-1902,-994,-4059,653,-4293,1745149991271244163
1602976,66,-1883,-989,-4171,619,-4267,1745149991271244163
1603168,38,-1857,-977,-4313,537,-4390,1745149991271244163
1603360,27,-1834,-967,-4403,543,-4555,1745149991271244163
1603552,23,-1820,-966,-4490,649,-4596,1745149991271244163
1603744,23,-1798,-971,-4592,796,-4434,1745149991271244163
1603936,30,-1760,-976,-4685,901,-4058,1745149991315085482
1604128,59,-1722,-985,-4695,986,-3690,1745149991315085482
1604320,119,-1693,-990,-4685,1052,-3448,1745149991315085482
1604512,198,-1669,-994,-4692,1090,-3395,1745149991315085482
1604704,282,-1652,-1000,-4750,1063,-3434,1745149991315085482
1604896,360,-1628,-1003,-4907,957,-3402,1745149991315085482
1605088,427,-1593,-1004,-5090,728,-3256,1745149991315085482
1605280,484,-1560,-1007,-5251,436,-3116,1745149991315085482
1605472,536,-1533,-1004,-5377,173,-3166,1745149991315085482
1605664,580,-1514,-997,-5478,-9,-3316,1745149991315085482
1605856,608,-1496,-991,-5687,-101,-3498,1745149991315085482
1606048,619,-1473,-989,-5685,-263,-3378,1745149991315085482
1606240,612,-1466,-997,-5685,-396,-3167,1745149991375391076
1606432,600,-1443,-992,-5755,-534,-2956,1745149991375391076
1606624,593,-1427,-973,-5728,-611,-2706,1745149991375391076
1606816,598,-1424,-949,-5811,-637,-2728,1745149991375391076
1607008,611,-1415,-922,-6019,-571,-2939,1745149991375391076
1607200,622,-1405,-906,-6192,-448,-3049,1745149991375391076
1607392,628,-1380,-890,-6293,-456,-3042,1745149991375391076
1607584,628,-1349,-885,-6238,-582,-2937,1745149991375391076
1607776,616,-1331,-891,-6103,-775,-2902,1745149991375391076
1607968,589,-1323,-900,-6087,-970,-2831,1745149991375391076
1608160,553,-1311,-881,-6315,-1120,-2783,1745149991375391076
1608352,523,-1299,-837,-6556,-1175,-2755,1745149991375391076
1608544,513,-1294,-792,-6666,-1094,-2866,1745149991434331476
1608736,528,-1301,-756,-6623,-915,-3034,1745149991434331476
1608928,546,-1302,-744,-6551,-760,-3059,1745149991434331476
1609120,550,-1298,-750,-6397,-742,-3017,1745149991434331476
1609312,546,-1296,-762,-6296,-859,-2932,1745149991434331476
1609504,535,-1292,-768,-6349,-1125,-2930,1745149991434331476
1609696,513,-1289,-763,-6504,-1357,-2981,1745149991434331476
1609888,484,-1284,-740,-6712,-1469,-2957,1745149991434331476
1610080,446,-1287,-715,-6774,-1495,-2810,1745149991434331476
1610272,400,-1296,-699,-6756,-1438,-2634,1745149991434331476
1610464,360,-1309,-691,-6649,-1332,-2404,1745149991434331476
1610656,333,-1321,-689,-6619,-1211,-2280,1745149991434331476
1610848,324,-1320,-683,-6734,-1157,-2184,1745149991493015627
1611040,339,-1307,-675,-6823,-1167,-2076,1745149991493015627
1611232,371,-1289,-672,-6907,-1173,-1957,1745149991493015627
1611424,414,-1271,-670,-6943,-1176,-1796,1745149991493015627
1611616,460,-1253,-666,-7012,-1220,-1727,1745149991493015627
1611808,509,-1230,-660,-7021,-1316,-1662,1745149991493015627
1612000,558,-1202,-653,-6992,-1414,-1568,1745149991493015627
1612192,604,-1184,-643,-6941,-1458,-1499,1745149991493015627
1612384,643,-1170,-633,-6882,-1533,-1497,1745149991493015627
1612576,671,-1159,-623,-6861,-1604,-1485,1745149991493015627
1612768,692,-1149,-608,-6853,-1662,-1564,1745149991493015627
1612960,712,-1141,-593,-6859,-1715,-1721,1745149991493015627
1613152,716,-1131,-588,-6862,-1777,-1842,1745149991551246033
1613344,695,-1121,-589,-6860,-1843,-1812,1745149991551246033
1613536,664,-1114,-585,-6842,-1904,-1797,1745149991551246033
1613728,641,-1108,-576,-6781,-1842,-1743,1745149991551246033
1613920,620,-1100,-566,-6678,-1826,-1579,1745149991551246033
1614112,604,-1098,-562,-6587,-1767,-1324,1745149991551246033
1614304,589,-1093,-558,-6599,-1748,-1114,1745149991551246033
1614496,576,-1078,-548,-6697,-1771,-911,1745149991551246033
1614688,562,-1055,-544,-6787,-1924,-684,1745149991551246033
1614880,543,-1033,-541,-6847,-2042,-409,1745149991551246033
1615072,524,-1021,-542,-6891,-2127,-225,1745149991551246033
1615264,513,-1011,-537,-6871,-2072,-148,1745149991551246033
1615456,502,-999,-528,-6786,-2023,-145,1745149991609241076
1615648,493,-992,-525,-6634,-1984,-195,1745149991609241076
1615840,486,-985,-526,-6537,-1991,-270,1745149991609241076
1616032,477,-969,-527,-6523,-2053,-246,1745149991609241076
1616224,469,-953,-521,-6533,-2111,-132,1745149991609241076
1616416,461,-934,-510,-6582,-2210,-41,1745149991609241076
1616608,450,-915,-498,-6599,-2269,-13,1745149991609241076
1616800,439,-896,-488,-6624,-2359,45,1745149991609241076
1616992,428,-876,-481,-6665,-2420,117,1745149991609241076
1617184,423,-853,-473,-6682,-2420,170,1745149991609241076
1617376,421,-824,-460,-6695,-2390,278,1745149991609241076
1617568,419,-794,-447,-6691,-2335,492,1745149991609241076
1617760,426,-770,-434,-6666,-2269,627,1745149991668292568
1617952,439,-741,-420,-6654,-2215,792,1745149991668292568
1618144,456,-711,-406,-6626,-2200,962,1745149991668292568
1618336,473,-680,-394,-6614,-2237,1123,1745149991668292568
1618528,489,-650,-386,-6638,-2272,1222,1745149991668292568
1618720,499,-622,-382,-6665,-2322,1320,1745149991668292568
1618912,504,-591,-376,-6698,-2381,1359,1745149991668292568
1619104,503,-559,-365,-6724,-2456,1371,1745149991668292568
1619296,501,-525,-352,-6765,-2552,1416,1745149991668292568
1619488,495,-495,-337,-6774,-2588,1472,1745149991668292568
1619680,488,-463,-318,-6772,-2653,1488,1745149991668292568
1619872,479,-430,-297,-6735,-2723,1507,1745149991668292568
1620064,458,-398,-281,-6724,-2839,1522,1745149991737738548
1620256,430,-371,-268,-6733,-2965,1540,1745149991737738548
1620448,399,-345,-254,-6776,-3077,1487,1745149991737738548
1620640,367,-318,-238,-6817,-3176,1397,1745149991737738548
1620832,332,-290,-222,-6861,-3251,1301,1745149991737738548
1621024,292,-263,-207,-6889,-3280,1193,1745149991737738548
1621216,254,-237,-188,-6946,-3203,1168,1745149991737738548
1621408,227,-213,-168,-6885,-3060,1244,1745149991737738548
1621600,218,-197,-156,-6834,-2917,1335,1745149991737738548
1621792,220,-182,-144,-6829,-2795,1416,1745149991737738548
1621984,232,-165,-127,-6915,-2702,1436,1745149991737738548
1622176,250,-141,-113,-6961,-2620,1430,1745149991737738548
1622368,272,-113,-104,-7085,-2585,1460,1745149991783475109
1622560,290,-80,-95,-7169,-2606,1491,1745149991783475109
1622752,305,-49,-88,-7209,-2654,1527,1745149991783475109
1622944,315,-24,-88,-7229,-2682,1507,1745149991783475109
1623136,320,-4,-86,-7228,-2672,1418,1745149991783475109
1623328,325,13,-78,-7212,-2651,1309,1745149991783475109
1623520,333,29,-69,-7162,-2642,1242,1745149991783475109
1623712,339,44,-61,-7133,-2665,1110,1745149991783475109
1623904,342,56,-53,-7174,-2726,955,1745149991783475109
1624096,339,67,-44,-7228,-2805,800,1745149991783475109
1624288,331,73,-32,-7300,-2869,664,1745149991783475109
1624480,316,79,-18,-7362,-2943,565,1745149991783475109
1624672,287,87,-4,-7417,-3058,509,1745149991852647863
1624864,252,94,9,-7451,-3187,524,1745149991852647863
1625056,213,98,22,-7490,-3250,514,1745149991852647863
1625248,174,100,36,-7536,-3307,518,1745149991852647863
1625440,142,101,48,-7571,-3239,550,1745149991852647863
1625632,114,101,58,-7628,-3152,616,1745149991852647863
1625824,91,104,65,-7629,-3097,660,1745149991852647863
1626016,75,112,66,-7614,-3039,702,1745149991852647863
1626208,66,116,65,-7587,-2998,694,1745149991852647863
1626400,63,117,66,-7578,-2910,573,1745149991852647863
1626592,61,118,69,-7595,-2816,481,1745149991852647863
1626784,64,120,71,-7560,-2748,402,1745149991852647863
1626976,73,118,72,-7580,-2690,317,1745149991899665194
1627168,88,114,73,-7577,-2686,212,1745149991899665194
1627360,105,111,73,-7643,-2738,100,1745149991899665194
1627552,122,111,75,-7680,-2827,20,1745149991899665194
1627744,131,109,77,-7689,-2934,-60,1745149991899665194
1627936,130,102,78,-7675,-3027,-188,1745149991899665194
1628128,116,93,82,-7627,-3056,-244,1745149991899665194
1628320,94,84,86,-7588,-3054,-220,1745149991899665194
1628512,73,71,89,-7576,-3014,-158,1745149991899665194
1628704,55,62,91,-7618,-2955,-85,1745149991899665194
1628896,43,57,94,-7693,-2947,-48,1745149991899665194
1629088,38,57,100,-7782,-2962,-26,1745149991899665194
1629280,34,64,112,-7872,-3014,52,1745149991960181464
1629472,29,75,124,-7970,-3059,166,1745149991960181464
1629664,18,79,132,-7865,-3020,206,1745149991960181464
1629856,3,76,129,-7810,-3010,191,1745149991960181464
1630048,-11,71,125,-7814,-2928,197,1745149991960181464
1630240,-17,68,125,-7826,-2851,157,1745149991960181464
1630432,-16,66,124,-7851,-2766,112,1745149991960181464
1630624,-9,65,123,-7860,-2716,50,1745149991960181464
1630816,4,63,119,-7857,-2708,-17,1745149991960181464
1631008,15,63,113,-7873,-2731,-71,1745149991960181464
1631200,19,60,105,-7874,-2750,-148,1745149991960181464
1631392,16,57,97,-7866,-2758,-218,1745149991960181464
1631584,9,54,86,-7868,-2754,-199,1745149992018392963
1631776,4,52,78,-7900,-2735,-148,1745149992018392963
1631968,2,52,74,-7911,-2642,-140,1745149992018392963
1632160,2,52,71,-7907,-2556,-117,1745149992018392963
1632352,3,55,67,-7914,-2544,-55,1745149992018392963
1632544,8,59,60,-7901,-2541,40,1745149992018392963
1632736,17,66,54,-7896,-2577,98,1745149992018392963
1632928,24,71,49,-7901,-2599,107,1745149992018392963
1633120,25,76,45,-7912,-2623,126,1745149992018392963
1633312,23,82,44,-7903,-2648,106,1745149992018392963
1633504,17,86,45,-7860,-2661,116,1745149992018392963
1633696,8,91,45,-7815,-2659,114,1745149992018392963
1633888,-2,94,43,-7760,-2650,129,1745149992098356503
1634080,-14,96,41,-7741,-2654,142,1745149992098356503
1634272,-24,95,42,-7718,-2642,86,1745149992098356503
1634464,-33,94,44,-7692,-2586,15,1745149992098356503
1634656,-40,90,45,-7671,-2517,-75,1745149992098356503
1634848,-47,88,42,-7625,-2432,-140,1745149992098356503
1635040,-47,87,39,-7595,-2384,-187,1745149992098356503
1635232,-49,89,39,-7648,-2373,-204,1745149992098356503
1635424,-46,91,43,-7708,-2368,-103,1745149992098356503
1635616,-35,87,45,-7757,-2329,-36,1745149992098356503
1635808,-19,80,42,-7762,-2247,-60,1745149992098356503
1636000,1,71,33,-7749,-2195,-110,1745149992098356503
1636192,31,67,24,-7761,-2185,-183,1745149992130378919
1636384,62,67,18,-7751,-2235,-275,1745149992130378919
1636576,91,68,20,-7723,-2336,-311,1745149992130378919
1636768,116,65,26,-7718,-2458,-325,1745149992130378919
1636960,131,61,32,-7709,-2574,-370,1745149992130378919
1637152,133,58,35,-7735,-2658,-321,1745149992130378919
1637344,124,52,34,-7758,-2709,-262,1745149992130378919
1637536,109,41,33,-7741,-2727,-232,1745149992130378919
1637728,90,30,33,-7747,-2718,-247,1745149992130378919
1637920,66,22,36,-7758,-2727,-289,1745149992130378919
1638112,42,19,39,-7781,-2740,-309,1745149992130378919
1638304,17,16,41,-7796,-2749,-276,1745149992130378919
1638496,-3,10,43,-7785,-2719,-280,1745149992197879605
1638688,-19,6,45,-7746,-2673,-308,1745149992197879605
1638880,-34,0,46,-7725,-2614,-355,1745149992197879605
1639072,-43,-4,46,-7671,-2552,-390,1745149992197879605
1639264,-47,-8,47,-7649,-2512,-386,1745149992197879605
1639456,-46,-13,50,-7652,-2510,-389,1745149992197879605
1639648,-47,-16,51,-7670,-2540,-363,1745149992197879605
1639840,-50,-22,53,-7661,-2557,-333,1745149992197879605
1640032,-56,-27,56,-7684,-2585,-306,1745149992197879605
1640224,-67,-30,62,-7702,-2614,-226,1745149992197879605
1640416,-82,-33,67,-7711,-2607,-146,1745149992197879605
1640608,-98,-35,70,-7703,-2593,-91,1745149992197879605
1640800,-108,-35,73,-7709,-2537,-36,1745149992250394125
1640992,-109,-34,74,-7724,-2515,-2,1745149992250394125
1641184,-105,-31,75,-7747,-2485,-22,1745149992250394125
1641376,-97,-25,75,-7774,-2519,5,1745149992250394125
1641568,-88,-19,74,-7793,-2565,14,1745149992250394125
1641760,-80,-13,74,-7784,-2600,-16,1745149992250394125
1641952,-74,-8,74,-7760,-2589,-51,1745149992250394125
1642144,-65,-5,72,-7733,-2546,-92,1745149992250394125
1642336,-55,2,68,-7712,-2510,-90,1745149992250394125
1642528,-45,9,64,-7699,-2488,-75,1745149992250394125
1642720,-36,14,61,-7687,-2474,-66,1745149992250394125
1642912,-28,19,59,-7696,-2472,-56,1745149992250394125
1643104,-25,24,57,-7731,-2484,-25,1745149992311555545
1643296,-26,30,55,-7707,-2464,5,1745149992311555545
1643488,-31,38,53,-7712,-2436,38,1745149992311555545
1643680,-35,50,52,-7716,-2426,129,1745149992311555545
1643872,-38,65,53,-7712,-2439,240,1745149992311555545
1644064,-42,82,54,-7699,-2458,355,1745149992311555545
1644256,-48,98,54,-7672,-2487,483,1745149992311555545
1644448,-52,111,53,-7652,-2495,562,1745149992311555545
1644640,-55,125,54,-7658,-2488,585,1745149992311555545
1644832,-56,139,54,-7654,-2472,563,1745149992311555545
1645024,-55,152,52,-7628,-2469,524,1745149992311555545
1645216,-53,165,51,-7595,-2455,457,1745149992311555545
1645408,-54,176,49,-7561,-2473,390,1745149992369884544
1645600,-58,187,49,-7535,-2491,336,1745149992369884544
1645792,-64,201,53,-7502,-2546,306,1745149992369884544
1645984,-74,212,57,-7453,-2592,329,1745149992369884544
1646176,-88,223,63,-7420,-2617,359,1745149992369884544
1646368,-106,232,72,-7351,-2588,422,1745149992369884544
1646560,-123,241,81,-7302,-2491,531,1745149992369884544
1646752,-134,252,89,-7223,-2393,630,1745149992369884544
1646944,-140,266,95,-7181,-2325,732,1745149992369884544
1647136,-145,287,100,-7137,-2260,848,1745149992369884544
1647328,-154,312,102,-7102,-2252,1001,1745149992369884544
1647520,-172,343,105,-7097,-2239,1171,1745149992369884544
1647712,-203,379,109,-7091,-2214,1451,1745149992429816861
1647904,-249,422,116,-7065,-2123,1726,1745149992429816861
1648096,-307,473,123,-7020,-2043,2024,1745149992429816861
1648288,-373,531,125,-6879,-1930,2295,1745149992429816861
1648480,-439,593,124,-6728,-1815,2484,1745149992429816861
1648672,-502,659,125,-6564,-1728,2583,1745149992429816861
1648864,-559,732,128,-6446,-1687,2631,1745149992429816861
1649056,-611,806,137,-6230,-1681,2608,1745149992429816861
1649248,-654,877,145,-5965,-1702,2537,1745149992429816861
1649440,-683,955,159,-5788,-1693,2447,1745149992429816861
1649632,-691,1040,176,-5576,-1713,2436,1745149992429816861
1649824,-678,1125,195,-5374,-1769,2395,1745149992429816861
1650016,-654,1205,215,-5243,-1890,2372,1745149992494615852
1650208,-629,1286,232,-5186,-1974,2344,1745149992494615852
1650400,-615,1366,247,-5154,-2053,2370,1745149992494615852
1650592,-613,1444,261,-5111,-2138,2398,1745149992494615852
1650784,-623,1523,275,-5067,-2140,2388,1745149992494615852
1650976,-646,1602,288,-5058,-2124,2368,1745149992494615852
1651168,-679,1681,299,-5121,-2015,2315,1745149992494615852
1651360,-716,1764,309,-5253,-1873,2218,1745149992494615852
1651552,-748,1856,321,-5336,-1754,2121,1745149992494615852
1651744,-773,1946,333,-5363,-1699,2089,1745149992494615852
1651936,-790,2034,347,-5350,-1697,1988,1745149992494615852
1652128,-801,2115,358,-5348,-1700,1871,1745149992494615852
1652320,-808,2191,365,-5348,-1689,1710,1745149992550908671
1652512,-815,2262,373,-5279,-1637,1368,1745149992550908671
1652704,-822,2333,384,-5184,-1594,953,1745149992550908671
1652896,-824,2413,398,-5138,-1594,735,1745149992550908671
1653088,-808,2493,418,-5049,-1654,550,1745149992550908671
1653280,-776,2564,440,-4926,-1697,360,1745149992550908671
1653472,-746,2623,461,-4723,-1675,147,1745149992550908671
1653664,-728,2672,477,-4545,-1642,-102,1745149992550908671
1653856,-724,2714,495,-4389,-1585,-380,1745149992550908671
1654048,-727,2755,506,-4302,-1555,-662,1745149992550908671
1654240,-732,2791,514,-4306,-1558,-915,1745149992550908671
1654432,-741,2827,525,-4391,-1551,-1105,1745149992550908671
1654624,-750,2859,541,-4508,-1531,-1262,1745149992601243732
1654816,-764,2886,551,-4584,-1470,-1355,1745149992601243732
1655008,-788,2911,553,-4622,-1318,-1478,1745149992601243732
1655200,-813,2928,559,-4554,-1117,-1730,1745149992601243732
1655392,-826,2941,566,-4406,-892,-2131,1745149992601243732
1655584,-821,2955,574,-4298,-688,-2547,1745149992601243732
1655776,-801,2977,585,-4257,-553,-2866,1745149992601243732
1655968,-771,3001,596,-4200,-546,-3082,1745149992601243732
1656160,-738,3023,606,-4124,-592,-3286,1745149992601243732
1656352,-712,3038,618,-4025,-672,-3520,1745149992601243732
1656544,-699,3044,631,-3974,-742,-3867,1745149992601243732
1656736,-695,3040,645,-3887,-806,-4219,1745149992601243732
1656928,-702,3030,663,-3745,-811,-4536,1745149992661741826
1657120,-726,3015,682,-3649,-772,-4657,1745149992661741826
1657312,-759,3000,701,-3627,-682,-4662,1745149992661741826
1657504,-792,2982,714,-3576,-598,-4821,1745149992661741826
1657696,-819,2961,722,-3503,-445,-5095,1745149992661741826
1657888,-836,2937,720,-3449,-266,-5407,1745149992661741826
1658080,-841,2913,716,-3377,-12,-5707,1745149992661741826
1658272,-831,2884,711,-3289,221,-5988,1745149992661741826
1658464,-812,2859,710,-3236,341,-6246,1745149992661741826
1658656,-788,2845,712,-3210,326,-6460,1745149992661741826
1658848,-752,2830,711,-3217,221,-6758,1745149992661741826
1659040,-708,2804,702,-3196,226,-7121,1745149992661741826
1659232,-664,2748,691,-3196,228,-7214,1745149992720041397
1659424,-624,2690,689,-3286,369,-7931,1745149992720041397
1659616,-607,2702,695,-3235,235,-7977,1745149992720041397
1659808,-578,2680,666,-3249,210,-8095,1745149992720041397
1660000,-550,2646,643,-3377,203,-8308,1745149992720041397
1660192,-547,2632,656,-3530,31,-8137,1745149992720041397
1660384,-547,2611,677,-3597,-227,-7918,1745149992720041397
1660576,-534,2584,693,-3595,-399,-7871,1745149992720041397
1660768,-527,2554,714,-3496,-508,-7912,1745149992720041397
1660960,-530,2520,746,-3330,-540,-8047,1745149992720041397
1661152,-548,2482,755,-3065,-500,-8171,1745149992720041397
1661344,-572,2438,746,-2939,-395,-8317,1745149992720041397
1661536,-601,2404,739,-2927,-312,-8431,1745149992778690862
1661728,-621,2368,720,-2937,-193,-8696,1745149992778690862
1661920,-634,2331,696,-2873,69,-8998,1745149992778690862
1662112,-637,2288,686,-2758,391,-9298,1745149992778690862
1662304,-635,2243,687,-2647,676,-9508,1745149992778690862
1662496,-627,2205,684,-2599,877,-9611,1745149992778690862
1662688,-603,2174,680,-2553,930,-9750,1745149992778690862
1662880,-563,2141,677,-2483,848,-9958,1745149992778690862
1663072,-520,2103,677,-2419,710,-10215,1745149992778690862
1663264,-488,2062,682,-2390,582,-10369,1745149992778690862
1663456,-474,2018,691,-2366,470,-10399,1745149992778690862
1663648,-475,1977,699,-2368,389,-10366,1745149992778690862
1663840,-483,1944,709,-2453,348,-10225,1745149992841889399
1664032,-488,1920,726,-2572,260,-9906,1745149992841889399
1664224,-483,1901,743,-2610,238,-9560,1745149992841889399
1664416,-466,1882,759,-2559,284,-9254,1745149992841889399
1664608,-447,1862,769,-2414,341,-9040,1745149992841889399
1664800,-430,1843,773,-2284,392,-8992,1745149992841889399
1664992,-410,1821,770,-2106,462,-9209,1745149992841889399
1665184,-386,1794,760,-1937,606,-9579,1745149992841889399
1665376,-364,1766,744,-1815,796,-9892,1745149992841889399
1665568,-350,1742,726,-1704,938,-10089,1745149992841889399
1665760,-333,1716,706,-1563,1040,-10371,1745149992841889399
1665952,-304,1689,686,-1384,1123,-10657,1745149992841889399
1666144,-273,1658,669,-1248,1232,-10896,1745149992907686662
1666336,-248,1623,656,-1113,1255,-10960,1745149992907686662
1666528,-226,1582,643,-928,1215,-10940,1745149992907686662
1666720,-213,1537,621,-807,1167,-10855,1745149992907686662
1666912,-209,1491,600,-762,1142,-10733,1745149992907686662
1667104,-205,1444,588,-744,1138,-10647,1745149992907686662
1667296,-201,1402,577,-838,1113,-10458,1745149992907686662
1667488,-203,1367,569,-947,1090,-10218,1745149992907686662
1667680,-209,1341,562,-1032,1087,-9969,1745149992907686662
1667872,-207,1320,557,-1053,1134,-9843,1745149992907686662
1668064,-197,1306,552,-1050,1175,-9671,1745149992907686662
1668256,-186,1298,547,-1049,1223,-9470,1745149992907686662
1668448,-175,1293,541,-940,1231,-9321,1745149992951808551
1668640,-162,1285,532,-757,1239,-9271,1745149992951808551
1668832,-147,1273,521,-589,1222,-9317,1745149992951808551
1669024,-132,1254,512,-423,1223,-9549,1745149992951808551
1669216,-121,1238,495,-286,1215,-9713,1745149992951808551
1669408,-110,1222,473,-196,1196,-9871,1745149992951808551
1669600,-102,1208,447,-125,1119,-9942,1745149992951808551
1669792,-96,1188,425,-63,1007,-9986,1745149992951808551
1669984,-93,1165,412,-72,894,-9943,1745149992951808551
1670176,-92,1141,410,-68,805,-9856,1745149992951808551
1670368,-90,1115,412,-52,762,-9660,1745149992951808551
1670560,-88,1090,412,-29,790,-9551,1745149992951808551
1670752,-88,1063,407,9,900,-9577,1745149993013416426
1670944,-89,1035,396,90,1122,-9554,1745149993013416426
1671136,-84,1007,381,138,1400,-9496,1745149993013416426
1671328,-71,982,363,150,1643,-9404,1745149993013416426
1671520,-46,969,349,108,1764,-9278,1745149993013416426
1671712,0,966,340,93,1802,-9210,1745149993013416426
1671904,66,964,335,117,1790,-9245,1745149993013416426
1672096,139,964,334,147,1682,-9321,1745149993013416426
1672288,207,969,331,234,1482,-9320,1745149993013416426
1672480,261,971,323,343,1243,-9325,1745149993013416426
1672672,293,966,310,508,1044,-9289,1745149993013416426
1672864,300,953,298,685,857,-9226,1745149993013416426
1673056,287,932,287,844,731,-9153,1745149993070242886
1673248,267,905,277,947,695,-9114,1745149993070242886
1673440,245,876,263,1034,749,-9101,1745149993070242886
1673632,220,845,244,1036,897,-9057,1745149993070242886
1673824,193,817,226,1021,1065,-8989,1745149993070242886
1674016,177,794,209,973,1235,-8931,1745149993070242886
1674208,175,775,193,913,1370,-8871,1745149993070242886
1674400,189,761,183,886,1429,-8852,1745149993070242886
1674592,214,751,175,897,1453,-8884,1745149993070242886
1674784,246,743,167,893,1421,-8923,1745149993070242886
1674976,275,735,158,909,1344,-8960,1745149993070242886
1675168,302,727,150,925,1238,-8982,1745149993070242886
1675360,325,723,145,924,1030,-9021,1745149993130860717
1675552,347,716,142,956,891,-9151,1745149993130860717
1675744,366,706,142,1033,800,-9249,1745149993130860717
1675936,375,690,144,1176,743,-9287,1745149993130860717
1676128,371,672,142,1293,710,-9220,1745149993130860717
1676320,357,654,132,1371,664,-9119,1745149993130860717
1676512,336,634,119,1422,630,-9006,1745149993130860717
1676704,310,613,110,1391,602,-8928,1745149993130860717
1676896,275,593,100,1380,569,-8874,1745149993130860717
1677088,235,572,93,1397,570,-8818,1745149993130860717
1677280,196,546,87,1424,609,-8771,1745149993130860717
1677472,161,523,77,1444,664,-8713,1745149993130860717
1677664,131,504,63,1450,710,-8692,1745149993187399680
1677856,104,487,47,1441,760,-8685,1745149993187399680
1678048,82,473,34,1424,856,-8682,1745149993187399680
1678240,59,462,25,1387,931,-8637,1745149993187399680
1678432,36,453,18,1368,1025,-8611,1745149993187399680
1678624,15,447,10,1352,1049,-8548,1745149993187399680
1678816,-3,445,1,1341,1007,-8501,1745149993187399680
1679008,-16,450,-6,1296,934,-8426,1745149993187399680
1679200,-22,458,-6,1261,834,-8320,1745149993187399680
1679392,-20,469,4,1201,706,-8256,1745149993187399680
1679584,-11,483,22,1200,583,-8175,1745149993187399680
1679776,2,497,45,1197,493,-8115,1745149993187399680
1679968,13,513,68,1207,384,-8010,1745149993245059257
1680160,25,532,93,1273,304,-7869,1745149993245059257
1680352,43,545,114,1418,264,-7943,1745149993245059257
1680544,76,540,121,1643,300,-8268,1745149993245059257
1680736,125,515,114,1867,446,-8436,1745149993245059257
1680928,188,485,97,2018,598,-8640,1745149993245059257
1681120,243,472,82,2019,580,-8921,1745149993245059257
1681312,275,481,76,2018,232,-9147,1745149993245059257
1681504,275,494,84,2020,-371,-9236,1745149993245059257
1681696,240,487,112,2109,-1024,-9167,1745149993245059257
1681888,171,452,161,2295,-1471,-9026,1745149993245059257
1682080,77,399,218,2509,-1586,-8848,1745149993245059257
1682272,-39,341,258,2697,-1301,-8648,1745149993318486139
1682464,-165,284,255,2802,-728,-8467,1745149993318486139
1682656,-290,234,219,2831,-38,-8312,1745149993318486139
1682848,-389,192,163,2869,583,-8195,1745149993318486139
1683040,-431,163,99,2785,1047,-8378,1745149993318486139
1683232,-443,170,52,2596,1393,-8391,1745149993318486139
1683424,-454,208,22,2392,1444,-7856,1745149993318486139
1683616,-434,263,17,2291,1212,-7509,1745149993318486139
1683808,-367,312,40,2149,848,-7187,1745149993318486139
1684000,-269,341,86,1957,470,-7210,1745149993318486139
1684192,-183,365,136,1832,207,-7475,1745149993318486139
1684384,-144,383,170,1877,65,-7750,1745149993318486139
1684576,-153,390,167,2033,54,-7933,1745149993362390842
1684768,-193,379,133,2285,182,-8057,1745149993362390842
1684960,-228,355,87,2484,363,-8069,1745149993362390842
1685152,-235,329,49,2629,512,-8204,1745149993362390842
1685344,-209,308,18,2697,536,-8259,1745149993362390842
1685536,-148,297,0,2691,411,-8287,1745149993362390842
1685728,-72,294,-1,2645,218,-8327,1745149993362390842
1685920,0,297,16,2530,-66,-8395,1745149993362390842
1686112,59,301,46,2408,-403,-8488,1745149993362390842
1686304,98,302,86,2357,-659,-8569,1745149993362390842
1686496,115,298,133,2316,-831,-8599,1745149993362390842
1686688,107,282,182,2343,-778,-8668,1745149993362390842
1686880,70,254,214,2413,-601,-8715,1745149993421094160
1687072,9,216,226,2510,-304,-8709,1745149993421094160
1687264,-65,171,219,2596,62,-8673,1745149993421094160
1687456,-131,126,194,2684,413,-8645,1745149993421094160
1687648,-179,91,158,2695,759,-8661,1745149993421094160
1687840,-202,67,118,2631,1077,-8646,1745149993421094160
1688032,-203,53,78,2556,1357,-8606,1745149993421094160
1688224,-179,47,38,2449,1629,-8586,1745149993421094160
1688416,-140,46,3,2350,1799,-8595,1745149993421094160
1688608,-91,48,-25,2277,1877,-8575,1745149993421094160
1688800,-36,60,-42,2227,1890,-8527,1745149993421094160
1688992,18,77,-51,2246,1804,-8493,1745149993421094160
1689184,63,97,-51,2276,1632,-8441,1745149993481847199
1689376,106,113,-50,2374,1363,-8371,1745149993481847199
1689568,151,126,-53,2506,1050,-8274,1745149993481847199
1689760,191,133,-57,2601,756,-8303,1745149993481847199
1689952,211,136,-56,2669,468,-8260,1745149993481847199
1690144,207,132,-46,2761,235,-8161,1745149993481847199
1690336,188,118,-35,2806,104,-8039,1745149993481847199
1690528,163,94,-34,2769,41,-8011,1745149993481847199
1690720,132,72,-37,2693,37,-7888,1745149993481847199
1690912,97,55,-36,2598,94,-7748,1745149993481847199
1691104,68,42,-33,2481,154,-7654,1745149993481847199
1691296,53,33,-34,2403,260,-7615,1745149993481847199
1691488,48,26,-43,2312,387,-7533,1745149993536600969
1691680,47,25,-55,2170,482,-7535,1745149993536600969
1691872,50,26,-63,2046,563,-7542,1745149993536600969
1692064,56,31,-63,1992,600,-7596,1745149993536600969
1692256,69,39,-60,1943,632,-7640,1745149993536600969
1692448,82,46,-56,1983,661,-7662,1745149993536600969
1692640,95,50,-55,2023,658,-7691,1745149993536600969
1692832,104,52,-57,2074,642,-7730,1745149993536600969
1693024,104,52,-63,2144,626,-7744,1745149993536600969
1693216,99,50,-70,2197,604,-7716,1745149993536600969
1693408,92,46,-73,2213,538,-7660,1745149993536600969
1693600,83,41,-70,2222,504,-7636,1745149993536600969
1693792,74,35,-61,2230,475,-7600,1745149993597104844
1693984,64,31,-50,2224,446,-7540,1745149993597104844
1694176,53,27,-41,2218,441,-7521,1745149993597104844
1694368,41,23,-33,2214,457,-7511,1745149993597104844
1694560,26,22,-28,2223,479,-7469,1745149993597104844
1694752,12,19,-25,2245,536,-7483,1745149993597104844
1694944,5,13,-25,2253,576,-7459,1745149993597104844
1695136,1,10,-25,2259,616,-7421,1745149993597104844
1695328,0,9,-25,2230,616,-7428,1745149993597104844
1695520,0,12,-23,2204,601,-7470,1745149993597104844
1695712,3,16,-17,2182,582,-7517,1745149993597104844
1695904,5,21,-11,2157,567,-7569,1745149993597104844
1696096,7,22,-8,2161,561,-7634,1745149993655275041
1696288,10,24,-5,2170,501,-7695,1745149993655275041
1696480,15,27,-3,2201,471,-7778,1745149993655275041
1696672,20,29,-2,2245,431,-7831,1745149993655275041
1696864,18,30,2,2292,390,-7862,1745149993655275041
1697056,8,24,7,2335,371,-7888,1745149993655275041
1697248,-6,15,14,2345,343,-7875,1745149993655275041
1697440,-21,7,20,2351,330,-7912,1745149993655275041
1697632,-35,0,24,2340,362,-7919,1745149993655275041
1697824,-53,-8,26,2336,392,-7882,1745149993655275041
1698016,-69,-17,24,2326,429,-7876,1745149993655275041
1698208,-81,-24,21,2287,473,-7840,1745149993655275041
1698400,-87,-26,20,2225,509,-7856,1745149993725856480
1698592,-88,-25,19,2193,556,-7844,1745149993725856480
1698784,-85,-22,18,2176,560,-7829,1745149993725856480
1698976,-80,-18,18,2173,587,-7831,1745149993725856480
1699168,-74,-12,18,2171,592,-7839,1745149993725856480
1699360,-71,-8,15,2217,582,-7842,1745149993725856480
1699552,-65,-5,14,2244,590,-7905,1745149993725856480
1699744,-56,-4,9,2287,590,-7912,1745149993725856480
1699936,-47,-3,6,2299,589,-7923,1745149993725856480
1700128,-41,-5,4,2293,568,-7940,1745149993725856480
1700320,-36,-3,6,2273,548,-7922,1745149993725856480
1700512,-33,-4,7,2256,497,-7915,1745149993725856480
1700704,-40,-14,7,2360,147,-7829,1745149993770363313
1700896,-86,-37,-1,2276,-131,-7982,1745149993770363313
1701088,-112,-42,-5,2105,290,-7845,1745149993770363313
1701280,-132,-35,3,2026,39,-7951,1745149993770363313
1701472,-172,-32,2,2060,-14,-7781,1745149993770363313
1701664,-195,-41,-7,2058,174,-7830,1745149993770363313
1701856,-199,-39,-17,1968,385,-7819,1745149993770363313
1702048,-190,-29,-25,1959,615,-7839,1745149993770363313
1702240,-170,-13,-30,2016,813,-7822,1745149993770363313
1702432,-145,2,-35,2084,880,-7820,1745149993770363313
1702624,-122,12,-44,2155,878,-7832,1745149993770363313
1702816,-103,15,-55,2208,802,-7813,1745149993770363313
1703008,-95,15,-63,2253,690,-7845,1745149993830973280
1703200,-91,12,-63,2273,642,-7849,1745149993830973280
1703392,-81,7,-54,2317,723,-7840,1745149993830973280
1703584,-63,1,-38,2329,903,-7755,1745149993830973280
1703776,-30,-3,-18,2347,1141,-7683,1745149993830973280
1703968,19,-2,-3,2356,1243,-7653,1745149993830973280
1704160,77,5,13,2343,1262,-7630,1745149993830973280
1704352,132,10,27,2296,1162,-7661,1745149993830973280
1704544,176,6,42,2243,984,-7651,1745149993830973280
1704736,200,-17,65,2361,740,-7697,1745149993830973280
1704928,205,-46,88,2441,526,-7841,1745149993830973280
1705120,199,-52,93,2465,379,-7980,1745149993830973280
1705312,184,-44,86,2244,414,-7920,1745149993890887056
1705504,190,-43,92,2122,534,-7863,1745149993890887056
1705696,213,-37,90,2032,553,-7970,1745149993890887056
1705888,204,-12,59,1837,619,-7937,1745149993890887056
1706080,192,1,39,1734,649,-7746,1745149993890887056
1706272,206,-6,45,1729,653,-7570,1745149993890887056
1706464,194,-5,41,2170,247,-8173,1745149993890887056
1706656,148,44,-20,2152,176,-7770,1745149993890887056
1706848,149,48,-25,2196,-58,-7742,1745149993890887056
1707040,131,48,-33,2192,-174,-7739,1745149993890887056
1707232,117,41,-47,2198,-94,-7697,1745149993890887056
1707424,109,24,-52,2278,118,-7648,1745149993890887056
1707808,123,11,-41,2120,572,-7591,1745150007193983397
2229088,122,-34,-1,2007,992,-7163,1745150007193983397
2229280,-43,-70,-21,1999,1393,-8231,1745150007193983397
2229472,-46,-74,-20,2178,1469,-7547,1745150007193983397
2229664,-54,-87,-6,2077,1427,-7644,1745150007193983397
2229856,-44,-86,-3,2073,1354,-7649,1745150007193983397
2230048,-47,-100,-8,2066,1324,-7605,1745150007193983397
2230240,-44,-103,-14,2072,1329,-7582,1745150007193983397
2230432,-34,-103,-14,2033,1374,-7606,1745150007193983397
2230624,-38,-106,-7,1985,1454,-7620,1745150007193983397
2230816,-21,-93,1,1983,1591,-7663,1745150007193983397
2231008,5,-83,10,1930,1641,-7674,1745150007193983397
2231200,26,-70,14,1898,1570,-7781,1745150007253018534
2231392,37,-51,11,1851,1411,-7853,1745150007253018534
2231584,34,-38,6,1817,1327,-7950,1745150007253018534
2231776,22,-27,5,1826,1275,-8036,1745150007253018534
2231968,8,-20,7,1845,1258,-8122,1745150007253018534
2232160,-12,-19,8,1855,1268,-8189,1745150007253018534
2232352,-29,-15,6,1862,1321,-8162,1745150007253018534
2232544,-47,-10,2,1846,1313,-8132,1745150007253018534
2232736,-63,-7,-4,1867,1294,-8089,1745150007253018534
2232928,-72,0,-10,1872,1327,-8057,1745150007253018534
2233120,-75,7,-11,1908,1402,-8059,1745150007253018534
2233312,-69,17,-8,1938,1480,-8074,1745150007253018534
2233504,-58,29,-2,1975,1508,-8086,1745150007308758963
2233696,-50,35,2,2069,1495,-8133,1745150007308758963
2233888,-45,39,4,2112,1476,-8201,1745150007308758963
2234080,-42,43,5,2148,1457,-8210,1745150007308758963
2234272,-42,47,5,2144,1418,-8183,1745150007308758963
2234464,-46,48,5,2126,1315,-8166,1745150007308758963
2234656,-59,42,6,2108,1247,-8125,1745150007308758963
2234848,-74,37,10,2073,1225,-8135,1745150007308758963
2235040,-90,37,17,2025,1253,-8099,1745150007308758963
2235232,-100,40,25,1982,1360,-8044,1745150007308758963
2235424,-97,44,31,1967,1490,-7980,1745150007308758963
2235616,-82,62,22,1422,1821,-7792,1745150007308758963
2235808,-11,115,17,2372,2282,-7976,1745150007368949507
2236000,31,118,38,1840,1687,-7676,1745150007368949507
2236192,25,142,26,1706,1289,-8111,1745150007368949507
2236384,48,165,-16,2100,946,-8101,1745150007368949507
2236576,92,262,-167,2199,1094,-8381,1745150007368949507
2236768,25,390,-242,1411,1918,-6864,1745150007368949507
2236960,29,238,-45,2027,854,-7196,1745150007368949507
2237152,150,28,13,4032,2190,-6405,1745150007368949507
2237344,243,-107,76,3407,1847,-7702,1745150007368949507
2237536,229,-46,91,2293,1094,-7452,1745150007368949507
2237728,170,-8,59,1717,745,-7321,1745150007368949507
2237920,127,37,22,1556,599,-7481,1745150007368949507
2238112,90,21,-14,1498,605,-7548,1745150007428558441
2238304,36,11,-21,1533,788,-7619,1745150007428558441
2238496,-12,1,-5,1725,1057,-7634,1745150007428558441
2238688,-33,0,16,2012,1297,-7597,1745150007428558441
2238880,-29,-4,32,2259,1481,-7616,1745150007428558441
2239072,-11,-6,34,2376,1571,-7670,1745150007428558441
2239264,7,-4,21,2358,1588,-7714,1745150007428558441
2239456,15,0,5,2264,1506,-7750,1745150007428558441
2239648,15,2,-3,2140,1386,-7796,1745150007428558441
2239840,9,0,-2,2060,1294,-7803,1745150007428558441
2240032,-2,-4,3,2008,1222,-7798,1745150007428558441
2240224,-18,-10,12,2012,1192,-7809,1745150007428558441
2240416,-37,-16,22,2042,1213,-7807,1745150007485091779
2240608,-52,-21,30,2103,1250,-7813,1745150007485091779
2240800,-65,-25,34,2141,1301,-7800,1745150007485091779
2240992,-71,-30,36,2160,1357,-7833,1745150007485091779
2241184,-72,-37,32,2172,1428,-7914,1745150007485091779
2241376,-75,-42,26,2114,1510,-7905,1745150007485091779
2241568,-78,-45,21,2048,1535,-7833,1745150007485091779
2241760,-73,-43,21,1976,1524,-7860,1745150007485091779
2241952,-55,-36,26,1927,1476,-7859,1745150007485091779
2242144,-31,-27,34,1895,1406,-7902,1745150007485091779
2242336,-7,-20,41,1880,1306,-7947,1745150007485091779
2242528,6,-10,48,1901,1192,-7946,1745150007485091779
2242720,20,-11,52,2006,1100,-7959,1745150007563141431
2242912,43,-15,55,2104,1008,-8049,1745150007563141431
2243104,67,-17,62,2223,951,-8463,1745150007563141431
2243296,82,-17,68,2308,887,-8522,1745150007563141431
2243488,100,-14,70,2385,852,-8414,1745150007563141431
2243680,122,-27,73,2473,911,-8402,1745150007563141431
2243872,144,-53,79,2588,995,-8510,1745150007563141431
2244064,156,-75,81,2639,1140,-8577,1745150007563141431
2244256,155,-92,76,2642,1208,-8704,1745150007563141431
2244448,142,-105,67,2625,1247,-8853,1745150007563141431
2244640,123,-121,58,2587,1257,-8845,1745150007563141431
2244832,102,-138,50,2591,1211,-8743,1745150007563141431
2245024,97,-156,45,2596,1203,-8699,1745150007607015144
2245216,122,-165,42,2576,1204,-8635,1745150007607015144
2245408,160,-168,45,2534,1244,-8363,1745150007607015144
2245600,214,-172,47,2572,1357,-8081,1745150007607015144
2245792,278,-175,47,2707,1484,-7837,1745150007607015144
2245984,346,-189,40,2917,1676,-7836,1745150007607015144
2246176,403,-206,17,3035,1851,-7781,1745150007607015144
2246368,414,-221,-20,3066,1912,-7691,1745150007607015144
2246560,417,-237,-60,2998,1752,-7580,1745150007607015144
2246752,445,-241,-82,2919,1483,-7744,1745150007607015144
2246944,497,-247,-82,2857,1218,-8113,1745150007607015144
2247136,530,-259,-67,2864,1059,-8432,1745150007607015144
2247328,503,-267,-54,2907,903,-8487,1745150007663526191
2247520,432,-296,-59,3009,837,-8711,1745150007663526191
2247712,347,-344,-85,3128,895,-8911,1745150007663526191
2247904,268,-407,-116,3176,928,-9055,1745150007663526191
2248096,211,-465,-137,3162,961,-9197,1745150007663526191
2248288,184,-508,-149,3075,929,-9243,1745150007663526191
2248480,172,-529,-145,2871,794,-9169,1745150007663526191
2248672,161,-556,-125,2734,608,-9218,1745150007663526191
2248864,145,-592,-100,2698,569,-9220,1745150007663526191
2249056,112,-643,-89,2697,618,-9334,1745150007663526191
2249248,58,-691,-96,2599,706,-9171,1745150007663526191
2249440,-17,-722,-109,2350,691,-8854,1745150007663526191
2249632,-88,-736,-111,2010,628,-8558,1745150007718071474
2249824,-135,-732,-94,1700,605,-8321,1745150007718071474
2250016,-168,-726,-62,1506,613,-8113,1745150007718071474
2250208,-195,-723,-22,1428,688,-7997,1745150007718071474
2250400,-211,-725,10,1404,749,-7953,1745150007718071474
2250592,-213,-734,26,1361,789,-8185,1745150007718071474
2250784,-202,-735,35,1197,667,-8303,1745150007718071474
2250976,-182,-734,46,1003,537,-8479,1745150007718071474
2251168,-172,-738,51,904,537,-8712,1745150007718071474
2251360,-181,-754,48,913,705,-8978,1745150007718071474
2251552,-210,-781,38,1015,984,-9098,1745150007718071474
2251744,-240,-818,23,1303,1439,-9228,1745150007718071474
2251936,-233,-870,22,1624,1951,-9438,1745150007776993539
2252128,-189,-919,7,1751,2597,-9467,1745150007776993539
2252320,-153,-927,-52,2275,3343,-9532,1745150007776993539
2252512,-70,-924,-71,2284,3126,-9360,1745150007776993539
2252704,44,-965,-76,1668,2566,-9415,1745150007776993539
2252896,152,-1002,-119,749,1870,-9766,1745150007776993539
2253088,201,-1001,-144,279,1290,-10179,1745150007776993539
2253280,185,-1016,-123,306,967,-10456,1745150007776993539
2253472,119,-1059,-93,504,847,-10578,1745150007776993539
2253664,32,-1116,-83,642,724,-10623,1745150007776993539
2253856,-47,-1166,-87,612,599,-10675,1745150007776993539
2254048,-114,-1206,-92,465,567,-10803,1745150007776993539
2254240,-181,-1244,-92,309,670,-10990,1745150007836531954
2254432,-259,-1284,-101,202,959,-11076,1745150007836531954
2254624,-334,-1332,-123,148,1363,-11014,1745150007836531954
2254816,-389,-1387,-148,104,1838,-10917,1745150007836531954
2255008,-416,-1437,-171,-1,2249,-10771,1745150007836531954
2255200,-413,-1476,-190,-139,2532,-10640,1745150007836531954
2255392,-385,-1507,-212,-289,2719,-10566,1745150007836531954
2255584,-342,-1532,-236,-476,2741,-10516,1745150007836531954
2255776,-288,-1556,-257,-624,2642,-10512,1745150007836531954
2255968,-233,-1581,-272,-726,2455,-10532,1745150007836531954
2256160,-183,-1613,-284,-745,2258,-10621,1745150007836531954
2256352,-146,-1652,-296,-729,2173,-10738,1745150007836531954
2256544,-129,-1695,-311,-736,2145,-10801,1745150007920476552
2256736,-137,-1736,-326,-762,2131,-10776,1745150007920476552
2256928,-162,-1775,-337,-815,2129,-10688,1745150007920476552
2257120,-195,-1815,-349,-887,2087,-10536,1745150007920476552
2257312,-229,-1857,-362,-1000,2092,-10462,1745150007920476552
2257504,-259,-1899,-372,-1108,2111,-10473,1745150007920476552
2257696,-282,-1943,-380,-1213,2167,-10444,1745150007920476552
2257888,-294,-1981,-387,-1349,2220,-10438,1745150007920476552
2258080,-295,-2011,-399,-1471,2251,-10321,1745150007920476552
2258272,-287,-2037,-413,-1534,2229,-10253,1745150007920476552
2258464,-264,-2060,-430,-1558,2174,-10281,1745150007920476552
2258656,-234,-2086,-452,-1556,2118,-10294,1745150007920476552
2258848,-199,-2114,-476,-1587,2054,-10301,1745150007964093757
2259040,-167,-2140,-496,-1700,1948,-10243,1745150007964093757
2259232,-146,-2161,-512,-1790,1871,-10095,1745150007964093757
2259424,-131,-2183,-520,-1874,1819,-9948,1745150007964093757
2259616,-125,-2210,-530,-1895,1844,-9819,1745150007964093757
2259808,-126,-2241,-545,-1861,1894,-9777,1745150007964093757
2260000,-132,-2274,-570,-1864,2005,-9773,1745150007964093757
2260192,-141,-2308,-600,-1879,2084,-9719,1745150007964093757
2260384,-150,-2338,-631,-1915,2176,-9632,1745150007964093757
2260576,-151,-2366,-665,-1990,2262,-9540,1745150007964093757
2260768,-142,-2391,-698,-2108,2378,-9406,1745150007964093757
2260960,-122,-2414,-724,-2202,2441,-9185,1745150007964093757
2261152,-91,-2429,-744,-2334,2463,-8884,1745150008012928988
2261344,-48,-2432,-761,-2438,2368,-8537,1745150008012928988
2261536,2,-2428,-780,-2591,2231,-8239,1745150008012928988
2261728,51,-2423,-798,-2672,2039,-8083,1745150008012928988
2261920,94,-2425,-814,-2759,1949,-8019,1745150008012928988
2262112,134,-2431,-827,-2794,1962,-7943,1745150008012928988
2262304,167,-2439,-840,-2743,2006,-7846,1745150008012928988
2262496,191,-2444,-857,-2679,2031,-7728,1745150008012928988
2262688,203,-2443,-879,-2637,2007,-7571,1745150008012928988
2262880,211,-2442,-905,-2693,1973,-7596,1745150008012928988
2263072,224,-2450,-928,-2741,2016,-7791,1745150008012928988
2263264,230,-2462,-948,-2782,2130,-7855,1745150008012928988
2263456,226,-2471,-967,-2848,2203,-7626,1745150008068299472
2263648,218,-2472,-990,-2897,2158,-7300,1745150008068299472
2263840,221,-2467,-1013,-2923,2079,-7060,1745150008068299472
2264032,237,-2461,-1032,-3007,1981,-6824,1745150008068299472
2264224,255,-2454,-1046,-3150,1832,-6639,1745150008068299472
2264416,278,-2443,-1050,-3302,1689,-6558,1745150008068299472
2264608,301,-2432,-1051,-3423,1521,-6488,1745150008068299472
2264800,318,-2420,-1058,-3541,1429,-6348,1745150008068299472
2264992,324,-2406,-1071,-3598,1316,-6124,1745150008068299472
2265184,322,-2391,-1084,-3673,1185,-5885,1745150008068299472
2265376,323,-2371,-1096,-3735,1023,-5729,1745150008068299472
2265568,332,-2352,-1102,-3806,910,-5679,1745150008068299472
2265760,355,-2339,-1102,-3904,876,-5692,1745150008130172084
2265952,382,-2329,-1103,-3947,926,-5626,1745150008130172084
2266144,411,-2316,-1108,-4021,927,-5383,1745150008130172084
2266336,437,-2291,-1117,-4147,854,-5081,1745150008130172084
2266528,461,-2259,-1124,-4250,674,-4818,1745150008130172084
2266720,481,-2222,-1125,-4419,422,-4576,1745150008130172084
2266912,492,-2187,-1123,-4595,139,-4444,1745150008130172084
2267104,491,-2156,-1120,-4797,-154,-4430,1745150008130172084
2267296,481,-2129,-1117,-4983,-297,-4516,1745150008130172084
2267488,460,-2099,-1109,-5127,-301,-4572,1745150008130172084
2267680,427,-2051,-1092,-5232,-287,-4400,1745150008130172084
2267872,406,-2034,-1085,-5169,-240,-4278,1745150008130172084
2268064,392,-2021,-1082,-5137,-141,-4386,1745150008185009916
2268256,390,-1999,-1077,-5088,27,-4452,1745150008185009916
2268448,400,-1981,-1073,-5089,177,-4396,1745150008185009916
2268640,416,-1956,-1068,-5160,327,-4255,1745150008185009916
2268832,438,-1918,-1071,-5190,380,-4008,1745150008185009916
2269024,462,-1898,-1092,-5192,231,-3795,1745150008185009916
2269216,486,-1868,-1107,-5322,207,-3725,1745150008185009916
2269408,509,-1824,-1090,-5392,12,-3569,1745150008185009916
2269600,537,-1802,-1059,-5438,-133,-3441,1745150008185009916
2269792,557,-1774,-1035,-5527,-196,-3313,1745150008185009916
2269984,564,-1741,-1026,-5580,-324,-3146,1745150008185009916
2270176,561,-1709,-1032,-5581,-452,-3025,1745150008185009916
2270368,562,-1677,-1043,-5561,-536,-2955,1745150008245738997
2270560,569,-1645,-1038,-5535,-561,-2865,1745150008245738997
2270752,575,-1614,-1028,-5464,-612,-2796,1745150008245738997
2270944,577,-1584,-1014,-5353,-647,-2723,1745150008245738997
2271136,569,-1556,-999,-5252,-712,-2618,1745150008245738997
2271328,552,-1529,-988,-5186,-788,-2581,1745150008245738997
2271520,536,-1505,-972,-5188,-836,-2555,1745150008245738997
2271712,525,-1481,-961,-5256,-929,-2473,1745150008245738997
2271904,517,-1454,-953,-5304,-1052,-2351,1745150008245738997
2272096,510,-1428,-942,-5328,-1179,-2258,1745150008245738997
2272288,500,-1403,-932,-5380,-1277,-2236,1745150008245738997
2272480,485,-1383,-919,-5432,-1314,-2309,1745150008245738997
2272672,471,-1366,-904,-5461,-1245,-2413,1745150008304039298
2272864,464,-1349,-890,-5466,-1128,-2430,1745150008304039298
2273056,462,-1331,-884,-5434,-985,-2327,1745150008304039298
2273248,465,-1311,-883,-5388,-874,-2198,1745150008304039298
2273440,477,-1291,-886,-5330,-844,-2066,1745150008304039298
2273632,503,-1272,-887,-5291,-833,-2035,1745150008304039298
2273824,539,-1252,-882,-5339,-851,-1972,1745150008304039298
2274016,575,-1232,-871,-5395,-950,-1849,1745150008304039298
2274208,607,-1215,-860,-5431,-1106,-1793,1745150008304039298
2274400,632,-1200,-847,-5487,-1281,-1771,1745150008304039298
2274592,644,-1184,-838,-5552,-1472,-1732,1745150008304039298
2274784,645,-1168,-832,-5578,-1661,-1672,1745150008304039298
2274976,638,-1150,-822,-5613,-1882,-1576,1745150008369403388
2275168,627,-1131,-811,-5651,-2039,-1497,1745150008369403388
2275360,607,-1113,-797,-5683,-2145,-1481,1745150008369403388
2275552,581,-1096,-779,-5696,-2219,-1445,1745150008369403388
2275744,559,-1077,-761,-5696,-2281,-1445,1745150008369403388
2275936,549,-1054,-740,-5762,-2295,-1433,1745150008369403388
2276128,548,-1027,-712,-5810,-2181,-1317,1745150008369403388
2276320,549,-995,-676,-5825,-2117,-1161,1745150008369403388
2276512,552,-960,-650,-5705,-2070,-929,1745150008369403388
2276704,558,-943,-635,-5489,-2011,-810,1745150008369403388
2276896,575,-948,-620,-5235,-1896,-969,1745150008369403388
2277088,600,-957,-608,-5099,-1839,-1218,1745150008369403388
2277280,633,-956,-604,-5135,-1853,-1392,1745150008420594952
2277472,671,-951,-600,-5220,-1886,-1520,1745150008420594952
2277664,713,-943,-590,-5380,-2015,-1670,1745150008420594952
2277856,751,-930,-576,-5567,-2172,-1732,1745150008420594952
2278048,772,-921,-560,-5682,-2336,-1724,1745150008420594952
2278240,775,-916,-546,-5762,-2469,-1649,1745150008420594952
2278432,763,-914,-532,-5774,-2571,-1467,1745150008420594952
2278624,742,-919,-514,-5766,-2688,-1384,1745150008420594952
2278816,714,-919,-494,-5798,-2751,-1346,1745150008420594952
2279008,675,-914,-473,-5930,-2811,-1287,1745150008420594952
2279200,627,-902,-458,-6071,-2831,-1181,1745150008420594952
2279392,576,-878,-437,-6295,-2856,-914,1745150008420594952
2279584,527,-852,-409,-6381,-2940,-546,1745150008479661079
2279776,493,-839,-377,-6367,-3023,-432,1745150008479661079
2279968,471,-827,-352,-6267,-3146,-406,1745150008479661079
2280160,454,-821,-334,-6158,-3186,-423,1745150008479661079
2280352,439,-819,-316,-6092,-3214,-486,1745150008479661079
2280544,419,-820,-301,-6057,-3221,-505,1745150008479661079
2280736,398,-821,-292,-6172,-3191,-522,1745150008479661079
2280928,382,-816,-280,-6332,-3060,-519,1745150008479661079
2281120,378,-809,-263,-6486,-2926,-465,1745150008479661079
2281312,381,-798,-249,-6618,-2873,-377,1745150008479661079
2281504,390,-788,-237,-6752,-2853,-378,1745150008479661079
2281696,401,-774,-227,-6838,-2912,-337,1745150008479661079
2281888,411,-760,-217,-6951,-2989,-247,1745150008537869870
2282080,425,-740,-200,-7037,-3046,-167,1745150008537869870
2282272,434,-717,-180,-7054,-3193,-47,1745150008537869870
2282464,437,-695,-170,-7079,-3313,81,1745150008537869870
2282656,426,-677,-157,-7117,-3370,217,1745150008537869870
2282848,413,-656,-138,-7183,-3408,355,1745150008537869870
2283040,399,-628,-107,-7234,-3393,579,1745150008537869870
2283232,394,-602,-73,-7172,-3387,694,1745150008537869870
2283424,396,-579,-50,-7119,-3425,729,1745150008537869870
2283616,390,-557,-39,-7088,-3424,760,1745150008537869870
2283808,377,-538,-36,-7088,-3428,786,1745150008537869870
2284000,360,-520,-35,-7068,-3419,748,1745150008537869870
2284192,342,-505,-32,-7121,-3346,682,1745150008598751501
2284384,320,-483,-26,-7180,-3246,676,1745150008598751501
2284576,300,-457,-18,-7241,-3193,785,1745150008598751501
2284768,285,-430,-11,-7262,-3154,887,1745150008598751501
2284960,270,-402,-6,-7282,-3134,987,1745150008598751501
2285152,256,-373,-4,-7303,-3116,1085,1745150008598751501
2285344,244,-345,-6,-7354,-3108,1122,1745150008598751501
2285536,229,-314,-2,-7399,-3094,1130,1745150008598751501
2285728,210,-287,12,-7413,-3135,1141,1745150008598751501
2285920,191,-260,21,-7433,-3162,1155,1745150008598751501
2286112,174,-235,27,-7494,-3190,1150,1745150008598751501
2286304,158,-204,34,-7559,-3218,1132,1745150008598751501
2286496,139,-168,40,-7605,-3239,1160,1745150008652713509
2286688,129,-139,38,-7588,-3273,1101,1745150008652713509
2286880,127,-117,43,-7519,-3247,978,1745150008652713509
2287072,124,-100,40,-7483,-3196,865,1745150008652713509
2287264,129,-79,35,-7520,-3173,833,1745150008652713509
2287456,147,-55,36,-7535,-3188,867,1745150008652713509
2287648,174,-33,38,-7535,-3190,875,1745150008652713509
2287840,198,-12,40,-7533,-3211,844,1745150008652713509
2288032,216,7,39,-7527,-3212,830,1745150008652713509
2288224,226,27,36,-7539,-3214,837,1745150008652713509
2288416,228,42,33,-7571,-3200,839,1745150008652713509
2288608,222,58,36,-7619,-3180,875,1745150008652713509
2288800,209,74,43,-7675,-3183,856,1745150008713946699
2288992,189,92,52,-7716,-3170,857,1745150008713946699
2289184,161,107,55,-7707,-3137,812,1745150008713946699
2289376,132,118,56,-7666,-3083,730,1745150008713946699
2289568,104,128,57,-7651,-3036,662,1745150008713946699
2289760,86,141,60,-7674,-3015,601,1745150008713946699
2289952,78,156,61,-7691,-3016,549,1745150008713946699
2290144,80,169,62,-7630,-3033,514,1745150008713946699
2290336,89,178,62,-7568,-3061,437,1745150008713946699
2290528,96,184,62,-7499,-3111,317,1745150008713946699
2290720,103,187,65,-7451,-3167,201,1745150008713946699
2290912,111,185,68,-7425,-3232,65,1745150008713946699
2291104,116,183,75,-7430,-3288,-77,1745150008776271078
2291296,113,175,82,-7446,-3347,-171,1745150008776271078
2291488,102,163,90,-7429,-3395,-277,1745150008776271078
2291680,84,147,101,-7422,-3418,-348,1745150008776271078
2291872,61,132,113,-7433,-3401,-359,1745150008776271078
2292064,37,117,125,-7444,-3325,-319,1745150008776271078
2292256,12,102,138,-7472,-3213,-303,1745150008776271078
2292448,-11,92,150,-7513,-3088,-228,1745150008776271078
2292640,-30,87,160,-7595,-3002,-147,1745150008776271078
2292832,-44,87,166,-7649,-2964,-37,1745150008776271078
2293024,-54,89,169,-7679,-2884,-11,1745150008776271078
2293216,-62,94,171,-7718,-2822,63,1745150008776271078
2293408,-65,100,173,-7711,-2774,225,1745150008830172304
2293600,-54,101,175,-7650,-2710,252,1745150008830172304
2293792,-35,99,174,-7591,-2699,164,1745150008830172304
2293984,-12,95,170,-7573,-2713,7,1745150008830172304
2294176,10,90,162,-7593,-2762,-180,1745150008830172304
2294368,28,84,154,-7622,-2834,-374,1745150008830172304
2294560,40,77,148,-7615,-2882,-502,1745150008830172304
2294752,44,68,145,-7611,-2904,-588,1745150008830172304
2294944,39,57,144,-7609,-2888,-623,1745150008830172304
2295136,27,44,140,-7633,-2816,-611,1745150008830172304
2295328,15,30,132,-7653,-2688,-640,1745150008830172304
2295520,7,18,119,-7678,-2530,-674,1745150008830172304
2295712,5,8,106,-7711,-2396,-686,1745150008888457501
2295904,6,3,95,-7743,-2333,-654,1745150008888457501
2296096,9,0,89,-7790,-2349,-595,1745150008888457501
2296288,8,2,84,-7849,-2428,-521,1745150008888457501
2296480,0,6,82,-7882,-2535,-483,1745150008888457501
2296672,-14,12,82,-7895,-2628,-385,1745150008888457501
2296864,-30,16,84,-7869,-2673,-279,1745150008888457501
2297056,-45,19,85,-7810,-2710,-219,1745150008888457501
2297248,-59,22,84,-7753,-2708,-169,1745150008888457501
2297440,-68,23,82,-7698,-2689,-160,1745150008888457501
2297632,-73,23,76,-7668,-2649,-171,1745150008888457501
2297824,-74,22,68,-7664,-2656,-225,1745150008888457501
2298016,-74,20,60,-7665,-2648,-281,1745150008945076827
2298208,-76,19,50,-7706,-2669,-314,1745150008945076827
2298400,-79,16,43,-7725,-2694,-347,1745150008945076827
2298592,-82,11,40,-7746,-2676,-352,1745150008945076827
2298784,-82,10,39,-7748,-2649,-313,1745150008945076827
2298976,-79,13,36,-7756,-2648,-276,1745150008945076827
2299168,-71,17,33,-7759,-2645,-232,1745150008945076827
2299360,-60,21,32,-7751,-2681,-221,1745150008945076827
2299552,-51,27,33,-7734,-2712,-213,1745150008945076827
2299744,-44,32,33,-7725,-2718,-233,1745150008945076827
2299936,-40,34,32,-7687,-2688,-251,1745150008945076827
2300128,-38,37,28,-7652,-2681,-233,1745150008945076827
2300320,-35,42,25,-7662,-2682,-169,1745150009005417005
2300512,-34,47,24,-7642,-2694,-110,1745150009005417005
2300704,-34,49,22,-7650,-2717,-72,1745150009005417005
2300896,-38,55,22,-7681,-2738,-17,1745150009005417005
2301088,-45,62,22,-7692,-2761,29,1745150009005417005
2301280,-56,69,22,-7673,-2758,49,1745150009005417005
2301472,-73,74,21,-7632,-2774,13,1745150009005417005
2301664,-92,79,22,-7601,-2753,-33,1745150009005417005
2301856,-109,84,23,-7582,-2744,-73,1745150009005417005
2302048,-126,92,23,-7577,-2754,-53,1745150009005417005
2302240,-139,100,21,-7576,-2761,-32,1745150009005417005
2302432,-142,107,20,-7574,-2757,-31,1745150009005417005
2302624,-139,116,16,-7565,-2751,-41,1745150009063759024
2302816,-131,126,15,-7564,-2733,-58,1745150009063759024
2303008,-124,134,16,-7551,-2696,-95,1745150009063759024
2303200,-118,142,17,-7537,-2713,-151,1745150009063759024
2303392,-111,149,17,-7495,-2693,-209,1745150009063759024
2303584,-106,153,14,-7488,-2640,-267,1745150009063759024
2303776,-101,160,7,-7508,-2531,-266,1745150009063759024
2303968,-93,168,0,-7509,-2431,-221,1745150009063759024
2304160,-86,177,-5,-7472,-2386,-194,1745150009063759024
2304352,-81,186,-7,-7441,-2357,-162,1745150009063759024
2304544,-78,195,-6,-7416,-2356,-152,1745150009063759024
2304736,-80,205,-3,-7402,-2374,-162,1745150009063759024
2304928,-84,216,-3,-7392,-2390,-141,1745150009120817878
2305120,-92,226,-3,-7388,-2428,-115,1745150009120817878
2305312,-104,238,-1,-7371,-2488,-82,1745150009120817878
2305504,-119,246,5,-7306,-2515,-68,1745150009120817878
2305696,-134,252,13,-7223,-2515,-65,1745150009120817878
2305888,-152,257,21,-7152,-2514,-66,1745150009120817878
2306080,-167,263,24,-7110,-2516,-100,1745150009120817878
2306272,-180,271,24,-7104,-2549,-115,1745150009120817878
2306464,-194,281,25,-7153,-2570,-102,1745150009120817878
2306656,-208,289,29,-7129,-2596,-148,1745150009120817878
2306848,-224,296,33,-7089,-2589,-188,1745150009120817878
2307040,-239,302,35,-7040,-2559,-243,1745150009120817878
2307232,-250,310,35,-6997,-2548,-280,1745150009191014997
2307424,-257,321,35,-6963,-2558,-268,1745150009191014997
2307616,-259,334,39,-6953,-2580,-234,1745150009191014997
2307808,-260,348,48,-6924,-2599,-206,1745150009191014997
2308000,-262,362,58,-6867,-2597,-152,1745150009191014997
2308192,-264,377,68,-6804,-2570,-110,1745150009191014997
2308384,-269,392,75,-6729,-2535,-111,1745150009191014997
2308576,-276,410,79,-6688,-2505,-91,1745150009191014997
2308768,-281,433,81,-6661,-2475,17,1745150009191014997
2308960,-284,457,84,-6642,-2454,71,1745150009191014997
2309152,-285,478,90,-6588,-2435,78,1745150009191014997
2309344,-289,499,97,-6508,-2403,32,1745150009191014997
2309536,-294,519,104,-6434,-2380,-10,1745150009244016284
2309728,-298,541,111,-6339,-2397,-97,1745150009244016284
