timestamp,gyr_x,gyr_y,gyr_z,acc_x,acc_y,acc_z,pkt_time_ns
112671,-226,102,-5,369,823,-7733,1745141520385819644
112863,-195,14,-16,416,-111,-8380,1745141520385819644
113055,-85,-24,2,168,377,-7878,1745141520385819644
113247,-29,-27,11,139,449,-8069,1745141520385819644
113439,-54,-30,16,249,508,-8021,1745141520385819644
113631,-32,-23,3,303,551,-8024,1745141520385819644
113823,-7,-42,2,321,498,-8069,1745141520385819644
114015,-14,-33,8,334,397,-8097,1745141520385819644
114207,-3,-34,8,302,270,-8114,1745141520385819644
114399,-20,-45,10,273,234,-8147,1745141520385819644
114591,-31,-36,12,293,252,-8184,1745141520385819644
114783,-33,-35,11,252,272,-8231,1745141520385819644
114975,-48,-28,10,177,291,-8275,1745141520441891267
115359,-42,0,7,122,424,-8413,1745141520441891267
115551,-32,21,5,102,491,-8537,1745141520441891267
115743,-12,47,0,158,497,-8629,1745141520441891267
115935,6,59,-4,366,600,-8753,1745141520441891267
116127,32,71,-2,436,749,-8837,1745141520441891267
116319,63,83,4,501,774,-8898,1745141520441891267
116511,86,83,7,638,690,-8819,1745141520441891267
116703,105,77,10,714,742,-8720,1745141520441891267
116895,140,66,24,724,1017,-8549,1745141520441891267
117087,144,41,35,626,202,-8118,1745141520441891267
117279,179,78,42,656,1792,-8598,1745141520441891267
117471,404,14,58,556,1189,-7752,1745141520501411817
117663,451,96,95,602,2069,-9456,1745141520501411817
117855,486,232,265,275,-649,-6479,1745141520501411817
118047,508,134,55,139,-386,-7774,1745141520501411817
118239,555,156,19,-157,-298,-7414,1745141520501411817
118431,-267,113,-47,-898,-3736,-7417,1745141520501411817
118623,-339,198,-57,-507,-2949,-7380,1745141520501411817
118815,-296,136,11,-89,-1257,-7523,1745141520501411817
119007,-352,160,74,320,218,-7733,1745141520501411817
119199,-342,137,53,600,1231,-7781,1745141520501411817
119391,-259,103,-23,710,1576,-7929,1745141520501411817
119583,-153,62,-76,718,1504,-7989,1745141520501411817
119775,-52,35,-72,685,1213,-7993,1745141520556831311
119967,4,22,-42,611,901,-7955,1745141520556831311
120159,8,17,-19,511,642,-7843,1745141520556831311
120351,-1,20,-11,487,464,-8019,1745141520556831311
120543,6,22,-2,514,319,-8054,1745141520556831311
120735,18,24,3,553,237,-8164,1745141520556831311
120927,9,23,-3,536,163,-8324,1745141520556831311
121119,3,12,-6,441,139,-8375,1745141520556831311
121311,2,8,-4,320,131,-8345,1745141520556831311
121503,2,8,-3,276,125,-8341,1745141520556831311
121695,-6,6,-4,287,129,-8286,1745141520556831311
121887,-16,5,-6,322,145,-8199,1745141520556831311
122079,-25,8,-8,361,171,-8112,1745141520616989928
122271,-36,7,-10,383,215,-8050,1745141520616989928
122463,-45,5,-10,400,277,-8001,1745141520616989928
122655,-52,2,-8,391,332,-7966,1745141520616989928
122847,-51,0,-8,396,352,-7952,1745141520616989928
123039,-46,-4,-9,388,367,-7951,1745141520616989928
123231,-40,-8,-10,383,370,-7951,1745141520616989928
123423,-33,-12,-10,389,348,-7971,1745141520616989928
123615,-28,-15,-11,372,333,-7982,1745141520616989928
123807,-24,-19,-10,374,324,-7990,1745141520616989928
123999,-21,-22,-11,341,300,-8008,1745141520616989928
124191,-20,-25,-12,309,287,-8014,1745141520616989928
124383,-20,-27,-13,281,265,-8018,1745141520670359232
124575,-20,-29,-14,292,277,-8008,1745141520670359232
124767,-20,-30,-15,287,284,-8019,1745141520670359232
124959,-19,-32,-17,295,293,-8004,1745141520670359232
125151,-20,-33,-20,291,297,-8012,1745141520670359232
125343,-21,-34,-22,316,281,-8023,1745141520670359232
125535,-24,-35,-24,337,293,-8033,1745141520670359232
125727,-27,-36,-24,350,289,-8061,1745141520670359232
125919,-29,-34,-24,348,293,-8095,1745141520670359232
126111,-30,-32,-22,348,315,-8130,1745141520670359232
126303,-30,-31,-23,367,321,-8151,1745141520670359232
126495,-27,-29,-24,365,331,-8172,1745141520670359232
126687,-25,-28,-24,362,351,-8182,1745141520734127139
126879,-26,-27,-23,353,347,-8170,1745141520734127139
127071,-29,-26,-22,347,329,-8161,1745141520734127139
127263,-30,-25,-22,343,312,-8148,1745141520734127139
127455,-34,-23,-22,337,326,-8144,1745141520734127139
127647,-36,-21,-22,335,327,-8111,1745141520734127139
127839,-37,-18,-24,351,323,-8103,1745141520734127139
128031,-39,-14,-26,354,332,-8110,1745141520734127139
128223,-42,-12,-28,361,341,-8128,1745141520734127139
128415,-43,-11,-30,349,379,-8160,1745141520734127139
128607,-39,-10,-30,350,400,-8180,1745141520734127139
128799,-34,-9,-29,318,421,-8191,1745141520734127139
128991,-29,-8,-28,295,404,-8175,1745141520791506511
129183,-23,-5,-27,295,370,-8154,1745141520791506511
129375,-19,-3,-27,295,324,-8124,1745141520791506511
129567,-17,-1,-28,318,277,-8093,1745141520791506511
129759,-18,1,-29,311,266,-8080,1745141520791506511
129951,-21,3,-29,314,250,-8055,1745141520791506511
130143,-24,6,-30,317,246,-8026,1745141520791506511
130335,-25,9,-31,314,272,-8029,1745141520791506511
130527,-27,10,-33,317,281,-8043,1745141520791506511
130719,-28,9,-34,319,323,-8061,1745141520791506511
130911,-27,9,-37,299,375,-8093,1745141520791506511
131103,-24,8,-39,281,446,-8126,1745141520791506511
131295,-21,6,-42,257,496,-8126,1745141520850958728
131487,-14,4,-42,266,514,-8136,1745141520850958728
131679,-8,3,-41,289,490,-8127,1745141520850958728
131871,-1,0,-39,324,432,-8105,1745141520850958728
132063,2,-1,-37,355,405,-8075,1745141520850958728
132255,1,-2,-35,370,372,-8074,1745141520850958728
132447,-2,-2,-35,382,356,-8081,1745141520850958728
132639,-6,-3,-33,385,336,-8085,1745141520850958728
132831,-7,-4,-30,387,339,-8108,1745141520850958728
133023,-7,-4,-25,388,323,-8157,1745141520850958728
133215,-6,-4,-21,400,326,-8209,1745141520850958728
133407,-6,-5,-18,395,346,-8249,1745141520850958728
133599,-6,-5,-14,385,376,-8259,1745141520908138206
133791,-7,-6,-10,377,383,-8251,1745141520908138206
133983,-8,-4,-7,378,379,-8220,1745141520908138206
134175,-10,-3,-3,390,383,-8174,1745141520908138206
134367,-14,-2,0,431,384,-8131,1745141520908138206
134559,-16,-3,1,442,410,-8089,1745141520908138206
134751,-16,-3,2,421,426,-8080,1745141520908138206
134943,-15,-3,3,398,430,-8076,1745141520908138206
135135,-14,-2,5,369,439,-8083,1745141520908138206
135327,-10,-3,8,349,466,-8100,1745141520908138206
135519,-5,-3,9,329,491,-8125,1745141520908138206
135711,1,-5,10,304,476,-8153,1745141520908138206
135903,6,-6,11,287,448,-8173,1745141520967858494
136095,8,-6,14,284,421,-8161,1745141520967858494
136287,9,-6,18,306,354,-8152,1745141520967858494
136479,7,-4,23,322,331,-8126,1745141520967858494
136671,4,-1,28,331,310,-8107,1745141520967858494
136863,0,2,29,349,295,-8104,1745141520967858494
137055,-3,6,30,352,316,-8098,1745141520967858494
137247,-5,7,32,365,340,-8108,1745141520967858494
137439,-2,10,33,367,364,-8145,1745141520967858494
137631,1,12,35,364,355,-8168,1745141520967858494
137823,5,13,35,336,351,-8187,1745141520967858494
138015,9,14,35,333,341,-8207,1745141520967858494
138207,10,15,36,298,341,-8192,1745141521031157603
138399,8,19,36,281,338,-8191,1745141521031157603
138591,4,24,36,284,339,-8195,1745141521031157603
138783,0,30,35,304,355,-8194,1745141521031157603
138975,-3,36,35,320,379,-8192,1745141521031157603
139167,-3,42,33,348,408,-8198,1745141521031157603
139359,-3,46,32,351,418,-8193,1745141521031157603
139551,0,49,31,364,425,-8191,1745141521031157603
139743,1,55,30,359,413,-8180,1745141521031157603
139935,3,61,27,361,391,-8199,1745141521031157603
140127,4,66,26,353,367,-8230,1745141521031157603
140319,5,71,24,348,349,-8236,1745141521031157603
140511,5,78,22,323,324,-8264,1745141521090298365
140895,2,92,19,333,260,-8263,1745141521090298365
141087,-1,98,16,361,233,-8237,1745141521090298365
141279,-5,105,15,399,252,-8199,1745141521090298365
141471,-11,112,15,397,274,-8166,1745141521090298365
141663,-14,119,13,400,327,-8158,1745141521090298365
141855,-13,126,11,411,360,-8171,1745141521090298365
142047,-10,131,10,395,380,-8175,1745141521090298365
142239,-6,135,6,397,373,-8178,1745141521090298365
142431,1,139,0,364,361,-8165,1745141521090298365
142623,8,144,-6,354,350,-8142,1745141521090298365
142815,10,147,-10,340,325,-8141,1745141521090298365
143007,10,154,-15,341,307,-8140,1745141521147583206
143199,11,160,-22,358,317,-8126,1745141521147583206
143391,13,165,-27,380,319,-8095,1745141521147583206
143583,17,169,-32,393,322,-8078,1745141521147583206
143775,21,174,-37,408,338,-8065,1745141521147583206
143967,24,180,-39,434,334,-8082,1745141521147583206
144159,28,186,-41,457,346,-8118,1745141521147583206
144351,36,191,-44,445,353,-8170,1745141521147583206
144543,45,196,-46,452,372,-8217,1745141521147583206
144735,55,201,-48,467,344,-8244,1745141521147583206
144927,65,204,-52,486,325,-8263,1745141521147583206
145119,70,208,-51,515,282,-8273,1745141521147583206
145311,70,213,-52,543,251,-8269,1745141521206658239
145503,66,219,-53,567,228,-8257,1745141521206658239
145695,61,226,-54,574,222,-8249,1745141521206658239
145887,56,232,-55,591,251,-8238,1745141521206658239
146079,50,238,-57,604,273,-8220,1745141521206658239
146271,47,242,-59,619,312,-8188,1745141521206658239
146463,50,247,-60,637,369,-8157,1745141521206658239
146655,54,250,-60,649,410,-8141,1745141521206658239
146847,60,252,-59,669,457,-8128,1745141521206658239
147039,67,254,-59,678,480,-8128,1745141521206658239
147231,74,256,-60,684,480,-8128,1745141521206658239
147423,83,257,-60,682,455,-8134,1745141521206658239
147615,91,257,-58,705,433,-8148,1745141521265187652
147807,99,258,-58,719,374,-8149,1745141521265187652
147999,104,258,-55,734,322,-8143,1745141521265187652
148191,104,260,-52,749,278,-8154,1745141521265187652
148383,101,262,-51,786,242,-8157,1745141521265187652
148575,100,264,-46,796,246,-8156,1745141521265187652
148767,101,264,-42,814,263,-8148,1745141521265187652
148959,102,263,-41,814,247,-8102,1745141521265187652
149151,102,261,-40,819,227,-8075,1745141521265187652
149343,99,260,-39,829,202,-8052,1745141521265187652
149535,95,259,-39,825,184,-8034,1745141521265187652
149727,91,259,-36,800,186,-8035,1745141521265187652
149919,88,258,-33,818,208,-8039,1745141521328746291
150111,84,257,-33,826,209,-8029,1745141521328746291
150303,82,257,-34,827,209,-8009,1745141521328746291
150495,81,258,-34,835,204,-8022,1745141521328746291
150687,76,261,-37,842,201,-8067,1745141521328746291
150879,71,265,-39,849,176,-8131,1745141521328746291
151071,67,268,-38,840,168,-8164,1745141521328746291
151263,63,271,-37,836,158,-8167,1745141521328746291
151455,64,277,-35,838,149,-8199,1745141521328746291
151647,61,281,-37,853,136,-8202,1745141521328746291
151839,59,290,-41,879,112,-8229,1745141521328746291
152031,56,299,-44,891,97,-8264,1745141521328746291
152223,54,311,-48,903,164,-8286,1745141521380317174
152415,57,324,-47,919,250,-8322,1745141521380317174
152607,65,335,-49,959,323,-8315,1745141521380317174
152799,79,346,-52,996,380,-8332,1745141521380317174
152991,103,360,-53,1012,438,-8383,1745141521380317174
153183,124,376,-59,1047,436,-8457,1745141521380317174
153375,146,394,-67,1061,386,-8525,1745141521380317174
153567,171,414,-72,1075,302,-8621,1745141521380317174
153759,190,436,-82,1056,226,-8752,1745141521380317174
153951,207,463,-94,1033,126,-8901,1745141521380317174
154143,221,495,-108,1021,42,-9031,1745141521380317174
154335,231,531,-119,1032,-20,-9185,1745141521380317174
154527,235,570,-132,1071,-51,-9308,1745141521440667820
154719,239,616,-140,1159,-53,-9422,1745141521440667820
154911,247,662,-149,1215,4,-9573,1745141521440667820
155103,267,711,-161,1225,109,-9741,1745141521440667820
155295,298,763,-181,1235,166,-9936,1745141521440667820
155487,338,812,-208,1290,185,-10174,1745141521440667820
155679,388,860,-235,1348,130,-10425,1745141521440667820
155871,448,910,-256,1439,-18,-10741,1745141521440667820
156063,503,961,-271,1585,-271,-11138,1745141521440667820
156255,544,1007,-283,1747,-562,-11547,1745141521440667820
156447,578,1037,-286,1967,-886,-11915,1745141521440667820
156639,604,1046,-283,2238,-1239,-12283,1745141521440667820
156831,624,1035,-278,2408,-1542,-12694,1745141521504124116
157023,635,1020,-278,2542,-1860,-13086,1745141521504124116
157215,627,994,-297,2754,-2350,-13393,1745141521504124116
157407,592,958,-324,2945,-3023,-13707,1745141521504124116
157599,536,919,-347,3065,-3751,-13913,1745141521504124116
157791,478,861,-348,3494,-4824,-14294,1745141521504124116
157983,453,764,-321,3966,-6114,-14197,1745141521504124116
158175,471,647,-260,4249,-6890,-14478,1745141521504124116
158367,460,504,-176,4298,-7303,-13598,1745141521504124116
158559,388,403,-83,4154,-7729,-12897,1745141521504124116
158751,308,326,3,4307,-8359,-13098,1745141521504124116
158943,141,202,58,4830,-8538,-13605,1745141521504124116
159135,-120,62,73,5160,-7899,-12707,1745141521555497032
159327,-443,-8,45,5375,-6649,-12145,1745141521555497032
159519,-738,-4,-27,5617,-4807,-12063,1745141521555497032
159711,-889,11,-125,5994,-2415,-12330,1745141521555497032
159903,-845,17,-225,6684,136,-12904,1745141521555497032
160095,-686,-19,-346,7360,2305,-13580,1745141521555497032
160287,-497,-119,-426,7604,3786,-14801,1745141521555497032
160479,-159,-324,-336,7905,4240,-16007,1745141521555497032
160671,347,-650,-50,8296,3530,-17140,1745141521555497032
160863,1042,-1021,366,8672,2263,-18198,1745141521555497032
161055,1880,-1340,751,8640,910,-18867,1745141521555497032
161247,2641,-1568,991,8214,-523,-19383,1745141521555497032
161439,3189,-1722,1097,7396,-1804,-19503,1745141521618008700
161631,3500,-1808,1154,6445,-2803,-19275,1745141521618008700
161823,3680,-1843,1211,5921,-3291,-18851,1745141521618008700
162015,3750,-1882,1258,6061,-3520,-18472,1745141521618008700
162207,3674,-1952,1301,6495,-3403,-17869,1745141521618008700
162399,3526,-2062,1354,7111,-3194,-17199,1745141521618008700
162591,3342,-2217,1438,7598,-2970,-16511,1745141521618008700
162783,3151,-2396,1573,7853,-2799,-15938,1745141521618008700
162975,2949,-2604,1741,7921,-2689,-15508,1745141521618008700
163167,2738,-2835,1912,7747,-2724,-15337,1745141521618008700
163359,2526,-3057,2072,7375,-2775,-15244,1745141521618008700
163551,2323,-3259,2218,6981,-2719,-15205,1745141521618008700
163743,2133,-3435,2349,6677,-2499,-15153,1745141521679768605
163935,1965,-3596,2460,6456,-2151,-15008,1745141521679768605
164127,1847,-3745,2550,6367,-1715,-14695,1745141521679768605
164319,1777,-3888,2620,6430,-1181,-14174,1745141521679768605
164511,1730,-4029,2671,6591,-655,-13421,1745141521679768605
164703,1683,-4171,2703,6674,-128,-12547,1745141521679768605
164895,1639,-4304,2725,6610,321,-11823,1745141521679768605
165087,1622,-4436,2755,6534,783,-11021,1745141521679768605
165279,1628,-4568,2800,6578,980,-10111,1745141521679768605
165471,1617,-4701,2838,6646,1090,-9133,1745141521679768605
165663,1555,-4827,2865,6581,1139,-8154,1745141521679768605
165855,1439,-4934,2881,6373,1208,-7350,1745141521679768605
166047,1301,-5012,2902,6129,1337,-6888,1745141521735491950
166239,1180,-5073,2922,5903,1578,-6503,1745141521735491950
166431,1100,-5129,2922,5859,1828,-6088,1745141521735491950
166623,1053,-5183,2894,5875,2009,-5634,1745141521735491950
166815,1012,-5233,2850,5812,2131,-5117,1745141521735491950
167007,976,-5257,2821,5608,2174,-4676,1745141521735491950
167199,967,-5257,2806,5377,2290,-4424,1745141521735491950
167391,994,-5243,2795,5166,2518,-4176,1745141521735491950
167583,1063,-5230,2778,5028,2754,-3809,1745141521735491950
167775,1156,-5215,2742,4870,2843,-3280,1745141521735491950
167967,1254,-5201,2702,4720,2814,-2659,1745141521735491950
168159,1354,-5179,2683,4590,2687,-2161,1745141521735491950
168351,1445,-5148,2685,4490,2444,-1685,1745141521795620047
168543,1508,-5126,2693,4456,2146,-1011,1745141521795620047
168735,1529,-5099,2689,4332,1862,-235,1745141521795620047
168927,1510,-5059,2668,4130,1688,519,1745141521795620047
169119,1448,-5000,2633,3946,1607,1043,1745141521795620047
169311,1351,-4930,2594,3863,1606,1183,1745141521795620047
169503,1234,-4878,2543,3818,1691,1504,1745141521795620047
169695,1124,-4833,2488,3638,1865,1769,1745141521795620047
169887,1035,-4774,2438,3372,2136,1787,1745141521795620047
170079,962,-4713,2390,3069,2418,2002,1745141521795620047
170271,890,-4667,2335,2638,2685,2377,1745141521795620047
170463,801,-4620,2275,2033,2872,2873,1745141521795620047
170655,697,-4572,2216,1382,2974,3447,1745141521852141041
170847,594,-4517,2152,682,2905,3983,1745141521852141041
171039,480,-4454,2076,-76,2806,4513,1745141521852141041
171231,350,-4385,1994,-888,2640,5279,1745141521852141041
171423,206,-4291,1903,-1861,2468,5990,1745141521852141041
171615,63,-4182,1814,-2828,2419,6567,1745141521852141041
171807,-63,-4051,1722,-3736,2266,6987,1745141521852141041
171999,-187,-3885,1590,-4763,2081,7185,1745141521852141041
172191,-304,-3679,1453,-5661,1906,7343,1745141521852141041
172383,-383,-3454,1329,-6319,1870,7594,1745141521852141041
172575,-423,-3207,1223,-6854,1840,7699,1745141521852141041
172767,-435,-2960,1129,-7103,1919,7770,1745141521852141041
172959,-422,-2718,1048,-7251,2091,7907,1745141521912476687
173151,-383,-2458,978,-7298,2346,7892,1745141521912476687
173343,-328,-2202,904,-7203,2686,7872,1745141521912476687
173535,-255,-1958,827,-7165,3032,7828,1745141521912476687
173727,-163,-1732,748,-7125,3255,7776,1745141521912476687
173919,-31,-1518,664,-7167,3422,7630,1745141521912476687
174111,128,-1328,576,-7107,3532,7384,1745141521912476687
174303,297,-1159,496,-7067,3526,7041,1745141521912476687
174495,449,-1005,424,-7040,3264,6784,1745141521912476687
174687,553,-862,340,-7191,2891,6495,1745141521912476687
174879,625,-722,275,-7230,2706,6215,1745141521912476687
175071,677,-604,252,-7235,2518,5843,1745141521912476687
175263,712,-500,238,-7359,2235,5453,1745141521969897413
175455,729,-405,186,-7440,1895,5082,1745141521969897413
175647,716,-330,107,-7474,1656,4721,1745141521969897413
175839,664,-259,42,-7424,1519,4417,1745141521969897413
176031,582,-195,4,-7273,1416,4190,1745141521969897413
176223,493,-148,-13,-6987,1343,3971,1745141521969897413
176415,411,-115,-14,-6762,1332,3752,1745141521969897413
176607,329,-92,-7,-6570,1212,3568,1745141521969897413
176799,246,-86,-21,-6436,1018,3399,1745141521969897413
176991,175,-89,-40,-6524,800,3292,1745141521969897413
177183,126,-93,-45,-6628,655,3115,1745141521969897413
177375,97,-100,-44,-6767,514,2965,1745141521969897413
177567,72,-104,-47,-6837,392,2779,1745141522029829574
177759,47,-104,-48,-6883,315,2669,1745141522029829574
177951,30,-104,-49,-6994,311,2590,1745141522029829574
178143,21,-106,-52,-7067,358,2522,1745141522029829574
178335,28,-110,-46,-7132,316,2451,1745141522029829574
178527,46,-114,-44,-7277,179,2371,1745141522029829574
178719,72,-111,-34,-7346,-77,2323,1745141522029829574
178911,90,-110,-16,-7462,-351,2264,1745141522029829574
179103,81,-124,-14,-7635,-548,2289,1745141522029829574
179295,45,-130,-21,-7838,-796,2354,1745141522029829574
179487,-9,-118,-27,-7987,-966,2354,1745141522029829574
179679,-70,-103,-26,-8061,-1074,2360,1745141522029829574
179871,-133,-87,-16,-8088,-1091,2389,1745141522086212132
180063,-198,-68,1,-8083,-942,2377,1745141522086212132
180255,-261,-45,15,-8073,-755,2315,1745141522086212132
180447,-314,-23,22,-8016,-650,2167,1745141522086212132
180639,-347,-10,23,-7922,-606,2029,1745141522086212132
180831,-350,-3,22,-7851,-624,1957,1745141522086212132
181023,-335,5,25,-7836,-656,1844,1745141522086212132
181215,-320,16,29,-7860,-702,1772,1745141522086212132
181407,-302,21,34,-7920,-694,1734,1745141522086212132
181599,-277,24,35,-8008,-627,1706,1745141522086212132
181791,-255,29,30,-8064,-544,1708,1745141522086212132
181983,-244,40,20,-8067,-477,1666,1745141522086212132
182175,-243,55,13,-8026,-456,1573,1745141522146414394
182367,-244,71,10,-7971,-450,1504,1745141522146414394
182559,-242,88,10,-7963,-423,1460,1745141522146414394
182751,-243,112,6,-7995,-383,1382,1745141522146414394
182943,-248,144,1,-8036,-379,1211,1745141522146414394
183135,-246,181,-5,-8020,-447,1007,1745141522146414394
183327,-230,215,-15,-7970,-491,882,1745141522146414394
183519,-210,247,-27,-7912,-495,723,1745141522146414394
183711,-192,277,-38,-7893,-449,591,1745141522146414394
183903,-168,296,-43,-7911,-386,526,1745141522146414394
184095,-134,304,-46,-7950,-330,482,1745141522146414394
184287,-90,307,-48,-8032,-357,373,1745141522146414394
184479,-40,310,-52,-8070,-469,293,1745141522203031012
184671,6,314,-57,-8057,-568,239,1745141522203031012
184863,37,319,-51,-8044,-713,135,1745141522203031012
185055,47,326,-37,-8001,-845,60,1745141522203031012
185247,47,334,-21,-8008,-944,-116,1745141522203031012
185439,40,323,-14,-8021,-986,-232,1745141522203031012
185631,35,312,-11,-8031,-989,-291,1745141522203031012
185823,32,304,-11,-7997,-1006,-371,1745141522203031012
186015,30,290,-14,-7968,-1000,-456,1745141522203031012
186207,31,271,-19,-7962,-981,-526,1745141522203031012
186399,37,248,-24,-7951,-951,-575,1745141522203031012
186591,45,229,-25,-7943,-864,-611,1745141522203031012
186783,56,210,-18,-7943,-761,-626,1745141522263024058
186975,74,189,-6,-7899,-693,-624,1745141522263024058
187167,96,167,3,-7889,-645,-637,1745141522263024058
187359,114,143,11,-7898,-678,-618,1745141522263024058
187551,131,121,28,-7931,-744,-568,1745141522263024058
187743,143,102,45,-7990,-823,-548,1745141522263024058
187935,142,83,40,-8050,-952,-472,1745141522263024058
188127,134,68,20,-8117,-978,-434,1745141522263024058
188319,122,56,20,-8116,-1030,-389,1745141522263024058
188511,105,45,28,-8133,-1066,-368,1745141522263024058
188703,81,32,36,-8262,-1075,-305,1745141522263024058
188895,59,37,37,-8559,-1122,-205,1745141522263024058
189087,31,28,26,-8228,-1030,-137,1745141522320497231
189279,-7,-2,30,-7888,-991,-93,1745141522320497231
189471,-51,-15,29,-7950,-932,-57,1745141522320497231
189663,-78,-40,35,-8217,-792,19,1745141522320497231
189855,-88,-56,54,-8412,-679,75,1745141522320497231
190047,-98,-58,65,-8447,-578,179,1745141522320497231
190239,-106,-46,74,-8342,-589,264,1745141522320497231
190431,-106,-31,87,-8169,-710,299,1745141522320497231
190623,-109,-25,88,-8050,-798,337,1745141522320497231
190815,-119,-16,77,-8153,-814,333,1745141522320497231
191007,-132,-8,67,-8213,-751,338,1745141522320497231
191199,-141,5,58,-8289,-687,288,1745141522320497231
191391,-140,19,50,-8292,-565,256,1745141522380087207
191583,-116,38,50,-8255,-493,260,1745141522380087207
191775,-82,47,43,-8110,-394,304,1745141522380087207
191967,-44,43,35,-8027,-349,345,1745141522380087207
192159,-6,38,30,-8073,-325,447,1745141522380087207
192351,29,41,26,-8195,-372,440,1745141522380087207
192543,51,51,19,-8285,-457,442,1745141522380087207
192735,62,63,16,-8300,-566,457,1745141522380087207
192927,65,76,20,-8304,-649,453,1745141522380087207
193119,55,93,25,-8332,-725,387,1745141522380087207
193311,35,108,23,-8339,-777,376,1745141522380087207
193503,15,119,21,-8352,-799,356,1745141522380087207
193695,-8,128,19,-8339,-798,353,1745141522437296997
193887,-27,133,18,-8332,-755,361,1745141522437296997
194079,-40,137,17,-8345,-692,308,1745141522437296997
194271,-48,142,16,-8332,-595,261,1745141522437296997
194463,-46,146,16,-8291,-512,205,1745141522437296997
194655,-35,149,17,-8268,-410,138,1745141522437296997
194847,-18,150,19,-8185,-376,81,1745141522437296997
195039,0,147,17,-8139,-382,90,1745141522437296997
195231,14,145,9,-8146,-380,78,1745141522437296997
195423,25,144,8,-8156,-399,49,1745141522437296997
195615,32,143,9,-8165,-436,45,1745141522437296997
195807,38,139,9,-8177,-497,22,1745141522437296997
195999,43,137,8,-8160,-543,16,1745141522498036234
196191,45,133,4,-8155,-542,43,1745141522498036234
196383,41,130,-1,-8169,-551,54,1745141522498036234
196575,35,129,-6,-8184,-522,77,1745141522498036234
196767,29,130,-7,-8179,-516,79,1745141522498036234
196959,25,129,-8,-8176,-469,64,1745141522498036234
197151,20,132,-8,-8132,-460,50,1745141522498036234
197343,17,133,-9,-8064,-456,69,1745141522498036234
197535,14,133,-11,-8026,-471,71,1745141522498036234
197727,11,133,-14,-8023,-490,93,1745141522498036234
197919,9,131,-15,-8033,-532,66,1745141522498036234
198111,7,129,-17,-8041,-564,53,1745141522498036234
198303,4,127,-20,-8068,-557,18,1745141522553604529
198495,1,127,-24,-8118,-575,1,1745141522553604529
198687,9,123,-24,-8155,-591,-3,1745141522553604529
198879,25,117,-25,-8170,-594,-5,1745141522553604529
199071,41,112,-28,-8194,-604,42,1745141522553604529
199263,50,106,-30,-8218,-684,64,1745141522553604529
199455,51,101,-29,-8207,-721,118,1745141522553604529
199647,44,98,-30,-8253,-779,141,1745141522553604529
199839,28,101,-32,-8269,-800,118,1745141522553604529
200031,7,107,-27,-8262,-776,90,1745141522553604529
200223,-13,111,-22,-8225,-790,9,1745141522553604529
200415,-27,115,-19,-8175,-756,-47,1745141522553604529
200607,-35,120,-14,-8134,-681,-84,1745141522613912832
200799,-37,121,-9,-8100,-632,-154,1745141522613912832
200991,-35,121,-6,-8109,-590,-176,1745141522613912832
201183,-22,117,-2,-8118,-556,-182,1745141522613912832
201375,-2,115,3,-8145,-540,-232,1745141522613912832
201567,15,112,6,-8145,-552,-235,1745141522613912832
201759,27,109,6,-8157,-574,-208,1745141522613912832
201951,37,105,8,-8177,-661,-208,1745141522613912832
202143,48,101,15,-8193,-726,-212,1745141522613912832
202335,56,97,21,-8241,-784,-199,1745141522613912832
202527,55,95,24,-8260,-856,-180,1745141522613912832
202719,41,96,25,-8265,-893,-145,1745141522613912832
202911,17,101,30,-8230,-916,-136,1745141522671257412
203103,-14,109,38,-8169,-907,-151,1745141522671257412
203295,-44,115,44,-8114,-869,-191,1745141522671257412
203487,-66,118,47,-8087,-814,-258,1745141522671257412
203679,-78,122,48,-8058,-696,-289,1745141522671257412
203871,-76,122,50,-8040,-598,-314,1745141522671257412
204063,-63,122,50,-8008,-493,-373,1745141522671257412
204255,-42,117,47,-7980,-436,-380,1745141522671257412
204447,-12,108,45,-7986,-417,-344,1745141522671257412
204639,18,98,41,-8011,-451,-322,1745141522671257412
204831,38,92,34,-8053,-530,-303,1745141522671257412
205023,43,90,28,-8091,-638,-273,1745141522671257412
205215,41,87,28,-8109,-744,-257,1745141522731025825
205407,33,86,28,-8120,-806,-241,1745141522731025825
205599,18,86,25,-8133,-803,-221,1745141522731025825
205791,-3,86,24,-8163,-773,-238,1745141522731025825
205983,-21,87,28,-8221,-699,-243,1745141522731025825
206175,-29,88,30,-8224,-567,-254,1745141522731025825
206367,-32,90,29,-8170,-499,-259,1745141522731025825
206559,-31,91,26,-8097,-437,-292,1745141522731025825
206751,-23,91,24,-8063,-436,-333,1745141522731025825
206943,-13,89,21,-8039,-447,-351,1745141522731025825
207135,-1,87,17,-8052,-439,-376,1745141522731025825
207327,11,87,12,-8066,-480,-401,1745141522731025825
207519,20,88,10,-8057,-494,-387,1745141522788281447
207711,27,86,5,-8074,-522,-360,1745141522788281447
207903,34,81,1,-8098,-537,-349,1745141522788281447
208095,38,74,-2,-8145,-573,-344,1745141522788281447
208287,39,67,-3,-8181,-592,-306,1745141522788281447
208479,36,61,-2,-8196,-611,-289,1745141522788281447
208671,33,57,-1,-8226,-600,-286,1745141522788281447
208863,32,53,1,-8244,-607,-319,1745141522788281447
209055,31,50,1,-8254,-626,-321,1745141522788281447
209247,30,45,4,-8229,-627,-310,1745141522788281447
209439,27,43,5,-8192,-638,-323,1745141522788281447
209631,18,42,6,-8168,-645,-301,1745141522788281447
209823,6,42,7,-8139,-675,-295,1745141522847740592
210015,-10,41,10,-8116,-689,-290,1745141522847740592
210207,-26,40,13,-8127,-668,-240,1745141522847740592
210399,-38,35,15,-8155,-618,-185,1745141522847740592
210591,-48,33,15,-8193,-565,-181,1745141522847740592
210783,-56,35,11,-8212,-527,-176,1745141522847740592
210975,-62,36,6,-8207,-491,-155,1745141522847740592
211167,-62,39,2,-8194,-470,-135,1745141522847740592
211359,-61,44,-1,-8177,-443,-139,1745141522847740592
211551,-61,49,-4,-8190,-416,-167,1745141522847740592
211743,-61,55,-9,-8175,-404,-176,1745141522847740592
211935,-61,62,-14,-8175,-409,-184,1745141522847740592
212127,-57,68,-19,-8167,-426,-168,1745141522904899705
212319,-51,74,-24,-8193,-440,-158,1745141522904899705
212511,-41,79,-27,-8214,-467,-163,1745141522904899705
212703,-29,84,-29,-8235,-465,-189,1745141522904899705
212895,-13,88,-32,-8233,-484,-206,1745141522904899705
213087,4,91,-33,-8222,-471,-204,1745141522904899705
213279,20,91,-34,-8227,-504,-210,1745141522904899705
213471,32,92,-34,-8236,-537,-208,1745141522904899705
213663,42,93,-33,-8232,-591,-236,1745141522904899705
213855,47,94,-32,-8236,-647,-243,1745141522904899705
214047,47,98,-29,-8202,-678,-241,1745141522904899705
214239,43,101,-25,-8165,-708,-268,1745141522904899705
214431,37,102,-20,-8129,-723,-308,1745141522964602753
214623,30,102,-18,-8093,-750,-309,1745141522964602753
214815,23,101,-16,-8061,-733,-332,1745141522964602753
215007,18,97,-14,-8055,-726,-362,1745141522964602753
215199,16,92,-12,-8060,-687,-401,1745141522964602753
215391,16,88,-11,-8094,-672,-436,1745141522964602753
215583,18,83,-11,-8135,-633,-469,1745141522964602753
215775,17,80,-13,-8143,-619,-478,1745141522964602753
215967,10,78,-11,-8115,-639,-472,1745141522964602753
216159,4,75,-7,-8114,-701,-437,1745141522964602753
216351,-4,72,-4,-8085,-741,-442,1745141522964602753
216543,-16,70,-2,-8089,-780,-424,1745141522964602753
216735,-34,68,-3,-8098,-806,-427,1745141523021702648
216927,-55,67,-2,-8089,-799,-439,1745141523021702648
217119,-68,67,1,-8089,-783,-464,1745141523021702648
217311,-73,67,3,-8046,-710,-478,1745141523021702648
217503,-71,67,6,-8010,-632,-491,1745141523021702648
217695,-62,64,6,-7983,-547,-487,1745141523021702648
217887,-48,56,5,-7966,-519,-502,1745141523021702648
218079,-32,48,3,-7992,-524,-527,1745141523021702648
218271,-15,41,0,-8003,-540,-520,1745141523021702648
218463,-4,36,-3,-8031,-572,-520,1745141523021702648
218655,-2,31,-5,-8047,-615,-520,1745141523021702648
218847,-6,27,-6,-8065,-637,-502,1745141523021702648
219039,-13,25,-1,-8073,-641,-478,1745141523081674288
219231,-20,23,2,-8098,-668,-445,1745141523081674288
219423,-25,21,5,-8110,-690,-403,1745141523081674288
219615,-24,21,7,-8135,-674,-397,1745141523081674288
219807,-24,25,8,-8120,-683,-408,1745141523081674288
219999,-23,27,7,-8116,-680,-411,1745141523081674288
220191,-21,29,6,-8100,-676,-402,1745141523081674288
220383,-18,31,5,-8081,-672,-426,1745141523081674288
220575,-18,31,3,-8079,-673,-431,1745141523081674288
220767,-21,30,1,-8093,-680,-411,1745141523081674288
220959,-25,30,-1,-8113,-672,-399,1745141523081674288
221151,-32,33,-1,-8141,-658,-385,1745141523081674288
221343,-37,34,-4,-8155,-617,-378,1745141523138949286
221535,-40,34,-5,-8171,-606,-387,1745141523138949286
221727,-40,34,-5,-8184,-596,-392,1745141523138949286
221919,-37,37,-4,-8165,-553,-396,1745141523138949286
222111,-30,40,-4,-8152,-540,-394,1745141523138949286
222303,-24,44,-6,-8101,-502,-396,1745141523138949286
222495,-18,50,-8,-8032,-451,-387,1745141523138949286
222687,-16,55,-10,-7969,-466,-407,1745141523138949286
222879,-16,58,-13,-7925,-469,-420,1745141523138949286
223071,-14,59,-14,-7908,-483,-425,1745141523138949286
223263,-9,57,-16,-7905,-510,-440,1745141523138949286
223455,-5,57,-18,-7902,-540,-453,1745141523138949286
223647,-6,58,-21,-7903,-540,-477,1745141523195656945
223839,-9,59,-23,-7893,-581,-506,1745141523195656945
224031,-11,56,-22,-7888,-581,-528,1745141523195656945
224223,-8,51,-22,-7912,-599,-516,1745141523195656945
224415,-3,45,-21,-7943,-590,-503,1745141523195656945
224607,3,39,-18,-8010,-628,-501,1745141523195656945
224799,9,34,-12,-8052,-656,-488,1745141523195656945
224991,17,30,-5,-8076,-688,-457,1745141523195656945
225183,26,27,2,-8101,-749,-445,1745141523195656945
225375,30,25,7,-8124,-824,-379,1745141523195656945
225567,32,24,12,-8157,-934,-328,1745141523195656945
225759,32,22,17,-8203,-1008,-300,1745141523195656945
225951,26,24,21,-8250,-1061,-248,1745141523257385808
226143,11,30,24,-8276,-1081,-265,1745141523257385808
226335,-10,36,28,-8283,-1078,-246,1745141523257385808
226527,-31,43,34,-8273,-1010,-230,1745141523257385808
226719,-47,52,40,-8262,-926,-237,1745141523257385808
226911,-59,63,48,-8231,-774,-282,1745141523257385808
227103,-62,70,56,-8218,-651,-347,1745141523257385808
227295,-60,72,51,-8201,-530,-388,1745141523257385808
227487,-45,78,42,-8207,-470,-415,1745141523257385808
227679,-20,87,37,-8178,-419,-438,1745141523257385808
227871,0,93,37,-8130,-426,-462,1745141523257385808
228063,15,97,37,-8129,-426,-445,1745141523257385808
228255,25,100,33,-8131,-444,-465,1745141523314534817
228447,31,104,28,-8133,-460,-484,1745141523314534817
228639,35,106,23,-8141,-495,-488,1745141523314534817
228831,37,107,19,-8132,-484,-495,1745141523314534817
229023,32,108,15,-8130,-456,-486,1745141523314534817
229215,22,108,13,-8119,-449,-496,1745141523314534817
229407,15,108,13,-8154,-449,-496,1745141523314534817
229599,12,109,13,-8189,-476,-539,1745141523314534817
229791,10,110,12,-8164,-501,-580,1745141523314534817
229983,4,112,10,-8161,-540,-592,1745141523314534817
230175,1,112,10,-8129,-535,-585,1745141523314534817
230367,1,111,12,-8118,-543,-617,1745141523314534817
230559,1,109,10,-8103,-524,-637,1745141523374063700
230751,3,107,7,-8102,-501,-647,1745141523374063700
230943,5,103,5,-8125,-452,-662,1745141523374063700
231135,11,98,8,-8146,-406,-665,1745141523374063700
231327,22,94,8,-8149,-409,-671,1745141523374063700
231519,36,89,7,-8177,-466,-657,1745141523374063700
231711,48,82,5,-8176,-543,-657,1745141523374063700
231903,56,78,3,-8212,-636,-671,1745141523374063700
232095,55,77,1,-8231,-702,-660,1745141523374063700
232287,46,76,2,-8251,-748,-654,1745141523374063700
232479,35,77,4,-8220,-793,-662,1745141523374063700
232671,22,77,6,-8176,-796,-662,1745141523374063700
232863,9,75,7,-8186,-738,-672,1745141523431085888
233055,-3,72,8,-8166,-677,-660,1745141523431085888
233247,-8,70,10,-8154,-587,-665,1745141523431085888
233439,-10,69,10,-8159,-546,-675,1745141523431085888
233631,-9,67,9,-8132,-512,-681,1745141523431085888
233823,-9,66,8,-8118,-514,-709,1745141523431085888
234015,-6,62,8,-8097,-525,-717,1745141523431085888
234207,-1,56,9,-8106,-555,-732,1745141523431085888
234399,5,49,7,-8145,-514,-742,1745141523431085888
234591,7,47,6,-8166,-477,-740,1745141523431085888
234783,7,46,5,-8197,-439,-719,1745141523431085888
234975,11,45,5,-8174,-407,-721,1745141523431085888
235167,16,44,6,-8148,-415,-721,1745141523491121746
235359,22,42,6,-8116,-440,-708,1745141523491121746
235551,26,39,6,-8128,-473,-660,1745141523491121746
235743,27,34,6,-8156,-524,-652,1745141523491121746
235935,26,32,6,-8183,-560,-646,1745141523491121746
236127,21,33,4,-8192,-599,-648,1745141523491121746
236319,11,36,3,-8164,-617,-653,1745141523491121746
236511,-1,38,2,-8116,-627,-620,1745141523491121746
236703,-12,35,2,-8102,-622,-590,1745141523491121746
236895,-20,31,0,-8128,-605,-584,1745141523491121746
237087,-29,30,-3,-8193,-608,-600,1745141523491121746
237279,-34,30,-6,-8223,-572,-585,1745141523491121746
237471,-31,32,-7,-8242,-550,-584,1745141523548270026
237663,-27,34,-9,-8223,-533,-587,1745141523548270026
237855,-22,37,-7,-8193,-550,-608,1745141523548270026
238047,-15,39,-5,-8165,-590,-617,1745141523548270026
238239,-9,40,-4,-8158,-602,-633,1745141523548270026
238431,-6,39,-3,-8171,-622,-620,1745141523548270026
238623,-6,39,-2,-8176,-634,-603,1745141523548270026
238815,-10,42,0,-8166,-666,-598,1745141523548270026
239007,-20,45,4,-8165,-653,-579,1745141523548270026
239199,-31,47,6,-8164,-634,-586,1745141523548270026
239391,-40,50,7,-8136,-615,-612,1745141523548270026
239583,-42,55,9,-8128,-538,-625,1745141523548270026
239775,-37,58,10,-8099,-482,-649,1745141523606609857
239967,-23,59,9,-8060,-437,-657,1745141523606609857
240159,-6,59,6,-8053,-394,-643,1745141523606609857
240351,12,58,1,-8057,-357,-649,1745141523606609857
240543,28,59,-4,-8039,-358,-615,1745141523606609857
240735,40,61,-10,-8028,-387,-645,1745141523606609857
240927,48,62,-15,-7996,-429,-652,1745141523606609857
241119,52,61,-19,-8014,-508,-671,1745141523606609857
241311,51,59,-23,-8002,-546,-694,1745141523606609857
241503,44,60,-26,-8013,-578,-713,1745141523606609857
241695,37,62,-25,-8026,-566,-715,1745141523606609857
241887,35,61,-23,-8029,-514,-721,1745141523606609857
242079,39,59,-21,-8033,-483,-741,1745141523664862294
242271,48,55,-22,-8029,-472,-731,1745141523664862294
242463,58,51,-22,-8010,-550,-732,1745141523664862294
242655,67,47,-22,-8032,-633,-741,1745141523664862294
242847,69,45,-22,-8012,-725,-714,1745141523664862294
243039,58,44,-21,-8020,-793,-716,1745141523664862294
243231,40,44,-17,-8021,-832,-710,1745141523664862294
243423,18,43,-12,-8037,-864,-719,1745141523664862294
243615,-4,42,-7,-8053,-821,-717,1745141523664862294
243807,-23,41,-6,-8081,-817,-716,1745141523664862294
243999,-36,37,-4,-8123,-763,-704,1745141523664862294
244191,-43,36,-3,-8156,-725,-724,1745141523664862294
244383,-47,36,-3,-8141,-714,-737,1745141523723411238
244575,-48,35,-3,-8145,-706,-740,1745141523723411238
244767,-47,35,-5,-8145,-685,-730,1745141523723411238
244959,-49,35,-6,-8143,-680,-708,1745141523723411238
245151,-48,37,-7,-8159,-653,-715,1745141523723411238
245343,-42,39,-6,-8179,-614,-706,1745141523723411238
245535,-32,44,-2,-8171,-614,-727,1745141523723411238
245727,-21,49,2,-8134,-594,-740,1745141523723411238
245919,-15,51,2,-8121,-560,-750,1745141523723411238
246111,-12,49,-6,-8100,-555,-717,1745141523723411238
246303,-2,52,-10,-8100,-580,-705,1745141523723411238
246495,8,55,-10,-8113,-578,-695,1745141523723411238
246687,14,55,-9,-8106,-581,-695,1745141523783557095
246879,19,55,-9,-8116,-599,-682,1745141523783557095
247071,25,56,-11,-8104,-620,-663,1745141523783557095
247263,29,59,-13,-8097,-591,-678,1745141523783557095
247455,27,60,-13,-8094,-584,-669,1745141523783557095
247647,25,62,-12,-8079,-588,-675,1745141523783557095
247839,23,65,-10,-8061,-535,-655,1745141523783557095
248031,22,68,-10,-8045,-571,-669,1745141523783557095
248223,23,70,-11,-8026,-561,-671,1745141523783557095
248415,23,70,-13,-8034,-577,-680,1745141523783557095
248607,21,71,-15,-8051,-572,-694,1745141523783557095
248799,16,72,-16,-8066,-557,-682,1745141523783557095
248991,12,75,-16,-8081,-545,-675,1745141523840515689
249183,11,78,-17,-8089,-498,-672,1745141523840515689
249375,11,79,-20,-8082,-504,-666,1745141523840515689
249567,13,79,-24,-8051,-495,-677,1745141523840515689
249759,19,80,-27,-8024,-459,-661,1745141523840515689
249951,26,83,-29,-8001,-430,-683,1745141523840515689
250143,35,85,-32,-7973,-429,-712,1745141523840515689
250335,45,87,-36,-7972,-400,-683,1745141523840515689
250527,56,85,-41,-7973,-383,-677,1745141523840515689
250719,64,83,-45,-8014,-364,-635,1745141523840515689
250911,69,85,-49,-8076,-399,-618,1745141523840515689
251103,73,90,-53,-8060,-451,-604,1745141523840515689
251295,75,95,-56,-8069,-464,-592,1745141523900421913
251487,73,101,-57,-8039,-470,-604,1745141523900421913
251679,68,105,-59,-7992,-500,-620,1745141523900421913
251871,66,107,-60,-7956,-477,-580,1745141523900421913
252063,69,106,-64,-7934,-468,-549,1745141523900421913
252255,71,105,-70,-7930,-439,-504,1745141523900421913
252447,72,105,-76,-7912,-433,-443,1745141523900421913
252639,68,106,-81,-7902,-414,-404,1745141523900421913
252831,61,108,-84,-7877,-417,-332,1745141523900421913
253023,51,110,-89,-7860,-420,-231,1745141523900421913
253215,39,111,-94,-7849,-441,-140,1745141523900421913
253407,18,115,-98,-7856,-429,-11,1745141523900421913
253599,-7,119,-103,-7842,-414,140,1745141523954496159
253791,-40,126,-108,-7827,-350,335,1745141523954496159
253983,-77,137,-114,-7790,-279,539,1745141523954496159
254175,-117,150,-122,-7754,-175,763,1745141523954496159
254367,-160,166,-132,-7672,-66,983,1745141523954496159
254559,-204,186,-144,-7566,17,1206,1745141523954496159
254751,-246,210,-158,-7467,115,1472,1745141523954496159
254943,-289,235,-175,-7361,266,1768,1745141523954496159
255135,-334,262,-197,-7268,433,2096,1745141523954496159
255327,-381,293,-223,-7246,560,2381,1745141523954496159
255519,-426,334,-250,-7226,673,2576,1745141523954496159
255711,-467,390,-278,-7195,744,2595,1745141523954496159
255903,-500,457,-306,-7107,767,2474,1745141524014343424
256095,-514,523,-335,-7014,728,2345,1745141524014343424
256287,-505,578,-361,-6938,757,2256,1745141524014343424
256479,-482,629,-385,-6895,875,2179,1745141524014343424
256671,-461,684,-411,-6875,988,2148,1745141524014343424
256863,-436,736,-438,-6843,1086,2166,1745141524014343424
257055,-403,781,-464,-6784,1166,2263,1745141524014343424
257247,-372,821,-489,-6725,1217,2386,1745141524014343424
257439,-351,864,-513,-6672,1223,2537,1745141524014343424
257631,-345,914,-539,-6577,1191,2682,1745141524014343424
257823,-352,973,-568,-6453,1140,2813,1745141524014343424
258015,-374,1040,-600,-6263,1104,2994,1745141524014343424
258207,-415,1112,-633,-6031,1121,3219,1745141524075772707
258399,-473,1187,-665,-5783,1145,3465,1745141524075772707
258591,-546,1265,-699,-5553,1165,3668,1745141524075772707
258783,-625,1357,-733,-5316,1210,3747,1745141524075772707
258975,-704,1460,-765,-5029,1267,3791,1745141524075772707
259167,-774,1571,-799,-4718,1290,3770,1745141524075772707
259359,-833,1684,-829,-4397,1377,3752,1745141524075772707
259551,-881,1792,-860,-4093,1428,3709,1745141524075772707
259743,-917,1894,-896,-3835,1413,3655,1745141524075772707
259935,-942,1992,-937,-3705,1412,3617,1745141524075772707
260127,-953,2090,-979,-3681,1395,3553,1745141524075772707
260319,-959,2199,-1020,-3712,1449,3504,1745141524075772707
260511,-966,2325,-1058,-3718,1479,3429,1745141524133158016
260703,-977,2459,-1096,-3649,1588,3302,1745141524133158016
260895,-991,2597,-1132,-3511,1705,3162,1745141524133158016
261087,-1005,2733,-1164,-3323,1812,3045,1745141524133158016
261279,-1021,2863,-1195,-3090,1905,2976,1745141524133158016
261471,-1038,2989,-1227,-2820,1978,2895,1745141524133158016
261663,-1060,3108,-1261,-2564,2033,2850,1745141524133158016
261855,-1085,3224,-1295,-2312,2046,2833,1745141524133158016
262047,-1113,3339,-1326,-2062,2064,2809,1745141524133158016
262239,-1144,3455,-1356,-1837,2006,2648,1745141524133158016
262431,-1185,3573,-1387,-1603,1909,2339,1745141524133158016
262623,-1227,3688,-1416,-1355,1791,1923,1745141524133158016
262815,-1268,3799,-1442,-1134,1715,1450,1745141524189537553
263007,-1304,3908,-1468,-956,1752,1019,1745141524189537553
263199,-1333,4012,-1495,-789,1795,661,1745141524189537553
263391,-1354,4110,-1518,-591,1821,199,1745141524189537553
263583,-1364,4199,-1538,-398,1794,-241,1745141524189537553
263775,-1363,4277,-1557,-254,1776,-804,1745141524189537553
263967,-1349,4344,-1577,-202,1838,-1494,1745141524189537553
264159,-1308,4399,-1602,-228,1870,-2097,1745141524189537553
264351,-1231,4444,-1643,-238,1917,-2575,1745141524189537553
264543,-1119,4474,-1694,-228,2047,-2968,1745141524189537553
264735,-997,4499,-1729,-222,2188,-3337,1745141524189537553
264927,-891,4527,-1724,-56,2125,-3839,1745141524189537553
265119,-802,4544,-1712,290,1982,-4340,1745141524251116991
265311,-723,4536,-1702,715,1776,-4748,1745141524251116991
265503,-662,4509,-1696,1138,1583,-5265,1745141524251116991
265695,-618,4464,-1700,1496,1472,-5919,1745141524251116991
265887,-581,4406,-1710,1731,1342,-6461,1745141524251116991
266079,-540,4333,-1726,1858,1091,-7102,1745141524251116991
266271,-498,4248,-1732,1948,752,-7778,1745141524251116991
266463,-478,4157,-1729,1994,281,-8538,1745141524251116991
266655,-500,4063,-1725,2008,-102,-9449,1745141524251116991
266847,-555,3974,-1724,1916,-438,-10346,1745141524251116991
267039,-615,3887,-1722,1847,-782,-11027,1745141524251116991
267231,-658,3795,-1718,1883,-1087,-11615,1745141524251116991
267423,-692,3701,-1712,1969,-1400,-12064,1745141524308315999
267615,-740,3609,-1707,2154,-1748,-12466,1745141524308315999
267807,-791,3512,-1702,2374,-1939,-12752,1745141524308315999
267999,-878,3410,-1703,2535,-2252,-13296,1745141524308315999
268191,-990,3306,-1695,2573,-2209,-13386,1745141524308315999
268383,-1074,3210,-1688,2613,-2176,-13607,1745141524308315999
268575,-1124,3102,-1694,2672,-2061,-13878,1745141524308315999
268767,-1165,2997,-1704,2757,-1885,-14309,1745141524308315999
268959,-1174,2893,-1705,2828,-1758,-14731,1745141524308315999
269151,-1132,2786,-1689,2972,-1744,-15051,1745141524308315999
269343,-1047,2673,-1661,3147,-1814,-15330,1745141524308315999
269535,-942,2564,-1626,3267,-1851,-15609,1745141524308315999
269727,-825,2462,-1592,3322,-1855,-15816,1745141524368058006
269919,-691,2364,-1555,3425,-1831,-15925,1745141524368058006
270111,-541,2259,-1509,3581,-1998,-15913,1745141524368058006
270303,-400,2144,-1462,3745,-2270,-15947,1745141524368058006
270495,-289,2026,-1412,3929,-2684,-15863,1745141524368058006
270687,-223,1897,-1368,4081,-3116,-15775,1745141524368058006
270879,-192,1769,-1326,4065,-3481,-15661,1745141524368058006
271071,-195,1650,-1276,3959,-3766,-15656,1745141524368058006
271263,-236,1550,-1208,3909,-4071,-15635,1745141524368058006
271455,-306,1462,-1128,3867,-4473,-15316,1745141524368058006
271647,-409,1342,-1082,3869,-4695,-15123,1745141524368058006
271839,-540,1234,-1039,3768,-4782,-14783,1745141524368058006
272031,-683,1139,-1015,3595,-4795,-14555,1745141524424913111
272223,-809,1056,-999,3411,-4643,-14415,1745141524424913111
272415,-902,979,-973,3248,-4441,-14258,1745141524424913111
272607,-960,908,-934,3282,-4264,-14115,1745141524424913111
272799,-992,825,-887,3421,-4062,-13897,1745141524424913111
272991,-1011,736,-854,3477,-3855,-13717,1745141524424913111
273183,-1009,663,-826,3491,-3643,-13681,1745141524424913111
273375,-975,624,-786,3428,-3397,-13466,1745141524424913111
273567,-906,584,-736,3371,-3256,-13146,1745141524424913111
273759,-813,529,-688,3357,-3196,-12656,1745141524424913111
273951,-720,449,-643,3411,-3164,-12482,1745141524424913111
274143,-637,393,-602,3290,-3083,-12180,1745141524424913111
274335,-559,344,-558,3109,-2983,-11955,1745141524484785377
274527,-480,301,-506,2987,-2940,-11786,1745141524484785377
274719,-411,256,-460,2908,-2967,-11662,1745141524484785377
274911,-362,211,-423,2831,-3041,-11496,1745141524484785377
275103,-333,174,-383,2721,-3141,-11292,1745141524484785377
275295,-317,148,-332,2610,-3160,-11064,1745141524484785377
275487,-312,129,-277,2508,-3188,-10848,1745141524484785377
275679,-323,110,-237,2451,-3138,-10610,1745141524484785377
275871,-344,87,-207,2354,-3078,-10352,1745141524484785377
276063,-368,72,-180,2248,-2930,-10109,1745141524484785377
276255,-391,63,-151,2164,-2725,-9894,1745141524484785377
276447,-414,56,-127,2146,-2527,-9717,1745141524484785377
276639,-437,47,-112,2159,-2386,-9515,1745141524541861105
276831,-459,33,-96,2161,-2292,-9316,1745141524541861105
277023,-470,22,-76,2111,-2233,-9150,1745141524541861105
277215,-466,13,-57,2036,-2113,-8945,1745141524541861105
277407,-454,10,-46,1956,-1962,-8750,1745141524541861105
277599,-444,12,-48,1851,-1772,-8583,1745141524541861105
277791,-428,23,-61,1770,-1546,-8444,1745141524541861105
277983,-400,39,-83,1723,-1307,-8422,1745141524541861105
278175,-363,53,-88,1685,-1103,-8401,1745141524541861105
278367,-320,68,-74,1690,-997,-8397,1745141524541861105
278559,-272,82,-51,1691,-962,-8386,1745141524541861105
278751,-225,98,-28,1664,-987,-8369,1745141524541861105
278943,-180,117,-10,1630,-1045,-8321,1745141524601890297
279135,-143,138,4,1569,-1092,-8253,1745141524601890297
279327,-113,162,18,1562,-1172,-8137,1745141524601890297
279519,-90,183,25,1589,-1177,-7978,1745141524601890297
279711,-71,201,29,1614,-1152,-7884,1745141524601890297
279903,-51,207,23,1634,-1043,-7879,1745141524601890297
280095,-17,203,17,1660,-906,-7916,1745141524601890297
280287,33,194,30,1693,-790,-7915,1745141524601890297
280479,85,173,55,1747,-768,-7862,1745141524601890297
280671,129,162,75,1700,-881,-7660,1745141524601890297
280863,158,158,79,1708,-1008,-7769,1745141524601890297
281055,169,131,75,1892,-1114,-7915,1745141524601890297
281247,135,76,58,2011,-1097,-7985,1745141524659093524
281439,38,4,43,2143,-1186,-8505,1745141524659093524
281631,-136,-92,29,2254,-1297,-9298,1745141524659093524
281823,-302,-185,33,2061,-1110,-9523,1745141524659093524
282015,-369,-241,54,1529,-522,-9477,1745141524659093524
282207,-333,-250,68,1013,256,-9453,1745141524659093524
282399,-249,-235,68,779,608,-9450,1745141524659093524
282591,-153,-222,53,754,635,-9315,1745141524659093524
282783,-70,-215,56,842,425,-9126,1745141524659093524
282975,-5,-212,74,896,156,-8952,1745141524659093524
283167,23,-212,88,905,24,-8717,1745141524659093524
283359,15,-220,95,906,-87,-8469,1745141524659093524
283551,-4,-239,93,874,-226,-8206,1745141524718883759
283743,-23,-256,91,818,-378,-7983,1745141524718883759
283935,-41,-264,97,796,-517,-7768,1745141524718883759
284127,-65,-269,103,807,-700,-7625,1745141524718883759
284319,-92,-271,110,794,-828,-7511,1745141524718883759
284511,-118,-273,117,839,-904,-7459,1745141524718883759
284703,-140,-274,120,824,-910,-7484,1745141524718883759
284895,-158,-272,118,815,-825,-7549,1745141524718883759
285087,-172,-270,115,852,-738,-7622,1745141524718883759
285279,-177,-272,113,894,-626,-7745,1745141524718883759
285471,-172,-276,113,972,-517,-7877,1745141524718883759
285663,-156,-282,119,1050,-434,-8012,1745141524718883759
285855,-142,-292,128,1115,-361,-8156,1745141524775853551
286047,-123,-301,142,1146,-239,-8249,1745141524775853551
286239,-102,-307,154,1135,-155,-8356,1745141524775853551
286431,-78,-309,161,1135,-115,-8455,1745141524775853551
286623,-58,-310,161,1137,-73,-8528,1745141524775853551
286815,-39,-310,154,1107,-147,-8602,1745141524775853551
287007,-22,-306,147,1073,-246,-8677,1745141524775853551
287199,-4,-299,143,1088,-348,-8715,1745141524775853551
287391,3,-288,139,1095,-471,-8722,1745141524775853551
287583,1,-278,132,1099,-641,-8723,1745141524775853551
287775,-6,-272,126,1116,-779,-8669,1745141524775853551
287967,-15,-266,122,1108,-892,-8577,1745141524775853551
288159,-29,-259,116,1076,-988,-8496,1745141524835659828
288351,-48,-249,110,1023,-1037,-8415,1745141524835659828
288543,-70,-238,100,945,-1062,-8333,1745141524835659828
288735,-89,-228,87,901,-1027,-8232,1745141524835659828
288927,-105,-218,74,858,-1004,-8171,1745141524835659828
289119,-117,-207,62,840,-922,-8118,1745141524835659828
289311,-126,-194,47,829,-786,-8101,1745141524835659828
289503,-125,-183,32,799,-557,-8096,1745141524835659828
289695,-114,-171,20,796,-335,-8096,1745141524835659828
289887,-97,-161,12,798,-181,-8151,1745141524835659828
290079,-77,-157,9,795,-72,-8196,1745141524835659828
290271,-53,-156,11,817,-96,-8243,1745141524835659828
290463,-31,-154,12,753,-146,-8249,1745141524893454300
290655,-18,-148,11,704,-225,-8313,1745141524893454300
290847,-4,-139,17,662,-312,-8316,1745141524893454300
291039,10,-135,23,648,-388,-8321,1745141524893454300
291231,20,-128,24,631,-464,-8326,1745141524893454300
291423,19,-122,16,614,-500,-8292,1745141524893454300
291615,12,-114,9,620,-526,-8232,1745141524893454300
291807,2,-108,5,622,-556,-8173,1745141524893454300
291999,-7,-97,-1,592,-556,-8147,1745141524893454300
292191,-12,-87,-7,584,-514,-8132,1745141524893454300
292383,-13,-82,-8,617,-464,-8132,1745141524893454300
292575,-10,-79,-11,659,-445,-8120,1745141524893454300
292767,-6,-76,-20,679,-386,-8141,1745141524956302997
292959,4,-69,-30,643,-310,-8144,1745141524956302997
293151,20,-64,-28,649,-258,-8142,1745141524956302997
293343,36,-62,-24,676,-300,-8158,1745141524956302997
293535,45,-64,-32,684,-404,-8164,1745141524956302997
293727,46,-65,-47,643,-481,-8172,1745141524956302997
293919,42,-63,-49,610,-508,-8160,1745141524956302997
294111,35,-59,-35,612,-533,-8144,1745141524956302997
294303,25,-59,-18,658,-513,-8133,1745141524956302997
294495,14,-61,-9,660,-523,-8114,1745141524956302997
294687,2,-62,-11,579,-546,-8128,1745141524956302997
294879,-6,-55,-23,519,-552,-8118,1745141524956302997
295071,-15,-51,-30,517,-510,-8128,1745141525009459959
295263,-20,-42,-27,550,-451,-8122,1745141525009459959
295455,-26,-38,-19,623,-383,-8111,1745141525009459959
295647,-27,-39,-12,713,-342,-8115,1745141525009459959
295839,-25,-44,-14,701,-333,-8130,1745141525009459959
296031,-19,-48,-13,685,-314,-8120,1745141525009459959
296223,-9,-49,-8,669,-318,-8104,1745141525009459959
296415,2,-50,-5,640,-346,-8082,1745141525009459959
296607,10,-48,-3,639,-372,-8051,1745141525009459959
296799,14,-47,-3,640,-376,-8027,1745141525009459959
296991,17,-47,-2,642,-358,-8001,1745141525009459959
297183,19,-46,0,659,-361,-8033,1745141525009459959
297375,21,-48,2,666,-380,-8042,1745141525068999623
297567,24,-49,2,638,-425,-8077,1745141525068999623
297759,24,-49,3,619,-460,-8105,1745141525068999623
297951,21,-49,5,598,-499,-8127,1745141525068999623
298143,14,-48,9,569,-534,-8148,1745141525068999623
298335,4,-46,14,568,-553,-8174,1745141525068999623
298527,-5,-44,19,553,-543,-8148,1745141525068999623
298719,-9,-44,22,541,-518,-8122,1745141525068999623
298911,-12,-43,24,550,-479,-8100,1745141525068999623
299103,-15,-43,22,560,-441,-8089,1745141525068999623
299295,-18,-44,21,567,-406,-8084,1745141525068999623
299487,-19,-44,24,563,-377,-8089,1745141525068999623
299679,-16,-43,26,593,-372,-8092,1745141525125861708
299871,-13,-43,25,587,-365,-8102,1745141525125861708
300063,-12,-40,24,592,-380,-8128,1745141525125861708
300255,-8,-38,23,580,-383,-8137,1745141525125861708
300447,-4,-36,24,582,-396,-8143,1745141525125861708
300639,0,-36,28,588,-413,-8150,1745141525125861708
300831,2,-35,34,582,-411,-8141,1745141525125861708
301023,6,-34,40,588,-433,-8141,1745141525125861708
301215,6,-34,42,566,-455,-8153,1745141525125861708
301407,6,-34,44,547,-460,-8113,1745141525125861708
301599,6,-35,46,523,-464,-8083,1745141525125861708
301791,5,-35,46,525,-490,-8052,1745141525125861708
301983,0,-36,45,537,-505,-8040,1745141525185719234
302175,-8,-36,43,536,-492,-8027,1745141525185719234
302367,-15,-34,42,530,-468,-8045,1745141525185719234
302559,-21,-32,44,513,-427,-8081,1745141525185719234
302751,-23,-29,45,520,-392,-8132,1745141525185719234
302943,-21,-25,45,543,-366,-8163,1745141525185719234
303135,-17,-23,43,547,-370,-8192,1745141525185719234
303327,-7,-22,44,546,-379,-8195,1745141525185719234
303519,1,-21,46,547,-406,-8191,1745141525185719234
303711,5,-19,49,527,-431,-8170,1745141525185719234
303903,6,-17,50,524,-416,-8137,1745141525185719234
304095,9,-12,48,506,-396,-8126,1745141525185719234
304287,14,-8,47,532,-414,-8099,1745141525244254585
304479,20,-7,45,536,-432,-8093,1745141525244254585
304671,23,-6,42,545,-474,-8110,1745141525244254585
304863,25,-6,39,526,-495,-8107,1745141525244254585
305055,25,-4,38,498,-533,-8102,1745141525244254585
305247,23,-2,36,487,-570,-8111,1745141525244254585
305439,17,-1,33,485,-608,-8105,1745141525244254585
305631,7,0,33,473,-620,-8100,1745141525244254585
305823,-3,3,31,469,-624,-8099,1745141525244254585
306015,-11,9,31,486,-578,-8123,1745141525244254585
306207,-18,15,29,510,-526,-8128,1745141525244254585
306399,-20,20,25,533,-456,-8154,1745141525244254585
306591,-17,23,22,557,-424,-8147,1745141525303024517
306783,-11,26,20,589,-394,-8149,1745141525303024517
306975,-6,28,21,600,-364,-8146,1745141525303024517
307167,-1,29,23,583,-343,-8112,1745141525303024517
307359,7,31,26,567,-320,-8094,1745141525303024517
307551,14,31,28,558,-333,-8066,1745141525303024517
307743,17,31,27,564,-370,-8070,1745141525303024517
307935,18,29,26,524,-421,-8084,1745141525303024517
308127,23,29,27,512,-454,-8078,1745141525303024517
308319,25,30,29,489,-490,-8091,1745141525303024517
308511,22,29,27,490,-531,-8100,1745141525303024517
308703,17,29,23,477,-579,-8110,1745141525303024517
308895,12,31,19,488,-579,-8111,1745141525360931748
309087,7,31,16,519,-590,-8104,1745141525360931748
309279,2,31,12,528,-587,-8107,1745141525360931748
309471,-2,29,8,541,-565,-8093,1745141525360931748
309663,-4,29,8,544,-526,-8082,1745141525360931748
309855,-5,30,8,540,-490,-8071,1745141525360931748
310047,-5,31,5,559,-478,-8092,1745141525360931748
310239,-4,31,3,568,-454,-8084,1745141525360931748
310431,-2,30,2,577,-420,-8078,1745141525360931748
310623,0,31,0,583,-413,-8086,1745141525360931748
310815,2,30,0,608,-413,-8096,1745141525360931748
311007,6,27,0,589,-418,-8080,1745141525360931748
311199,10,27,-2,600,-438,-8081,1745141525419843293
311391,13,28,-2,583,-440,-8102,1745141525419843293
311583,15,30,-4,575,-453,-8106,1745141525419843293
311775,17,31,-5,586,-469,-8124,1745141525419843293
311967,17,31,-8,590,-490,-8125,1745141525419843293
312159,15,31,-10,576,-531,-8130,1745141525419843293
312351,13,30,-11,568,-557,-8112,1745141525419843293
312543,11,29,-11,555,-550,-8107,1745141525419843293
312735,8,30,-12,532,-566,-8094,1745141525419843293
312927,4,30,-12,545,-555,-8093,1745141525419843293
313119,-2,30,-13,562,-542,-8098,1745141525419843293
313311,-7,28,-12,573,-543,-8075,1745141525419843293
313503,-10,26,-10,574,-493,-8048,1745141525478412290
313695,-10,25,-8,572,-440,-8038,1745141525478412290
313887,-7,25,-8,559,-403,-8042,1745141525478412290
314079,-3,24,-8,568,-403,-8053,1745141525478412290
314271,-1,23,-11,603,-430,-8071,1745141525478412290
314463,1,22,-13,580,-451,-8110,1745141525478412290
314655,2,22,-13,558,-467,-8137,1745141525478412290
314847,6,21,-13,546,-479,-8145,1745141525478412290
315039,7,21,-13,554,-490,-8140,1745141525478412290
315231,8,20,-14,551,-529,-8096,1745141525478412290
315423,8,18,-16,570,-560,-8080,1745141525478412290
315615,4,17,-15,558,-537,-8054,1745141525478412290
315807,0,16,-14,557,-540,-8061,1745141525536428270
315999,-3,15,-14,556,-516,-8029,1745141525536428270
316191,-5,13,-17,565,-510,-8030,1745141525536428270
316383,-6,12,-20,596,-499,-8027,1745141525536428270
316575,-8,10,-22,622,-485,-8048,1745141525536428270
316767,-9,10,-22,627,-476,-8069,1745141525536428270
316959,-8,9,-20,625,-459,-8061,1745141525536428270
317151,-6,7,-19,624,-450,-8070,1745141525536428270
317343,-4,5,-18,618,-451,-8089,1745141525536428270
317535,-2,5,-18,603,-461,-8091,1745141525536428270
317727,0,4,-20,591,-468,-8121,1745141525536428270
317919,3,5,-21,591,-482,-8107,1745141525536428270
318111,3,4,-23,590,-509,-8102,1745141525595085651
318303,0,3,-24,607,-539,-8101,1745141525595085651
318495,-3,2,-23,590,-518,-8064,1745141525595085651
318687,-4,2,-23,572,-530,-8070,1745141525595085651
318879,-3,2,-25,577,-510,-8079,1745141525595085651
319071,-2,0,-28,577,-518,-8095,1745141525595085651
319263,-3,-1,-30,581,-528,-8079,1745141525595085651
319455,-5,0,-30,589,-506,-8089,1745141525595085651
319647,-7,1,-30,584,-485,-8078,1745141525595085651
319839,-7,1,-31,586,-462,-8084,1745141525595085651
320031,-5,1,-32,589,-443,-8086,1745141525595085651
320223,-1,0,-34,600,-458,-8084,1745141525595085651
320415,0,0,-36,591,-456,-8093,1745141525653389077
320607,1,1,-35,574,-466,-8093,1745141525653389077
320799,1,2,-35,574,-473,-8093,1745141525653389077
320991,1,2,-34,575,-482,-8088,1745141525653389077
321183,3,2,-35,584,-509,-8089,1745141525653389077
321375,3,2,-36,576,-516,-8096,1745141525653389077
321567,1,3,-37,582,-507,-8094,1745141525653389077
321759,0,4,-38,572,-490,-8107,1745141525653389077
321951,0,5,-40,555,-490,-8107,1745141525653389077
322143,3,5,-41,548,-487,-8120,1745141525653389077
322335,6,6,-43,565,-510,-8106,1745141525653389077
322527,7,5,-44,574,-524,-8100,1745141525653389077
322719,5,7,-45,593,-528,-8083,1745141525711996875
322911,1,9,-46,593,-527,-8087,1745141525711996875
323103,-2,10,-45,581,-517,-8093,1745141525711996875
323295,-3,10,-43,583,-503,-8088,1745141525711996875
323487,-5,11,-42,595,-480,-8111,1745141525711996875
323679,-6,11,-43,585,-455,-8118,1745141525711996875
323871,-5,13,-43,572,-436,-8117,1745141525711996875
324063,-2,13,-42,573,-396,-8093,1745141525711996875
324255,1,11,-41,578,-417,-8083,1745141525711996875
324447,5,10,-40,567,-447,-8072,1745141525711996875
324639,6,9,-40,573,-458,-8060,1745141525711996875
324831,7,7,-41,576,-487,-8066,1745141525711996875
325023,8,6,-41,579,-530,-8080,1745141525770018793
325215,8,6,-42,576,-545,-8075,1745141525770018793
325407,4,5,-41,576,-545,-8020,1745141525770018793
325599,0,5,-38,568,-510,-8058,1745141525770018793
325791,-16,1,-36,649,-660,-8099,1745141525770018793
325983,-39,-7,-39,709,-722,-8097,1745141525770018793
326175,-54,-9,-39,607,-621,-8083,1745141525770018793
326367,-57,-3,-37,489,-440,-8072,1745141525770018793
326559,-51,2,-34,504,-382,-8061,1745141525770018793
326751,-43,0,-41,613,-398,-8050,1745141525770018793
326943,-38,-8,-48,678,-471,-7949,1745141525770018793
327135,-29,-46,-53,645,-491,-7751,1745141525770018793
327327,-10,-124,-62,647,-460,-7852,1745141525828877682
327519,20,-167,-69,816,-191,-8561,1745141525828877682
327711,-3,-69,-35,650,-416,-8168,1745141525828877682
327903,-16,-27,-24,603,-345,-8009,1745141525828877682
328095,5,-45,-3,574,-215,-7957,1745141525828877682
328287,26,-64,34,470,-277,-7934,1745141525828877682
328479,37,-83,65,238,-289,-7920,1745141525828877682
328671,54,-87,95,353,-883,-8062,1745141525828877682
328863,71,-47,29,459,-655,-8205,1745141525828877682
329055,46,-16,0,445,-481,-7863,1745141525828877682
329247,43,-43,46,749,-204,-8239,1745141525828877682
329439,-10,-27,33,829,-293,-7972,1745141525828877682
329631,25,-38,1,782,-258,-7967,1745141525888105005
329823,42,-53,0,621,-291,-7984,1745141525888105005
330015,58,-56,5,509,-369,-8026,1745141525888105005
330207,70,-60,9,507,-415,-8035,1745141525888105005
330399,75,-60,11,509,-426,-8055,1745141525888105005
330591,75,-55,13,487,-490,-8054,1745141525888105005
330783,77,-49,12,496,-522,-8073,1745141525888105005
330975,84,-47,11,523,-484,-8057,1745141525888105005
331167,94,-48,13,554,-385,-8041,1745141525888105005
331359,102,-48,16,543,-452,-8055,1745141525888105005
331551,93,-41,15,398,-701,-8073,1745141525888105005
331743,72,-28,9,295,-840,-8088,1745141525888105005
332511,43,28,-3,496,-592,-8292,1745141528302939352
424863,110,-85,-1,410,317,-8067,1745141528302939352
425055,231,-174,9,306,-668,-8546,1745141528302939352
425247,-55,0,-6,259,-334,-8176,1745141528302939352
425439,-51,-23,8,187,-255,-8218,1745141528302939352
425631,-81,16,16,263,-239,-8291,1745141528302939352
425823,-89,13,7,363,-248,-8288,1745141528302939352
426015,-112,6,1,409,-450,-8316,1745141528302939352
426207,-153,25,-1,396,-587,-8299,1745141528302939352
426399,-179,14,-1,419,-456,-8244,1745141528302939352
426591,-200,9,3,481,-128,-8142,1745141528302939352
426783,-196,9,8,501,123,-8073,1745141528302939352
426975,-182,-6,8,480,142,-8051,1745141528361245747
427167,-177,-3,2,340,32,-8084,1745141528361245747
427359,-169,9,-3,139,-66,-8233,1745141528361245747
427551,-164,21,-10,134,-82,-8431,1745141528361245747
427743,-153,39,-18,209,99,-8655,1745141528361245747
427935,-121,53,-20,310,458,-8859,1745141528361245747
428127,-62,62,-11,559,872,-8932,1745141528361245747
428319,19,77,1,727,1107,-9008,1745141528361245747
428511,104,88,11,638,1331,-8974,1745141528361245747
428703,169,96,29,812,858,-7822,1745141528361245747
428895,149,92,22,164,1287,-9877,1745141528361245747
429087,332,93,63,548,441,-7690,1745141528361245747
429279,366,121,35,281,39,-8349,1745141528416414826
429471,361,240,125,460,409,-10045,1745141528416414826
429663,268,580,263,-224,-1902,-5133,1745141528416414826
429855,-31,234,14,393,-3922,-6978,1745141528416414826
430047,-167,149,-67,83,-3223,-7477,1745141528416414826
430239,-301,160,-85,37,-1874,-7162,1745141528416414826
430431,-321,189,-120,126,-203,-7501,1745141528416414826
430623,-276,184,-127,522,850,-7725,1745141528416414826
430815,-209,128,-140,865,1202,-7882,1745141528416414826
431007,-118,93,-132,1014,1070,-8076,1745141528416414826
431199,-40,50,-99,924,756,-8179,1745141528416414826
431391,12,27,-71,628,523,-8248,1745141528416414826
431583,28,20,-60,326,319,-8228,1745141528478456030
431775,32,23,-63,216,115,-8173,1745141528478456030
431967,30,37,-69,299,-111,-8102,1745141528478456030
432159,20,43,-65,473,-231,-8077,1745141528478456030
432351,8,42,-57,593,-285,-8065,1745141528478456030
432543,-3,40,-50,622,-273,-8068,1745141528478456030
432735,-9,34,-52,585,-238,-8116,1745141528478456030
432927,-12,30,-63,544,-232,-8156,1745141528478456030
433119,-15,30,-72,533,-220,-8166,1745141528478456030
433311,-19,28,-77,576,-207,-8161,1745141528478456030
433503,-26,26,-79,582,-203,-8144,1745141528478456030
433695,-35,23,-80,597,-167,-8093,1745141528478456030
433887,-43,19,-81,586,-114,-8062,1745141528535281709
434079,-49,16,-81,582,-57,-8010,1745141528535281709
434271,-49,11,-80,586,9,-7964,1745141528535281709
434463,-45,4,-78,605,34,-7948,1745141528535281709
434655,-42,-3,-78,611,39,-7941,1745141528535281709
434847,-37,-12,-77,595,33,-7931,1745141528535281709
435039,-34,-20,-78,557,27,-7939,1745141528535281709
435231,-31,-27,-79,516,23,-7942,1745141528535281709
435423,-29,-35,-79,466,8,-7959,1745141528535281709
435615,-25,-43,-78,442,-14,-7959,1745141528535281709
435807,-24,-48,-76,407,-20,-7986,1745141528535281709
435999,-23,-51,-73,397,-15,-8022,1745141528535281709
436191,-25,-54,-71,390,-29,-8038,1745141528593354824
436383,-29,-60,-67,377,-24,-8041,1745141528593354824
436575,-34,-62,-64,384,-38,-8027,1745141528593354824
436767,-42,-65,-59,410,-36,-8023,1745141528593354824
436959,-50,-68,-56,411,-37,-8010,1745141528593354824
437151,-58,-72,-56,425,-24,-7995,1745141528593354824
437343,-65,-77,-56,455,-24,-7975,1745141528593354824
437535,-72,-80,-56,461,-27,-7980,1745141528593354824
437727,-78,-84,-55,451,-24,-8009,1745141528593354824
437919,-81,-86,-54,438,-1,-8033,1745141528593354824
438111,-81,-86,-55,426,21,-8058,1745141528593354824
438303,-79,-87,-54,433,32,-8102,1745141528593354824
438495,-77,-88,-53,404,32,-8145,1745141528650993100
438687,-77,-86,-54,393,45,-8155,1745141528650993100
438879,-72,-84,-53,385,40,-8173,1745141528650993100
439071,-66,-83,-53,387,33,-8159,1745141528650993100
439263,-64,-81,-52,392,49,-8133,1745141528650993100
439455,-62,-77,-51,394,34,-8150,1745141528650993100
439647,-60,-73,-52,374,48,-8149,1745141528650993100
439839,-58,-69,-53,382,73,-8141,1745141528650993100
440031,-54,-64,-54,366,88,-8166,1745141528650993100
440223,-51,-60,-57,390,86,-8167,1745141528650993100
440415,-49,-58,-60,385,67,-8176,1745141528650993100
440607,-46,-55,-63,384,53,-8185,1745141528650993100
440799,-43,-51,-64,359,30,-8168,1745141528711928116
440991,-42,-47,-64,362,16,-8170,1745141528711928116
441183,-43,-43,-65,369,14,-8164,1745141528711928116
441375,-43,-38,-68,350,9,-8146,1745141528711928116
441567,-44,-34,-70,358,11,-8144,1745141528711928116
441759,-42,-29,-74,364,42,-8147,1745141528711928116
441951,-37,-25,-77,355,54,-8132,1745141528711928116
442143,-31,-21,-79,359,73,-8118,1745141528711928116
442335,-27,-17,-82,355,63,-8135,1745141528711928116
442527,-24,-15,-83,354,55,-8141,1745141528711928116
442719,-19,-12,-82,354,65,-8145,1745141528711928116
442911,-14,-8,-82,327,64,-8162,1745141528711928116
443103,-10,-3,-81,314,56,-8159,1745141528770696850
443295,-9,0,-81,324,58,-8177,1745141528770696850
443487,-10,4,-81,328,63,-8180,1745141528770696850
443679,-9,6,-79,342,60,-8176,1745141528770696850
443871,-10,10,-76,348,72,-8176,1745141528770696850
444063,-10,11,-74,365,84,-8174,1745141528770696850
444255,-10,11,-74,371,102,-8145,1745141528770696850
444447,-7,13,-72,377,106,-8119,1745141528770696850
444639,-7,12,-70,376,114,-8098,1745141528770696850
444831,-10,12,-70,387,116,-8076,1745141528770696850
445023,-7,14,-65,401,88,-8076,1745141528770696850
445215,-6,12,-59,396,117,-8075,1745141528770696850
445407,-6,10,-55,397,130,-8085,1745141528828989599
445599,-5,10,-52,400,109,-8093,1745141528828989599
445791,-3,10,-49,385,92,-8105,1745141528828989599
445983,-1,10,-46,387,74,-8117,1745141528828989599
446175,-3,8,-41,402,55,-8112,1745141528828989599
446367,-5,7,-35,396,61,-8114,1745141528828989599
446559,-5,7,-29,386,94,-8124,1745141528828989599
446751,-3,6,-23,389,116,-8118,1745141528828989599
446943,-1,7,-20,409,137,-8130,1745141528828989599
447135,3,5,-17,406,140,-8129,1745141528828989599
447327,6,4,-13,403,124,-8149,1745141528828989599
447519,8,2,-8,381,132,-8141,1745141528828989599
447711,11,0,-5,372,125,-8127,1745141528887607970
447903,13,-1,-3,371,95,-8113,1745141528887607970
448095,12,0,1,376,76,-8110,1745141528887607970
448287,7,1,7,382,69,-8114,1745141528887607970
448479,3,1,12,391,71,-8105,1745141528887607970
448671,1,1,17,411,78,-8113,1745141528887607970
448863,-1,2,20,421,95,-8102,1745141528887607970
449055,-3,3,25,430,105,-8102,1745141528887607970
449247,-3,3,29,426,116,-8118,1745141528887607970
449439,0,3,35,421,121,-8120,1745141528887607970
449631,2,4,39,432,128,-8113,1745141528887607970
449823,4,3,40,438,92,-8127,1745141528887607970
450015,4,1,41,454,66,-8144,1745141528945255360
450207,2,0,42,437,46,-8140,1745141528945255360
450399,1,-1,45,397,-6,-8144,1745141528945255360
450591,-1,-1,47,390,-21,-8148,1745141528945255360
450783,-5,0,49,355,-16,-8133,1745141528945255360
450975,-11,2,50,370,-37,-8140,1745141528945255360
451167,-16,3,52,388,-33,-8126,1745141528945255360
451359,-23,3,53,398,-15,-8125,1745141528945255360
451551,-28,4,51,394,21,-8134,1745141528945255360
451743,-29,6,51,389,39,-8132,1745141528945255360
451935,-26,6,51,399,58,-8142,1745141528945255360
452127,-24,6,52,393,61,-8112,1745141528945255360
452319,-21,5,52,386,73,-8095,1745141529004435600
452511,-18,4,52,380,67,-8102,1745141529004435600
452703,-16,2,49,364,81,-8115,1745141529004435600
452895,-15,0,45,357,99,-8106,1745141529004435600
453087,-12,0,43,330,90,-8099,1745141529004435600
453279,-9,0,41,342,78,-8084,1745141529004435600
453471,-8,1,40,348,79,-8085,1745141529004435600
453663,-9,3,38,335,75,-8094,1745141529004435600
453855,-9,4,37,342,101,-8113,1745141529004435600
454047,-9,5,36,350,114,-8124,1745141529004435600
454239,-7,5,32,353,148,-8140,1745141529004435600
454431,-3,4,31,359,107,-8128,1745141529004435600
454623,7,2,33,391,17,-8149,1745141529062974649
454815,18,3,34,407,-27,-8157,1745141529062974649
455007,17,5,33,402,-59,-8165,1745141529062974649
455199,11,4,30,375,-65,-8168,1745141529062974649
455391,7,5,29,376,-71,-8156,1745141529062974649
455583,5,7,33,370,-51,-8130,1745141529062974649
455775,2,11,36,400,-6,-8107,1745141529062974649
455967,1,15,34,445,47,-8113,1745141529062974649
456159,0,16,32,446,100,-8118,1745141529062974649
456351,3,16,31,468,136,-8117,1745141529062974649
456543,8,17,30,465,149,-8131,1745141529062974649
456735,12,17,31,474,135,-8139,1745141529062974649
456927,16,16,33,453,108,-8139,1745141529120217199
457119,19,16,35,442,73,-8150,1745141529120217199
457311,20,14,35,410,49,-8136,1745141529120217199
457503,18,14,36,399,33,-8125,1745141529120217199
457695,15,13,37,389,6,-8104,1745141529120217199
457887,11,14,39,393,-14,-8091,1745141529120217199
458079,8,16,41,410,-24,-8075,1745141529120217199
458271,5,16,44,441,7,-8069,1745141529120217199
458463,3,14,44,455,14,-8075,1745141529120217199
458655,2,13,44,440,1,-8115,1745141529120217199
458847,2,13,45,423,-6,-8132,1745141529120217199
459039,2,14,47,393,0,-8165,1745141529120217199
459231,2,15,48,384,-11,-8187,1745141529179890820
459423,-1,16,49,370,-14,-8216,1745141529179890820
459615,-6,17,51,354,-19,-8227,1745141529179890820
459807,-11,17,53,341,-4,-8202,1745141529179890820
459999,-17,17,54,345,-12,-8145,1745141529179890820
460191,-22,18,56,334,15,-8105,1745141529179890820
460383,-27,19,57,345,38,-8066,1745141529179890820
460575,-30,19,58,358,65,-8022,1745141529179890820
460767,-29,18,59,385,101,-7999,1745141529179890820
460959,-27,17,58,401,118,-8010,1745141529179890820
461151,-26,14,55,385,118,-8028,1745141529179890820
461343,-23,9,52,388,88,-8049,1745141529179890820
461535,-18,6,52,386,63,-8070,1745141529238319037
461727,-14,3,51,371,10,-8093,1745141529238319037
461919,-13,1,50,347,-5,-8095,1745141529238319037
462111,-15,-1,48,326,-49,-8114,1745141529238319037
462303,-19,-2,46,299,-62,-8095,1745141529238319037
462495,-24,-2,44,326,-74,-8074,1745141529238319037
462687,-28,-3,43,323,-67,-8059,1745141529238319037
462879,-32,-2,40,358,-43,-8057,1745141529238319037
463071,-36,-3,37,358,-18,-8049,1745141529238319037
463263,-37,-5,33,360,4,-8060,1745141529238319037
463455,-38,-6,28,364,16,-8065,1745141529238319037
463647,-38,-6,25,397,39,-8094,1745141529238319037
463839,-37,-7,21,384,46,-8117,1745141529296845637
464031,-36,-7,17,363,45,-8140,1745141529296845637
464223,-34,-7,13,371,51,-8156,1745141529296845637
464415,-32,-8,9,376,31,-8149,1745141529296845637
464607,-31,-9,4,392,11,-8138,1745141529296845637
464799,-31,-11,2,385,12,-8122,1745141529296845637
464991,-32,-9,1,379,20,-8099,1745141529296845637
465183,-34,-8,1,397,14,-8078,1745141529296845637
465375,-37,-8,0,409,24,-8081,1745141529296845637
465567,-37,-8,-1,427,35,-8087,1745141529296845637
465759,-37,-8,-3,404,59,-8101,1745141529296845637
465951,-37,-7,-3,416,88,-8127,1745141529296845637
466143,-34,-9,-2,402,94,-8118,1745141529354777244
466335,-31,-9,0,411,94,-8120,1745141529354777244
466527,-30,-11,1,411,81,-8117,1745141529354777244
466719,-32,-12,2,397,79,-8122,1745141529354777244
466911,-32,-13,4,367,85,-8098,1745141529354777244
467103,-33,-12,6,372,99,-8092,1745141529354777244
467295,-32,-13,7,373,124,-8074,1745141529354777244
467487,-28,-14,9,391,169,-8050,1745141529354777244
467679,-23,-15,10,415,180,-8057,1745141529354777244
467871,-17,-17,13,417,188,-8065,1745141529354777244
468063,-12,-19,15,396,187,-8088,1745141529354777244
468255,-8,-22,18,388,159,-8097,1745141529354777244
468447,-5,-24,20,358,134,-8126,1745141529413931912
468639,-5,-25,23,346,113,-8125,1745141529413931912
468831,-7,-25,25,347,112,-8143,1745141529413931912
469023,-11,-25,29,357,95,-8157,1745141529413931912
469215,-15,-26,30,346,73,-8142,1745141529413931912
469407,-15,-27,33,364,65,-8143,1745141529413931912
469599,-15,-27,37,345,80,-8110,1745141529413931912
469791,-17,-26,40,374,57,-8111,1745141529413931912
469983,-18,-27,41,375,64,-8122,1745141529413931912
470175,-19,-27,40,383,50,-8130,1745141529413931912
470367,-17,-27,41,391,62,-8142,1745141529413931912
470559,-18,-26,42,363,69,-8152,1745141529413931912
470751,-21,-26,43,365,70,-8139,1745141529477067481
470943,-23,-26,44,342,76,-8148,1745141529477067481
471135,-25,-24,46,349,98,-8131,1745141529477067481
471327,-26,-23,48,347,117,-8125,1745141529477067481
471519,-24,-22,48,343,129,-8111,1745141529477067481
471711,-21,-22,46,345,148,-8096,1745141529477067481
471903,-17,-21,43,358,160,-8102,1745141529477067481
472095,-15,-21,42,353,150,-8098,1745141529477067481
472287,-11,-21,42,357,134,-8107,1745141529477067481
472479,-9,-21,42,336,135,-8112,1745141529477067481
472671,-4,-20,43,340,131,-8107,1745141529477067481
472863,2,-20,44,326,115,-8112,1745141529477067481
473055,8,-18,44,334,125,-8117,1745141529535352365
473439,11,-17,39,343,78,-8133,1745141529535352365
473631,15,-15,37,362,70,-8144,1745141529535352365
473823,15,-18,37,335,62,-8137,1745141529535352365
474015,13,-17,38,347,42,-8142,1745141529535352365
474207,13,-17,35,333,11,-8138,1745141529535352365
474399,9,-16,32,310,2,-8124,1745141529535352365
474591,2,-15,32,310,10,-8112,1745141529535352365
474783,-1,-13,31,309,28,-8104,1745141529535352365
474975,-4,-12,31,308,37,-8107,1745141529535352365
475167,-5,-11,29,315,84,-8118,1745141529535352365
475359,-4,-10,26,299,105,-8125,1745141529535352365
475551,-3,-10,24,292,120,-8114,1745141529591863307
475743,0,-9,25,297,111,-8122,1745141529591863307
475935,4,-6,26,291,113,-8128,1745141529591863307
476127,8,-3,26,283,112,-8143,1745141529591863307
476319,11,-2,25,301,132,-8097,1745141529591863307
476511,12,-2,25,305,102,-8074,1745141529591863307
476703,13,-2,25,317,77,-8083,1745141529591863307
476895,13,-3,25,297,48,-8073,1745141529591863307
477087,12,-2,25,291,17,-8100,1745141529591863307
477279,11,-1,27,259,21,-8106,1745141529591863307
477471,8,3,27,253,29,-8133,1745141529591863307
477663,5,6,25,249,66,-8123,1745141529591863307
477855,4,11,23,262,90,-8147,1745141529654131957
478047,4,15,21,288,93,-8149,1745141529654131957
478239,6,19,19,316,87,-8164,1745141529654131957
478431,9,21,17,294,83,-8184,1745141529654131957
478623,12,25,16,277,53,-8204,1745141529654131957
478815,13,31,15,267,30,-8214,1745141529654131957
479007,11,37,13,275,6,-8216,1745141529654131957
479199,8,43,10,271,29,-8232,1745141529654131957
479391,7,51,8,268,57,-8228,1745141529654131957
479583,5,61,7,255,106,-8230,1745141529654131957
479775,7,72,5,254,137,-8268,1745141529654131957
479967,12,83,0,233,158,-8318,1745141529654131957
480159,20,94,-8,234,139,-8353,1745141529715900247
480351,29,108,-19,235,100,-8392,1745141529715900247
480543,36,122,-31,236,33,-8420,1745141529715900247
480735,37,141,-40,214,-14,-8473,1745141529715900247
480927,36,161,-47,213,-56,-8527,1745141529715900247
481119,32,183,-57,224,-81,-8575,1745141529715900247
481311,29,208,-71,205,-123,-8643,1745141529715900247
481503,32,236,-91,197,-157,-8723,1745141529715900247
481695,38,261,-115,153,-200,-8788,1745141529715900247
481887,48,294,-139,84,-216,-8876,1745141529715900247
482079,58,338,-161,69,-211,-9041,1745141529715900247
482271,61,382,-182,93,-235,-9214,1745141529715900247
482463,67,426,-207,116,-275,-9396,1745141529779284720
482847,100,523,-276,105,-434,-9797,1745141529779284720
483039,121,576,-314,156,-574,-10084,1745141529779284720
483231,152,630,-348,209,-766,-10323,1745141529779284720
483423,188,684,-377,291,-1005,-10628,1745141529779284720
483615,238,737,-403,413,-1229,-11031,1745141529779284720
483807,295,782,-429,544,-1445,-11527,1745141529779284720
483999,350,816,-455,730,-1706,-12193,1745141529779284720
484191,396,829,-476,1008,-2183,-12965,1745141529779284720
484383,436,809,-478,1300,-2809,-13715,1745141529779284720
484575,504,768,-451,1556,-3642,-14506,1745141529779284720
484767,593,683,-410,1649,-4265,-14973,1745141529779284720
484959,692,501,-341,1940,-5038,-15362,1745141529842358883
485343,791,332,-407,1627,-5350,-16414,1745141529842358883
485535,773,457,-417,1409,-5623,-14220,1745141529842358883
485727,801,396,-347,1806,-6645,-12883,1745141529842358883
485919,952,220,-233,2120,-6970,-12723,1745141529842358883
486111,955,152,-82,2267,-6504,-12799,1745141529842358883
486303,749,144,14,2403,-5532,-12667,1745141529842358883
486495,495,91,19,2604,-4400,-12714,1745141529842358883
486687,397,17,3,3238,-3449,-13506,1745141529842358883
486879,528,-131,47,4522,-2726,-14829,1745141529842358883
487071,663,-372,150,5903,-2467,-16175,1745141529842358883
487263,647,-658,302,6663,-3271,-17308,1745141529842358883
487455,517,-975,426,6359,-4198,-18350,1745141529901105118
487647,487,-1239,539,5063,-4340,-19464,1745141529901105118
487839,683,-1428,638,3882,-3695,-20373,1745141529901105118
488031,1032,-1575,698,3596,-3014,-21009,1745141529901105118
488223,1391,-1712,742,4005,-2677,-21257,1745141529901105118
488415,1663,-1839,829,4430,-2561,-20944,1745141529901105118
488607,1849,-1951,954,4578,-2348,-20228,1745141529901105118
488799,1978,-2060,1069,4532,-1838,-19299,1745141529901105118
488991,2064,-2174,1159,4553,-1237,-18319,1745141529901105118
489183,2115,-2298,1239,4728,-698,-17565,1745141529901105118
489375,2110,-2398,1322,4995,-504,-17099,1745141529901105118
489567,2052,-2456,1401,4996,-480,-16277,1745141529901105118
489759,2009,-2647,1487,4699,-754,-14467,1745141529960553585
489951,1960,-2982,1565,5000,-701,-15244,1745141529960553585
490143,1872,-3121,1639,4607,-518,-14867,1745141529960553585
490335,1775,-3245,1698,4357,-263,-14555,1745141529960553585
490527,1701,-3348,1723,4228,61,-14321,1745141529960553585
490719,1651,-3448,1733,4219,455,-13994,1745141529960553585
490911,1630,-3543,1735,4370,814,-13609,1745141529960553585
491103,1622,-3633,1737,4485,1178,-13190,1745141529960553585
491295,1628,-3715,1749,4526,1565,-12728,1745141529960553585
491487,1657,-3793,1770,4508,1993,-12200,1745141529960553585
491679,1716,-3868,1791,4481,2389,-11627,1745141529960553585
491871,1804,-3948,1802,4464,2719,-11142,1745141529960553585
492063,1911,-4027,1814,4469,2939,-10724,1745141530014000440
492255,2028,-4105,1838,4461,2987,-10322,1745141530014000440
492447,2146,-4177,1870,4395,2956,-9949,1745141530014000440
492639,2258,-4237,1903,4288,2893,-9563,1745141530014000440
492831,2363,-4289,1937,4162,2727,-9093,1745141530014000440
493023,2452,-4338,1970,4077,2434,-8572,1745141530014000440
493215,2508,-4380,2003,3943,2145,-8013,1745141530014000440
493407,2503,-4408,2038,3806,1787,-7490,1745141530014000440
493599,2469,-4423,2072,3670,1487,-6902,1745141530014000440
493791,2403,-4431,2104,3582,1216,-6252,1745141530014000440
493983,2312,-4431,2134,3487,1018,-5620,1745141530014000440
494175,2198,-4430,2159,3370,837,-4995,1745141530014000440
494367,2079,-4430,2181,3216,683,-4400,1745141530076037738
494559,1954,-4431,2200,3011,561,-3839,1745141530076037738
494751,1830,-4436,2219,2823,379,-3282,1745141530076037738
494943,1714,-4444,2235,2607,219,-2682,1745141530076037738
495135,1591,-4445,2244,2362,124,-2201,1745141530076037738
495327,1458,-4434,2244,2096,69,-1729,1745141530076037738
495519,1325,-4416,2235,1823,80,-1205,1745141530076037738
495711,1199,-4390,2216,1523,171,-691,1745141530076037738
495903,1083,-4355,2190,1193,324,-342,1745141530076037738
496095,987,-4305,2159,827,544,-246,1745141530076037738
496287,935,-4247,2132,511,670,-252,1745141530076037738
496479,945,-4187,2102,336,748,-156,1745141530076037738
496671,987,-4128,2066,254,831,86,1745141530130891404
496863,1006,-4053,2030,211,845,-119,1745141530130891404
497055,1021,-3992,2000,223,798,731,1745141530130891404
497247,992,-3931,1968,114,850,984,1745141530130891404
497439,918,-3876,1937,-76,885,1538,1745141530130891404
497631,827,-3815,1902,-376,962,1991,1745141530130891404
497823,733,-3755,1863,-762,1062,2444,1745141530130891404
498015,640,-3690,1814,-1135,1159,2833,1745141530130891404
498207,548,-3618,1754,-1541,1247,3259,1745141530130891404
498399,445,-3540,1685,-1969,1325,3699,1745141530130891404
498591,331,-3455,1612,-2440,1336,3946,1745141530130891404
498783,212,-3366,1533,-2973,1319,4075,1745141530130891404
498975,98,-3269,1459,-3500,1242,4140,1745141530191116218
499167,-4,-3156,1384,-4038,1194,4169,1745141530191116218
499359,-91,-3025,1312,-4513,1190,4247,1745141530191116218
499551,-159,-2874,1240,-4966,1219,4266,1745141530191116218
499743,-210,-2707,1165,-5322,1315,4321,1745141530191116218
499935,-233,-2532,1089,-5616,1473,4365,1745141530191116218
500127,-214,-2357,1016,-5775,1656,4484,1745141530191116218
500319,-160,-2189,948,-5858,1786,4592,1745141530191116218
500511,-87,-2027,880,-5886,1874,4695,1745141530191116218
500703,-18,-1872,816,-5885,1919,4838,1745141530191116218
500895,43,-1724,755,-5922,1940,5012,1745141530191116218
501087,103,-1583,702,-5979,1959,5171,1745141530191116218
501279,173,-1450,659,-6069,1996,5282,1745141530250060419
501471,255,-1319,625,-6161,2051,5397,1745141530250060419
501663,342,-1190,590,-6231,2078,5394,1745141530250060419
501855,427,-1062,556,-6289,2051,5374,1745141530250060419
502047,505,-942,522,-6324,1936,5372,1745141530250060419
502239,571,-831,489,-6357,1812,5303,1745141530250060419
502431,626,-733,460,-6403,1652,5185,1745141530250060419
502623,667,-637,430,-6481,1501,5046,1745141530250060419
502815,690,-546,404,-6526,1372,4883,1745141530250060419
503007,697,-459,377,-6586,1264,4674,1745141530250060419
503199,689,-376,348,-6603,1168,4443,1745141530250060419
503391,674,-299,320,-6628,1119,4184,1745141530250060419
503583,654,-228,294,-6642,1100,3920,1745141530308924569
503775,631,-167,271,-6666,1145,3687,1745141530308924569
503967,611,-116,252,-6662,1171,3527,1745141530308924569
504159,602,-76,238,-6716,1182,3400,1745141530308924569
504351,606,-43,227,-6755,1151,3287,1745141530308924569
504543,612,-16,216,-6815,1085,3198,1745141530308924569
504735,612,8,202,-6901,963,3140,1745141530308924569
504927,603,30,191,-6982,814,3050,1745141530308924569
505119,590,52,187,-7061,696,2954,1745141530308924569
505311,574,75,184,-7158,578,2824,1745141530308924569
505503,549,98,177,-7224,444,2687,1745141530308924569
505695,518,120,166,-7267,318,2588,1745141530308924569
505887,480,134,150,-7316,238,2474,1745141530367959863
506079,436,145,135,-7349,179,2356,1745141530367959863
506271,386,153,122,-7377,153,2274,1745141530367959863
506463,333,163,114,-7416,164,2162,1745141530367959863
506655,281,174,110,-7452,180,2006,1745141530367959863
506847,238,180,105,-7492,164,1880,1745141530367959863
507039,211,184,99,-7524,166,1727,1745141530367959863
507231,194,183,90,-7606,171,1583,1745141530367959863
507423,182,178,81,-7687,212,1476,1745141530367959863
507615,169,170,74,-7782,229,1361,1745141530367959863
507807,155,167,67,-7867,217,1291,1745141530367959863
507999,145,166,62,-7923,138,1237,1745141530367959863
508191,137,169,66,-7968,46,1200,1745141530426577974
508383,129,171,77,-8009,-28,1142,1745141530426577974
508575,118,164,86,-8088,-53,1101,1745141530426577974
508767,109,154,93,-8193,-61,1099,1745141530426577974
508959,102,153,97,-8299,-54,1023,1745141530426577974
509151,93,163,93,-8347,-65,945,1745141530426577974
509343,82,178,83,-8373,-87,898,1745141530426577974
509535,76,192,72,-8346,-145,821,1745141530426577974
509727,78,200,66,-8322,-192,751,1745141530426577974
509919,87,207,62,-8274,-245,738,1745141530426577974
510111,98,208,62,-8213,-254,726,1745141530426577974
510303,105,211,68,-8208,-253,646,1745141530426577974
510495,104,207,70,-8189,-301,622,1745141530485573372
510687,101,200,63,-8247,-337,557,1745141530485573372
510879,100,192,53,-8335,-333,449,1745141530485573372
511071,96,190,41,-8409,-321,344,1745141530485573372
511263,91,193,32,-8446,-353,226,1745141530485573372
511455,89,198,29,-8459,-396,101,1745141530485573372
511647,100,199,39,-8425,-425,-1,1745141530485573372
511839,115,191,50,-8397,-423,-46,1745141530485573372
512031,120,175,51,-8388,-421,-86,1745141530485573372
512223,114,160,46,-8410,-426,-140,1745141530485573372
512415,109,148,41,-8447,-449,-186,1745141530485573372
512607,106,134,40,-8478,-489,-232,1745141530485573372
512799,101,121,43,-8486,-518,-274,1745141530543366959
512991,93,109,48,-8470,-545,-279,1745141530543366959
513183,83,94,58,-8497,-560,-256,1745141530543366959
513375,64,75,68,-8511,-511,-247,1745141530543366959
513567,36,56,69,-8523,-493,-201,1745141530543366959
513759,3,42,58,-8549,-459,-138,1745141530543366959
513951,-24,34,55,-8555,-448,-75,1745141530543366959
514143,-46,32,59,-8513,-454,-77,1745141530543366959
514335,-69,32,64,-8424,-473,-130,1745141530543366959
514527,-90,27,63,-8319,-505,-193,1745141530543366959
514719,-107,14,57,-8236,-500,-205,1745141530543366959
514911,-122,-3,53,-8185,-443,-147,1745141530543366959
515103,-134,-22,55,-8168,-373,-104,1745141530601833977
515295,-142,-38,60,-8191,-285,-59,1745141530601833977
515487,-142,-46,64,-8216,-208,0,1745141530601833977
515679,-137,-41,63,-8544,-259,84,1745141530601833977
515871,-136,-2,40,-8803,-329,258,1745141530601833977
516063,-142,-6,12,-8466,-360,211,1745141530601833977
516255,-146,25,20,-8211,-195,186,1745141530601833977
516447,-143,-1,89,-7839,-41,148,1745141530601833977
516639,-134,-34,139,-7784,-5,150,1745141530601833977
516831,-129,-79,123,-7977,71,179,1745141530601833977
517023,-123,-100,82,-8278,120,234,1745141530601833977
517215,-115,-94,49,-8553,143,286,1745141530601833977
517407,-105,-68,32,-8761,123,327,1745141530664296687
517599,-95,-29,18,-8853,121,368,1745141530664296687
517791,-88,15,-5,-8788,93,379,1745141530664296687
517983,-81,54,-28,-8574,117,343,1745141530664296687
518175,-74,80,-42,-8280,153,320,1745141530664296687
518367,-70,88,-44,-8048,206,253,1745141530664296687
518559,-62,83,-38,-7886,260,195,1745141530664296687
518751,-43,71,-32,-7866,253,154,1745141530664296687
518943,-17,58,-35,-7936,226,87,1745141530664296687
519135,11,52,-48,-8050,154,8,1745141530664296687
519327,38,50,-63,-8145,54,12,1745141530664296687
519519,59,55,-76,-8203,-69,18,1745141530664296687
519711,68,63,-84,-8243,-181,31,1745141530717742397
519903,65,77,-87,-8210,-281,38,1745141530717742397
520095,58,87,-85,-8136,-345,45,1745141530717742397
520287,48,88,-82,-8063,-343,39,1745141530717742397
520479,36,86,-79,-8002,-333,58,1745141530717742397
520671,24,83,-76,-7992,-336,3,1745141530717742397
520863,17,78,-75,-7976,-335,-27,1745141530717742397
521055,19,68,-78,-8001,-359,-9,1745141530717742397
521247,23,58,-83,-8051,-362,-9,1745141530717742397
521439,24,52,-88,-8076,-376,-31,1745141530717742397
521631,26,52,-89,-8096,-412,-53,1745141530717742397
521823,29,52,-86,-8091,-460,-84,1745141530717742397
522015,33,53,-85,-8044,-504,-108,1745141530779078660
522207,33,53,-83,-7988,-527,-136,1745141530779078660
522399,28,51,-81,-7918,-545,-163,1745141530779078660
522591,21,46,-77,-7854,-557,-178,1745141530779078660
522783,13,36,-71,-7803,-564,-148,1745141530779078660
522975,5,23,-65,-7801,-592,-93,1745141530779078660
523167,-7,9,-58,-7858,-592,-22,1745141530779078660
523359,-27,0,-52,-7946,-551,51,1745141530779078660
523551,-54,-5,-45,-8046,-506,129,1745141530779078660
523743,-82,-1,-42,-8150,-486,220,1745141530779078660
523935,-105,12,-42,-8220,-478,269,1745141530779078660
524127,-124,33,-46,-8223,-465,337,1745141530779078660
524319,-146,58,-49,-8144,-471,338,1745141530837835258
524511,-166,83,-51,-8070,-474,284,1745141530837835258
524703,-183,104,-50,-7943,-444,199,1745141530837835258
524895,-189,111,-50,-7862,-436,109,1745141530837835258
525087,-181,108,-55,-7858,-408,54,1745141530837835258
525279,-160,99,-61,-7964,-342,37,1745141530837835258
525471,-129,91,-63,-8110,-241,24,1745141530837835258
525663,-87,87,-67,-8230,-196,13,1745141530837835258
525855,-40,89,-77,-8326,-155,23,1745141530837835258
526047,3,93,-89,-8376,-207,43,1745141530837835258
526239,41,99,-101,-8385,-323,47,1745141530837835258
526431,69,104,-108,-8382,-454,43,1745141530837835258
526623,85,110,-106,-8383,-576,26,1745141530895302077
526815,84,114,-103,-8377,-656,-12,1745141530895302077
527007,70,119,-99,-8354,-701,-38,1745141530895302077
527199,51,122,-92,-8321,-686,-49,1745141530895302077
527391,39,127,-84,-8320,-655,-124,1745141530895302077
527583,38,133,-72,-8285,-615,-205,1745141530895302077
527775,47,136,-61,-8238,-618,-259,1745141530895302077
527967,61,134,-52,-8208,-662,-340,1745141530895302077
528159,78,126,-43,-8181,-713,-374,1745141530895302077
528351,92,117,-34,-8147,-760,-373,1745141530895302077
528543,98,109,-24,-8146,-811,-351,1745141530895302077
528735,97,99,-15,-8140,-856,-316,1745141530895302077
528927,89,89,-7,-8136,-876,-295,1745141530954664712
529119,75,80,2,-8156,-932,-298,1745141530954664712
529311,54,73,6,-8137,-941,-272,1745141530954664712
529503,27,67,8,-8139,-940,-249,1745141530954664712
529695,-1,64,8,-8110,-875,-248,1745141530954664712
529887,-27,63,12,-8093,-799,-250,1745141530954664712
530079,-47,59,19,-8072,-714,-255,1745141530954664712
530271,-59,52,28,-8060,-641,-289,1745141530954664712
530463,-67,43,31,-8087,-585,-329,1745141530954664712
530655,-71,37,32,-8125,-527,-361,1745141530954664712
530847,-72,34,33,-8157,-499,-381,1745141530954664712
531039,-72,35,38,-8171,-463,-404,1745141530954664712
531231,-67,36,43,-8139,-457,-400,1745141531009058121
531423,-56,36,47,-8095,-437,-343,1745141531009058121
531615,-41,35,47,-8070,-445,-289,1745141531009058121
531807,-29,35,44,-8056,-461,-254,1745141531009058121
531999,-24,38,38,-8068,-481,-235,1745141531009058121
532191,-18,40,31,-8043,-475,-240,1745141531009058121
532383,-12,41,26,-8019,-464,-213,1745141531009058121
532575,-5,41,20,-8001,-421,-191,1745141531009058121
532767,3,39,14,-8007,-394,-184,1745141531009058121
532959,9,38,9,-8036,-365,-178,1745141531009058121
533151,16,37,2,-8056,-351,-163,1745141531009058121
533343,24,37,-5,-8108,-362,-144,1745141531009058121
533535,28,38,-10,-8162,-375,-143,1745141531069371477
533727,30,41,-13,-8227,-402,-148,1745141531069371477
533919,33,44,-15,-8278,-424,-154,1745141531069371477
534111,39,46,-17,-8315,-410,-139,1745141531069371477
534303,48,50,-19,-8337,-402,-134,1745141531069371477
534495,57,58,-20,-8336,-377,-108,1745141531069371477
534687,68,66,-20,-8306,-376,-74,1745141531069371477
534879,81,71,-22,-8281,-380,-61,1745141531069371477
535071,90,75,-28,-8249,-400,-77,1745141531069371477
535263,92,76,-34,-8230,-424,-99,1745141531069371477
535455,87,81,-38,-8202,-470,-146,1745141531069371477
535647,79,84,-41,-8174,-484,-184,1745141531069371477
535839,67,85,-43,-8151,-535,-201,1745141531127922556
536031,57,82,-44,-8180,-552,-202,1745141531127922556
536223,45,78,-45,-8183,-570,-213,1745141531127922556
536415,33,74,-44,-8224,-564,-192,1745141531127922556
536607,23,70,-44,-8269,-542,-172,1745141531127922556
536799,17,71,-44,-8306,-510,-156,1745141531127922556
536991,13,76,-45,-8298,-461,-167,1745141531127922556
537183,10,82,-46,-8278,-447,-194,1745141531127922556
537375,8,86,-48,-8230,-424,-217,1745141531127922556
537567,7,89,-48,-8151,-397,-222,1745141531127922556
537759,7,92,-47,-8076,-372,-219,1745141531127922556
537951,8,94,-46,-7991,-359,-228,1745141531127922556
538143,10,93,-47,-7948,-365,-273,1745141531186572802
538335,17,88,-46,-7930,-381,-308,1745141531186572802
538527,33,77,-44,-7935,-394,-320,1745141531186572802
538719,57,68,-43,-7979,-392,-307,1745141531186572802
538911,77,62,-44,-8033,-406,-304,1745141531186572802
539103,96,59,-48,-8042,-441,-312,1745141531186572802
539295,112,58,-50,-8035,-484,-289,1745141531186572802
539487,125,58,-50,-7984,-559,-277,1745141531186572802
539679,131,55,-48,-7947,-631,-266,1745141531186572802
539871,129,53,-45,-7893,-695,-247,1745141531186572802
540063,118,49,-39,-7852,-764,-237,1745141531186572802
540255,102,42,-32,-7843,-829,-240,1745141531186572802
540447,82,32,-25,-7858,-865,-208,1745141531245370546
540639,60,23,-19,-7882,-898,-170,1745141531245370546
540831,34,17,-14,-7954,-890,-153,1745141531245370546
541023,4,13,-9,-8010,-863,-126,1745141531245370546
541215,-25,14,-5,-8038,-834,-118,1745141531245370546
541407,-50,18,-1,-8058,-817,-121,1745141531245370546
541599,-70,26,2,-8058,-801,-130,1745141531245370546
541791,-87,32,4,-8017,-780,-145,1745141531245370546
541983,-102,36,7,-7992,-725,-152,1745141531245370546
542175,-111,38,11,-7943,-688,-183,1745141531245370546
542367,-113,39,16,-7932,-626,-190,1745141531245370546
542559,-109,39,19,-7921,-594,-173,1745141531245370546
542751,-100,37,23,-7925,-552,-160,1745141531305263228
542943,-86,33,25,-7990,-529,-152,1745141531305263228
543135,-68,32,29,-8029,-482,-122,1745141531305263228
543327,-49,33,32,-8071,-500,-129,1745141531305263228
543519,-31,34,33,-8152,-525,-146,1745141531305263228
543711,-17,36,31,-8201,-578,-193,1745141531305263228
543903,-7,38,28,-8233,-668,-224,1745141531305263228
544095,-3,40,27,-8259,-737,-240,1745141531305263228
544287,-6,41,27,-8243,-782,-243,1745141531305263228
544479,-15,44,29,-8238,-809,-231,1745141531305263228
544671,-29,45,34,-8220,-778,-233,1745141531305263228
544863,-46,44,36,-8205,-721,-237,1745141531305263228
545055,-64,40,34,-8218,-643,-249,1745141531363728006
545247,-82,39,30,-8250,-589,-289,1745141531363728006
545439,-90,39,30,-8285,-504,-304,1745141531363728006
545631,-89,41,34,-8301,-493,-325,1745141531363728006
545823,-86,43,36,-8330,-501,-329,1745141531363728006
546015,-83,46,37,-8334,-524,-358,1745141531363728006
546207,-85,51,34,-8321,-536,-368,1745141531363728006
546399,-85,57,33,-8305,-578,-358,1745141531363728006
546591,-86,58,31,-8305,-570,-334,1745141531363728006
546783,-87,57,29,-8321,-523,-311,1745141531363728006
546975,-91,58,26,-8347,-498,-327,1745141531363728006
547167,-93,62,24,-8374,-443,-331,1745141531363728006
547359,-86,68,20,-8365,-369,-351,1745141531422914080
547551,-72,73,16,-8348,-313,-373,1745141531422914080
547743,-54,79,10,-8316,-266,-440,1745141531422914080
547935,-33,84,6,-8283,-239,-471,1745141531422914080
548127,-10,86,3,-8247,-238,-485,1745141531422914080
548319,13,84,1,-8242,-268,-518,1745141531422914080
548511,30,81,-1,-8228,-320,-538,1745141531422914080
548703,42,79,-4,-8254,-404,-532,1745141531422914080
548895,52,78,-5,-8265,-456,-521,1745141531422914080
549087,56,78,-6,-8276,-513,-522,1745141531422914080
549279,54,77,-9,-8268,-523,-534,1745141531422914080
549471,48,78,-12,-8244,-546,-562,1745141531422914080
549663,39,78,-16,-8203,-561,-583,1745141531482204997
549855,30,75,-19,-8157,-533,-605,1745141531482204997
550047,21,71,-20,-8110,-523,-650,1745141531482204997
550239,12,65,-20,-8086,-528,-694,1745141531482204997
550431,6,58,-20,-8049,-532,-722,1745141531482204997
550623,5,49,-18,-8022,-505,-732,1745141531482204997
550815,6,39,-17,-8023,-465,-732,1745141531482204997
551007,8,31,-16,-8015,-441,-722,1745141531482204997
551199,11,23,-14,-8029,-420,-695,1745141531482204997
551391,17,17,-13,-8054,-457,-669,1745141531482204997
551583,24,13,-14,-8067,-471,-662,1745141531482204997
551775,27,9,-16,-8076,-535,-655,1745141531482204997
551967,26,7,-16,-8086,-553,-629,1745141531542507155
552159,25,5,-15,-8104,-578,-612,1745141531542507155
552351,25,4,-14,-8069,-590,-611,1745141531542507155
552543,25,1,-13,-8061,-596,-616,1745141531542507155
552735,23,-2,-12,-8065,-602,-621,1745141531542507155
552927,24,-5,-11,-8056,-600,-621,1745141531542507155
553119,23,-6,-10,-8036,-597,-619,1745141531542507155
553311,19,-8,-9,-8028,-602,-618,1745141531542507155
553503,15,-11,-7,-8008,-628,-553,1745141531542507155
553695,12,-15,-6,-8014,-661,-503,1745141531542507155
553887,10,-20,-3,-8021,-690,-464,1745141531542507155
554079,4,-25,-2,-8069,-703,-456,1745141531542507155
554271,-6,-25,-1,-8105,-713,-458,1745141531597383997
554463,-15,-24,1,-8130,-701,-445,1745141531597383997
554655,-18,-23,4,-8123,-663,-414,1745141531597383997
554847,-18,-22,6,-8109,-630,-371,1745141531597383997
555039,-15,-20,7,-8098,-580,-328,1745141531597383997
555231,-12,-17,9,-8094,-559,-342,1745141531597383997
555423,-8,-15,10,-8096,-528,-294,1745141531597383997
555615,0,-13,11,-8120,-531,-267,1745141531597383997
555807,8,-11,10,-8137,-502,-235,1745141531597383997
555999,13,-5,10,-8143,-515,-202,1745141531597383997
556191,16,0,8,-8145,-507,-160,1745141531597383997
556383,17,8,5,-8156,-490,-137,1745141531597383997
556575,16,17,3,-8148,-493,-157,1745141531657158868
556767,20,25,1,-8162,-475,-186,1745141531657158868
556959,29,31,2,-8155,-484,-213,1745141531657158868
557151,43,37,3,-8173,-469,-250,1745141531657158868
557343,53,45,1,-8172,-460,-263,1745141531657158868
557535,61,55,-1,-8149,-505,-282,1745141531657158868
557727,70,63,-1,-8114,-525,-293,1745141531657158868
557919,78,66,0,-8125,-552,-284,1745141531657158868
558111,83,69,3,-8125,-594,-297,1745141531657158868
558303,82,70,5,-8145,-611,-290,1745141531657158868
558495,77,74,7,-8150,-630,-297,1745141531657158868
558687,69,78,8,-8166,-648,-320,1745141531657158868
558879,60,82,9,-8145,-640,-325,1745141531716518117
559071,49,85,8,-8106,-680,-322,1745141531716518117
559263,37,86,8,-8089,-705,-356,1745141531716518117
559455,25,87,7,-8047,-687,-368,1745141531716518117
559647,13,84,8,-8029,-659,-397,1745141531716518117
559839,2,80,10,-8022,-602,-418,1745141531716518117
560031,-7,76,11,-8014,-545,-421,1745141531716518117
560223,-12,73,14,-8019,-470,-414,1745141531716518117
560415,-11,71,16,-8025,-409,-438,1745141531716518117
560607,-7,70,18,-8040,-410,-492,1745141531716518117
560799,1,67,19,-8056,-422,-516,1745141531716518117
560991,10,63,21,-8068,-457,-509,1745141531716518117
561183,20,60,20,-8081,-477,-512,1745141531774469411
561375,27,58,20,-8080,-501,-486,1745141531774469411
561567,31,58,21,-8066,-500,-463,1745141531774469411
561759,33,57,20,-8030,-482,-439,1745141531774469411
561951,31,56,17,-8002,-474,-407,1745141531774469411
562143,28,55,15,-7951,-473,-370,1745141531774469411
562335,23,52,12,-7938,-496,-351,1745141531774469411
562527,12,47,11,-7933,-475,-328,1745141531774469411
562719,-3,44,9,-7959,-473,-303,1745141531774469411
562911,-18,43,10,-8003,-473,-289,1745141531774469411
563103,-33,46,10,-8035,-494,-278,1745141531774469411
563295,-43,51,11,-8070,-461,-271,1745141531774469411
563487,-49,56,11,-8074,-443,-239,1745141531832786742
563679,-51,62,10,-8070,-447,-201,1745141531832786742
563871,-52,70,8,-8065,-443,-167,1745141531832786742
564063,-55,78,6,-8041,-441,-138,1745141531832786742
564255,-59,86,4,-8017,-434,-105,1745141531832786742
564447,-62,96,1,-7981,-420,-111,1745141531832786742
564639,-62,105,0,-7943,-378,-114,1745141531832786742
564831,-58,113,-2,-7917,-344,-136,1745141531832786742
565023,-49,119,-5,-7890,-373,-166,1745141531832786742
565215,-34,122,-9,-7879,-354,-151,1745141531832786742
565407,-16,124,-11,-7885,-344,-153,1745141531832786742
565599,-2,124,-11,-7932,-360,-141,1745141531832786742
565791,12,125,-13,-8020,-393,-168,1745141531890660693
565983,24,129,-15,-8085,-406,-164,1745141531890660693
566175,34,136,-17,-8148,-430,-153,1745141531890660693
566367,43,145,-17,-8158,-473,-170,1745141531890660693
566559,49,155,-15,-8149,-521,-181,1745141531890660693
566751,51,165,-12,-8129,-585,-186,1745141531890660693
566943,56,173,-3,-8089,-642,-225,1745141531890660693
567135,54,175,3,-8067,-654,-275,1745141531890660693
567327,39,171,-2,-8082,-644,-261,1745141531890660693
567519,24,169,-7,-8138,-650,-279,1745141531890660693
567711,20,172,-4,-8183,-613,-274,1745141531890660693
567903,25,177,5,-8214,-577,-264,1745141531890660693
568095,29,183,10,-8228,-556,-280,1745141531947943451
568287,33,189,11,-8253,-557,-283,1745141531947943451
568479,35,194,10,-8243,-583,-306,1745141531947943451
568671,37,201,9,-8260,-612,-333,1745141531947943451
568863,34,208,10,-8247,-632,-367,1745141531947943451
569055,26,213,12,-8205,-671,-374,1745141531947943451
569247,21,218,14,-8190,-667,-372,1745141531947943451
569439,19,220,18,-8158,-636,-395,1745141531947943451
569631,20,222,22,-8117,-598,-428,1745141531947943451
569823,23,221,24,-8108,-567,-481,1745141531947943451
570015,28,220,26,-8107,-529,-517,1745141531947943451
570207,37,216,28,-8137,-501,-553,1745141531947943451
570399,47,212,29,-8189,-507,-579,1745141532008132797
570591,55,209,29,-8219,-508,-601,1745141532008132797
570783,57,211,30,-8234,-515,-606,1745141532008132797
570975,55,213,30,-8231,-548,-603,1745141532008132797
571167,47,215,31,-8192,-604,-606,1745141532008132797
571359,35,216,33,-8157,-625,-599,1745141532008132797
571551,17,214,36,-8116,-619,-620,1745141532008132797
571743,-5,212,38,-8095,-573,-632,1745141532008132797
571935,-25,210,40,-8077,-550,-649,1745141532008132797
572127,-42,208,42,-8075,-501,-660,1745141532008132797
572319,-54,204,43,-8089,-449,-668,1745141532008132797
572511,-63,203,44,-8065,-408,-661,1745141532008132797
572703,-72,204,42,-8052,-411,-625,1745141532059807794
572703,-72,204,42,-8052,-411,-625,1745141532059807794
572895,-80,206,38,-8058,-424,-610,1745141532059807794
573087,-89,208,34,-8038,-424,-644,1745141532059807794
573279,-96,211,31,-8019,-395,-681,1745141532059807794
573471,-100,212,29,-8000,-370,-722,1745141532059807794
573663,-98,212,29,-7959,-290,-750,1745141532059807794
573855,-90,211,26,-7938,-269,-743,1745141532059807794
574047,-77,209,23,-7898,-208,-742,1745141532059807794
574239,-60,207,21,-7875,-143,-712,1745141532059807794
574431,-43,204,18,-7846,-114,-710,1745141532059807794
574623,-25,201,15,-7838,-111,-694,1745141532059807794
574815,-11,198,10,-7808,-158,-653,1745141532120224325
575007,-4,194,4,-7796,-206,-609,1745141532120224325
575199,-5,190,-2,-7788,-272,-590,1745141532120224325
575391,-15,188,-6,-7791,-306,-550,1745141532120224325
575583,-34,186,-10,-7819,-320,-519,1745141532120224325
575775,-57,183,-13,-7844,-300,-467,1745141532120224325
575967,-82,183,-16,-7895,-275,-387,1745141532120224325
576159,-108,187,-19,-7932,-223,-310,1745141532120224325
576351,-138,194,-23,-8010,-161,-205,1745141532120224325
576543,-171,206,-30,-8046,-133,-127,1745141532120224325
576735,-207,223,-38,-8075,-105,-41,1745141532120224325
576927,-244,246,-49,-8081,-85,58,1745141532120224325
577119,-273,272,-59,-8051,-26,183,1745141532178814102
577311,-293,302,-67,-7993,58,243,1745141532178814102
577503,-303,333,-81,-7893,145,248,1745141532178814102
577695,-308,364,-102,-7802,222,230,1745141532178814102
577887,-306,394,-122,-7670,253,236,1745141532178814102
578079,-291,419,-136,-7537,290,253,1745141532178814102
578271,-263,438,-147,-7404,337,274,1745141532178814102
578463,-228,453,-157,-7296,370,323,1745141532178814102
578655,-190,462,-170,-7215,380,394,1745141532178814102
578847,-153,464,-182,-7163,355,492,1745141532178814102
579039,-121,458,-191,-7150,276,613,1745141532178814102
579231,-101,452,-197,-7152,202,751,1745141532178814102
579423,-98,449,-202,-7206,150,930,1745141532237048258
579615,-116,451,-208,-7251,81,1103,1745141532237048258
579807,-154,461,-215,-7283,5,1258,1745141532237048258
579999,-204,479,-220,-7271,-61,1410,1745141532237048258
580191,-267,504,-222,-7238,-66,1585,1745141532237048258
580383,-341,533,-224,-7147,-51,1773,1745141532237048258
580575,-423,565,-226,-7047,-6,1933,1745141532237048258
580767,-513,602,-229,-6959,105,2083,1745141532237048258
580959,-602,644,-233,-6865,186,2125,1745141532237048258
581151,-676,694,-235,-6777,266,2106,1745141532237048258
581343,-727,747,-236,-6682,329,2048,1745141532237048258
581535,-752,794,-237,-6578,422,2025,1745141532237048258
581727,-759,832,-239,-6519,604,1981,1745141532298548217
581919,-760,873,-240,-6463,826,1987,1745141532298548217
582111,-760,922,-243,-6392,1026,2044,1745141532298548217
582303,-757,981,-246,-6290,1219,2098,1745141532298548217
582495,-751,1044,-253,-6169,1361,2145,1745141532298548217
582687,-747,1107,-265,-6030,1469,2188,1745141532298548217
582879,-751,1170,-281,-5902,1568,2220,1745141532298548217
583071,-766,1237,-303,-5761,1642,2266,1745141532298548217
583263,-796,1309,-329,-5649,1706,2310,1745141532298548217
583455,-839,1388,-358,-5537,1816,2348,1745141532298548217
583647,-889,1472,-391,-5447,1920,2379,1745141532298548217
583839,-941,1558,-427,-5359,2054,2378,1745141532298548217
584031,-990,1651,-466,-5282,2218,2399,1745141532352558296
584223,-1031,1748,-509,-5189,2403,2437,1745141532352558296
584415,-1069,1856,-565,-5012,2549,2401,1745141532352558296
584607,-1111,1982,-642,-4834,2646,2316,1745141532352558296
584799,-1149,2115,-715,-4655,2741,2200,1745141532352558296
584991,-1177,2252,-764,-4335,2741,2063,1745141532352558296
585183,-1200,2382,-817,-4021,2801,1912,1745141532352558296
585375,-1224,2507,-876,-3685,2974,1784,1745141532352558296
585567,-1246,2628,-930,-3403,3191,1693,1745141532352558296
585759,-1261,2745,-979,-3160,3396,1582,1745141532352558296
585951,-1265,2863,-1025,-2979,3582,1487,1745141532352558296
586143,-1254,2978,-1068,-2771,3713,1378,1745141532352558296
586335,-1234,3094,-1111,-2559,3859,1234,1745141532412427333
586527,-1214,3209,-1154,-2353,3985,1106,1745141532412427333
586719,-1204,3328,-1198,-2116,4005,1019,1745141532412427333
586911,-1207,3449,-1241,-1864,3942,932,1745141532412427333
587103,-1215,3565,-1280,-1549,3791,900,1745141532412427333
587295,-1226,3674,-1319,-1244,3644,846,1745141532412427333
587487,-1248,3782,-1360,-939,3523,698,1745141532412427333
587679,-1293,3891,-1405,-638,3401,422,1745141532412427333
587871,-1358,3995,-1457,-379,3376,8,1745141532412427333
588063,-1429,4092,-1509,-178,3321,-440,1745141532412427333
588255,-1488,4186,-1559,-55,3292,-893,1745141532412427333
588447,-1524,4277,-1604,72,3316,-1470,1745141532412427333
588639,-1534,4367,-1648,163,3376,-2058,1745141532470934142
588831,-1515,4454,-1677,294,3372,-2553,1745141532470934142
589023,-1477,4531,-1700,421,3343,-3151,1745141532470934142
589215,-1430,4605,-1723,586,3266,-3988,1745141532470934142
589407,-1362,4666,-1744,797,3182,-4757,1745141532470934142
589599,-1260,4712,-1760,1017,3045,-5421,1745141532470934142
589791,-1133,4743,-1768,1265,2904,-6071,1745141532470934142
589983,-1001,4766,-1768,1559,2763,-6666,1745141532470934142
590175,-865,4773,-1756,1900,2468,-7171,1745141532470934142
590367,-733,4751,-1748,2319,2183,-7570,1745141532470934142
590559,-625,4703,-1753,2721,1939,-8090,1745141532470934142
590751,-555,4635,-1763,3072,1741,-8810,1745141532470934142
590943,-515,4548,-1766,3446,1450,-9413,1745141532530534327
591135,-477,4430,-1771,3804,1066,-9929,1745141532530534327
591327,-454,4286,-1781,4138,660,-10517,1745141532530534327
591519,-444,4132,-1787,4370,259,-11188,1745141532530534327
591711,-460,3980,-1792,4463,-145,-12139,1745141532530534327
591903,-486,3834,-1781,4376,-513,-13027,1745141532530534327
592095,-470,3696,-1759,4314,-899,-13865,1745141532530534327
592287,-410,3540,-1736,4215,-1338,-14278,1745141532530534327
592479,-362,3352,-1725,4266,-1780,-14657,1745141532530534327
592671,-346,3159,-1709,4219,-2170,-14966,1745141532530534327
592863,-373,2954,-1675,4218,-2577,-15384,1745141532530534327
593055,-402,2805,-1620,4314,-2491,-16623,1745141532530534327
593247,-485,2792,-1569,4085,-3056,-16184,1745141532585461065
593439,-508,2714,-1586,3771,-3002,-15843,1745141532585461065
593631,-510,2578,-1544,3755,-3182,-15901,1745141532585461065
593823,-540,2428,-1489,3757,-3381,-15994,1745141532585461065
594015,-592,2285,-1434,3916,-3894,-16211,1745141532585461065
594207,-628,2172,-1426,3802,-3911,-16032,1745141532585461065
594399,-649,2041,-1362,3831,-4036,-15922,1745141532585461065
594591,-677,1911,-1298,3830,-4172,-15799,1745141532585461065
594783,-722,1780,-1253,3810,-4248,-15712,1745141532585461065
594975,-776,1659,-1212,3668,-4266,-15684,1745141532585461065
595167,-826,1545,-1167,3479,-4239,-15579,1745141532585461065
595359,-860,1439,-1108,3302,-4155,-15484,1745141532585461065
595551,-876,1336,-1036,3124,-4089,-15392,1745141532646593423
595743,-891,1245,-966,2956,-4092,-15332,1745141532646593423
595935,-915,1155,-902,2809,-4062,-15217,1745141532646593423
596127,-935,1060,-846,2674,-3996,-15029,1745141532646593423
596319,-958,968,-795,2457,-3858,-14859,1745141532646593423
596511,-972,895,-734,2285,-3676,-14638,1745141532646593423
596703,-973,824,-655,2207,-3483,-14398,1745141532646593423
596895,-967,750,-581,2198,-3373,-14119,1745141532646593423
597087,-956,675,-517,2207,-3254,-13821,1745141532646593423
597279,-941,603,-454,2179,-3098,-13487,1745141532646593423
597471,-925,535,-391,2122,-2952,-13171,1745141532646593423
597663,-909,474,-339,2006,-2805,-12909,1745141532646593423
597855,-895,416,-303,1895,-2679,-12705,1745141532699569501
598047,-887,383,-275,1737,-2525,-12476,1745141532699569501
598239,-885,367,-240,1594,-2356,-12204,1745141532699569501
598431,-872,350,-196,1432,-2206,-11885,1745141532699569501
598623,-847,322,-162,1305,-2058,-11603,1745141532699569501
598815,-814,280,-137,1237,-1960,-11402,1745141532699569501
599007,-778,240,-116,1172,-1887,-11249,1745141532699569501
599199,-742,207,-98,1111,-1797,-11071,1745141532699569501
599391,-706,184,-81,1037,-1678,-10873,1745141532699569501
599583,-670,169,-71,986,-1521,-10675,1745141532699569501
599775,-634,156,-68,919,-1308,-10495,1745141532699569501
599967,-584,140,-75,906,-923,-10340,1745141532699569501
600159,-542,144,-81,956,-761,-10036,1745141532763244753
600351,-490,158,-75,938,-772,-9681,1745141532763244753
600543,-393,109,-40,1140,-757,-9881,1745141532763244753
600735,-259,60,3,1215,-594,-9836,1745141532763244753
600927,-117,21,34,1150,-419,-9814,1745141532763244753
601119,-1,-17,41,1064,-389,-9742,1745141532763244753
601311,82,-43,27,914,-463,-9675,1745141532763244753
601503,143,-64,15,755,-578,-9569,1745141532763244753
601695,191,-77,15,622,-670,-9492,1745141532763244753
601887,219,-91,24,502,-700,-9431,1745141532763244753
602079,229,-102,24,368,-637,-9338,1745141532763244753
602271,225,-104,13,250,-573,-9283,1745141532763244753
602463,220,-100,-3,143,-430,-9215,1745141532821118599
602655,215,-96,-17,103,-272,-9080,1745141532821118599
602847,214,-87,-30,49,-80,-8742,1745141532821118599
603039,195,-85,-19,89,-86,-8758,1745141532821118599
603231,133,-88,-4,345,-312,-9199,1745141532821118599
603423,30,-102,-16,605,-479,-9305,1745141532821118599
603615,-71,-147,-19,760,-491,-9231,1745141532821118599
603807,-129,-206,10,716,-313,-9093,1745141532821118599
603999,-136,-241,49,542,-94,-8881,1745141532821118599
604191,-107,-244,69,336,50,-8651,1745141532821118599
604383,-70,-229,59,142,112,-8479,1745141532821118599
604575,-31,-203,37,-41,169,-8290,1745141532821118599
604767,8,-171,14,-136,157,-8125,1745141532881516902
604959,37,-137,-4,-70,121,-8019,1745141532881516902
605151,51,-113,-20,113,33,-7954,1745141532881516902
605343,51,-98,-33,343,-52,-7951,1745141532881516902
605535,41,-94,-41,567,-77,-8011,1745141532881516902
605727,20,-96,-43,749,-104,-8080,1745141532881516902
605919,-1,-104,-43,876,-93,-8173,1745141532881516902
606111,-15,-115,-42,913,-76,-8268,1745141532881516902
606303,-17,-126,-44,895,-43,-8347,1745141532881516902
606495,-8,-132,-46,869,-13,-8431,1745141532881516902
606687,6,-135,-49,844,20,-8455,1745141532881516902
606879,20,-135,-52,838,14,-8478,1745141532881516902
607071,31,-132,-55,829,-33,-8517,1745141532936488275
607263,42,-126,-57,841,-55,-8528,1745141532936488275
607455,51,-113,-56,826,-73,-8544,1745141532936488275
607647,55,-105,-53,811,-85,-8540,1745141532936488275
607839,50,-101,-51,770,-149,-8542,1745141532936488275
608031,36,-95,-49,732,-205,-8512,1745141532936488275
608223,19,-90,-48,683,-224,-8456,1745141532936488275
608415,-3,-86,-47,612,-257,-8392,1745141532936488275
608607,-29,-84,-49,559,-259,-8318,1745141532936488275
608799,-54,-81,-54,476,-221,-8268,1745141532936488275
608991,-74,-76,-57,402,-165,-8197,1745141532936488275
609183,-90,-71,-61,354,-57,-8153,1745141532936488275
609375,-94,-65,-64,355,60,-8124,1745141532999697593
609567,-90,-63,-70,377,178,-8122,1745141532999697593
609759,-78,-63,-79,410,262,-8104,1745141532999697593
609951,-62,-65,-90,442,294,-8104,1745141532999697593
610143,-41,-69,-94,460,301,-8120,1745141532999697593
610335,-19,-74,-90,463,289,-8150,1745141532999697593
610527,3,-80,-84,471,264,-8134,1745141532999697593
610719,15,-88,-81,449,216,-8158,1745141532999697593
610911,21,-94,-81,424,153,-8182,1745141532999697593
611103,24,-97,-81,408,91,-8195,1745141532999697593
611295,26,-97,-78,390,49,-8233,1745141532999697593
611487,27,-95,-75,382,35,-8250,1745141532999697593
611679,22,-92,-74,347,19,-8253,1745141533057181026
611871,18,-87,-69,310,17,-8243,1745141533057181026
612063,14,-82,-62,304,9,-8265,1745141533057181026
612255,6,-76,-54,328,5,-8280,1745141533057181026
612447,-4,-72,-54,343,2,-8246,1745141533057181026
612639,-17,-70,-53,362,18,-8219,1745141533057181026
612831,-26,-69,-49,392,66,-8170,1745141533057181026
613023,-28,-67,-42,403,122,-8114,1745141533057181026
613215,-25,-68,-38,424,166,-8086,1745141533057181026
613407,-19,-69,-41,424,189,-8081,1745141533057181026
613599,-11,-68,-44,402,217,-8083,1745141533057181026
613791,-6,-69,-38,434,228,-8073,1745141533057181026
613983,1,-73,-29,419,205,-8064,1745141533115879292
614175,5,-76,-26,399,168,-8066,1745141533115879292
614367,7,-76,-24,401,164,-8077,1745141533115879292
614559,8,-77,-19,397,125,-8090,1745141533115879292
614751,8,-81,-12,410,61,-8104,1745141533115879292
614943,3,-86,-9,414,-20,-8104,1745141533115879292
615135,-6,-92,-5,372,-69,-8165,1745141533115879292
615327,-23,-95,-10,298,-81,-8181,1745141533115879292
615519,-37,-90,-16,216,-86,-8180,1745141533115879292
615711,-43,-83,-10,216,-61,-8197,1745141533115879292
615903,-49,-76,-2,217,-32,-8178,1745141533115879292
616095,-58,-70,3,278,5,-8198,1745141533115879292
616287,-64,-69,7,276,52,-8180,1745141533173498089
616479,-65,-66,12,292,88,-8160,1745141533173498089
616671,-61,-65,16,269,133,-8148,1745141533173498089
616863,-55,-62,14,265,165,-8131,1745141533173498089
617055,-45,-60,10,254,176,-8132,1745141533173498089
617247,-36,-58,9,281,179,-8107,1745141533173498089
617439,-26,-55,6,282,175,-8114,1745141533173498089
617631,-18,-52,6,291,158,-8126,1745141533173498089
617823,-10,-51,4,280,173,-8102,1745141533173498089
618015,-4,-49,0,284,156,-8097,1745141533173498089
618207,1,-47,-1,269,138,-8119,1745141533173498089
618399,5,-43,1,269,100,-8141,1745141533173498089
618591,8,-40,7,256,66,-8143,1745141533234241805
618783,6,-38,10,237,52,-8140,1745141533234241805
618975,3,-38,11,205,41,-8141,1745141533234241805
619167,-2,-36,8,189,10,-8146,1745141533234241805
619359,-8,-35,4,183,-12,-8165,1745141533234241805
619551,-15,-32,0,185,-51,-8156,1745141533234241805
619743,-23,-31,-1,180,-60,-8139,1745141533234241805
619935,-32,-27,-2,170,-33,-8143,1745141533234241805
620127,-37,-22,-4,173,7,-8169,1745141533234241805
620319,-38,-18,-9,173,44,-8173,1745141533234241805
620511,-34,-15,-13,193,90,-8157,1745141533234241805
620703,-26,-14,-15,206,106,-8164,1745141533234241805
620895,-19,-13,-15,227,112,-8177,1745141533287967408
621087,-13,-10,-13,209,126,-8162,1745141533287967408
621279,-8,-7,-13,210,166,-8178,1745141533287967408
621471,-3,-4,-12,195,172,-8185,1745141533287967408
621663,4,0,-12,193,166,-8174,1745141533287967408
621855,7,2,-12,211,155,-8141,1745141533287967408
622047,7,2,-10,230,132,-8111,1745141533287967408
622239,7,3,-10,230,122,-8110,1745141533287967408
622431,8,6,-9,238,131,-8107,1745141533287967408
622623,8,7,-9,248,100,-8123,1745141533287967408
622815,8,8,-10,251,98,-8120,1745141533287967408
623007,8,9,-10,250,65,-8124,1745141533287967408
623199,7,12,-9,254,51,-8119,1745141533353551392
623391,6,13,-6,252,50,-8121,1745141533353551392
623583,4,16,-4,253,43,-8109,1745141533353551392
623775,2,18,-2,269,55,-8116,1745141533353551392
623967,1,22,-1,266,77,-8121,1745141533353551392
624159,1,27,0,270,109,-8114,1745141533353551392
624351,1,31,1,278,124,-8119,1745141533353551392
624543,4,34,1,273,155,-8131,1745141533353551392
624735,11,38,6,253,197,-8129,1745141533353551392
624927,20,39,8,257,181,-8133,1745141533353551392
625119,27,41,10,264,175,-8133,1745141533353551392
625311,31,42,10,249,153,-8141,1745141533353551392
625503,33,42,10,236,115,-8149,1745141533408458963
625695,34,44,12,214,109,-8141,1745141533408458963
625887,36,44,15,191,82,-8135,1745141533408458963
626079,37,46,17,195,72,-8163,1745141533408458963
626271,35,48,16,200,20,-8164,1745141533408458963
626463,31,50,15,207,2,-8162,1745141533408458963
626655,24,51,16,198,-35,-8148,1745141533408458963
626847,16,54,19,205,-49,-8170,1745141533408458963
627039,9,59,23,196,-60,-8166,1745141533408458963
627231,-1,64,27,193,-36,-8159,1745141533408458963
627423,-9,68,28,206,2,-8135,1745141533408458963
627615,-16,72,29,224,3,-8129,1745141533408458963
627807,-19,77,30,248,63,-8107,1745141533466129999
627999,-17,83,32,265,101,-8104,1745141533466129999
628191,-9,91,36,316,165,-8090,1745141533466129999
628383,4,99,40,368,222,-8117,1745141533466129999
628575,17,106,41,390,244,-8167,1745141533466129999
628767,30,111,38,406,261,-8193,1745141533466129999
628959,43,115,36,389,222,-8203,1745141533466129999
629151,57,116,36,363,191,-8184,1745141533466129999
629343,69,118,36,295,122,-8181,1745141533466129999
629535,74,125,36,263,56,-8155,1745141533466129999
629727,74,134,36,241,-3,-8180,1745141533466129999
629919,70,144,36,241,-59,-8201,1745141533466129999
630111,66,155,33,254,-63,-8206,1745141533524466393
630303,63,166,29,293,-75,-8205,1745141533524466393
630495,58,175,27,338,-96,-8173,1745141533524466393
630687,52,182,24,374,-133,-8216,1745141533524466393
630879,40,187,22,378,-94,-8197,1745141533524466393
631071,29,192,20,374,-94,-8178,1745141533524466393
631263,24,195,18,369,-45,-8159,1745141533524466393
631455,27,198,17,391,-57,-8125,1745141533524466393
631647,32,199,14,387,-41,-8122,1745141533524466393
631839,36,199,10,402,45,-8083,1745141533524466393
632031,43,196,5,418,27,-8034,1745141533524466393
632223,56,195,1,453,29,-8022,1745141533524466393
632415,63,190,-5,464,13,-8066,1745141533583260544
632607,64,183,-10,465,-16,-8062,1745141533583260544
632799,64,178,-15,439,-47,-8069,1745141533583260544
632991,65,177,-17,435,-57,-8036,1745141533583260544
633183,66,176,-18,460,-57,-8099,1745141533583260544
633375,63,174,-19,483,-49,-8086,1745141533583260544
633567,62,171,-20,520,-75,-8097,1745141533583260544
633759,65,172,-22,572,-64,-8071,1745141533583260544
633951,73,173,-22,606,-67,-8055,1745141533583260544
634143,71,170,-20,639,-74,-8122,1745141533583260544
634335,65,161,-21,648,-74,-8127,1745141533583260544
634527,67,154,-19,642,-91,-8045,1745141533583260544
634719,81,152,-12,642,-116,-8037,1745141533641459960
634911,81,145,-8,637,-149,-8067,1745141533641459960
635103,61,134,-9,610,-133,-8021,1745141533641459960
635295,51,128,-6,585,-157,-7988,1745141533641459960
635487,51,124,-4,585,-104,-8067,1745141533641459960
635679,35,112,-4,589,-68,-8077,1745141533641459960
635871,17,103,-4,562,-51,-8028,1745141533641459960
636063,16,98,1,571,1,-7941,1745141533641459960
636255,23,94,9,601,57,-7936,1745141533641459960
636447,14,84,13,628,73,-7975,1745141533641459960
636639,4,70,16,642,63,-8002,1745141533641459960
636831,6,59,21,642,71,-8011,1745141533641459960
637023,12,53,27,641,85,-8014,1745141533697873142
637215,14,47,34,652,77,-8043,1745141533697873142
637407,13,40,38,645,70,-8053,1745141533697873142
637599,12,33,43,667,25,-8057,1745141533697873142
637791,13,27,48,673,1,-8053,1745141533697873142
637983,12,22,54,685,-54,-8069,1745141533697873142
638175,8,16,58,688,-98,-8071,1745141533697873142
