timestamp,gyr_x,gyr_y,gyr_z,acc_x,acc_y,acc_z,pkt_time_ns
85223,-75,126,2,310,413,-7395,1745140188744250442
85415,-38,7,3,952,-843,-8724,1745140188744250442
85607,-51,17,-37,707,-237,-8086,1745140188744250442
85799,-123,45,-25,610,23,-8072,1745140188744250442
85991,-96,10,-18,689,72,-8229,1745140188744250442
86183,-124,16,-18,677,177,-8257,1745140188744250442
86375,-137,6,-25,659,246,-8242,1745140188744250442
86567,-108,-16,-23,675,536,-8160,1745140188744250442
86759,-87,-12,-4,797,798,-8105,1745140188744250442
86951,-37,-24,9,734,754,-8107,1745140188744250442
87143,-6,-19,10,440,504,-8246,1745140188744250442
87335,6,21,1,279,187,-8396,1745140188744250442
87527,14,40,-9,422,26,-8642,1745140188800362065
87719,9,44,-8,870,3,-8827,1745140188800362065
87911,-3,21,-2,1365,76,-8952,1745140188800362065
88103,-3,-36,3,1770,422,-8999,1745140188800362065
88295,38,-102,12,1940,1004,-8943,1745140188800362065
88487,114,-180,27,1989,1376,-8825,1745140188800362065
88679,194,-257,40,1689,1301,-8574,1745140188800362065
88871,145,-315,42,834,-163,-8641,1745140188800362065
89063,230,-266,74,374,1188,-7602,1745140188800362065
89255,510,-219,100,-504,807,-7778,1745140188800362065
89447,676,-42,118,-799,151,-8054,1745140188800362065
89639,588,286,184,-712,-484,-7647,1745140188800362065
89831,314,311,98,-1281,-2381,-5322,1745140188860106779
90023,-72,52,-35,-915,-3095,-6926,1745140188860106779
90215,-255,113,-59,-408,-2107,-7062,1745140188860106779
90407,-356,112,-10,48,-918,-6970,1745140188860106779
90599,-385,120,36,400,140,-7240,1745140188860106779
90791,-353,114,29,621,939,-7427,1745140188860106779
90983,-266,85,-20,698,1369,-7590,1745140188860106779
91175,-157,51,-68,655,1444,-7796,1745140188860106779
91367,-55,31,-84,596,1276,-7912,1745140188860106779
91559,27,22,-74,581,989,-8001,1745140188860106779
91751,75,16,-54,585,672,-8035,1745140188860106779
91943,98,13,-38,623,379,-8039,1745140188860106779
92135,100,8,-33,643,127,-8048,1745140188917822190
92327,91,5,-31,663,-89,-8078,1745140188917822190
92519,72,1,-31,693,-213,-8071,1745140188917822190
92711,47,-4,-32,675,-295,-8069,1745140188917822190
92903,19,-11,-33,624,-273,-8046,1745140188917822190
93095,-10,-17,-32,571,-181,-7997,1745140188917822190
93287,-33,-19,-34,531,-62,-7963,1745140188917822190
93479,-48,-18,-39,452,81,-7901,1745140188917822190
93671,-55,-14,-42,446,200,-7864,1745140188917822190
93863,-54,-9,-47,453,251,-7838,1745140188917822190
94055,-51,-7,-52,466,244,-7810,1745140188917822190
94247,-46,-9,-56,509,207,-7791,1745140188917822190
94439,-45,-13,-56,489,174,-7777,1745140188974982397
94631,-43,-18,-56,482,175,-7767,1745140188974982397
94823,-40,-22,-52,468,183,-7779,1745140188974982397
95015,-33,-25,-51,439,225,-7796,1745140188974982397
95207,-24,-27,-49,407,243,-7836,1745140188974982397
95399,-14,-26,-49,407,254,-7874,1745140188974982397
95591,-5,-26,-50,388,224,-7902,1745140188974982397
95783,1,-25,-51,394,193,-7935,1745140188974982397
95975,5,-24,-52,401,152,-7963,1745140188974982397
96167,6,-24,-50,421,98,-7966,1745140188974982397
96359,2,-24,-47,430,76,-7979,1745140188974982397
96551,-5,-24,-43,438,66,-7962,1745140188974982397
96743,-14,-25,-40,464,71,-7949,1745140189034828152
96935,-22,-25,-37,469,93,-7927,1745140189034828152
97127,-28,-23,-36,489,136,-7911,1745140189034828152
97319,-32,-21,-38,510,179,-7919,1745140189034828152
97511,-34,-18,-38,554,221,-7919,1745140189034828152
97703,-33,-18,-38,593,252,-7934,1745140189034828152
97895,-32,-18,-37,618,256,-7985,1745140189034828152
98087,-31,-22,-36,634,251,-7992,1745140189034828152
98279,-30,-27,-34,614,252,-8008,1745140189034828152
98471,-31,-34,-34,597,228,-8001,1745140189034828152
98663,-33,-38,-33,534,199,-7987,1745140189034828152
98855,-33,-42,-31,493,168,-7975,1745140189034828152
99047,-34,-42,-31,449,147,-7948,1745140189091431333
99239,-33,-38,-31,418,149,-7935,1745140189091431333
99431,-35,-34,-32,403,148,-7927,1745140189091431333
99623,-36,-27,-34,382,124,-7934,1745140189091431333
99815,-35,-21,-37,396,136,-7950,1745140189091431333
100007,-36,-15,-39,412,154,-7973,1745140189091431333
100199,-37,-8,-39,408,173,-7994,1745140189091431333
100391,-37,-4,-39,426,199,-8012,1745140189091431333
100583,-36,2,-39,443,258,-8036,1745140189091431333
100775,-31,7,-38,444,283,-8046,1745140189091431333
100967,-26,16,-37,460,290,-8047,1745140189091431333
101159,-22,23,-38,473,286,-8069,1745140189091431333
101351,-16,31,-41,475,269,-8085,1745140189152056039
101543,-11,41,-47,487,242,-8111,1745140189152056039
101735,-9,49,-52,516,196,-8122,1745140189152056039
101927,-9,54,-57,522,175,-8127,1745140189152056039
102119,-15,61,-61,503,136,-8128,1745140189152056039
102311,-24,70,-63,481,87,-8146,1745140189152056039
102503,-31,79,-67,453,98,-8169,1745140189152056039
102695,-38,90,-69,428,115,-8177,1745140189152056039
102887,-45,103,-73,397,141,-8187,1745140189152056039
103079,-51,117,-78,395,174,-8182,1745140189152056039
103271,-55,133,-84,399,190,-8170,1745140189152056039
103463,-58,149,-89,418,224,-8167,1745140189152056039
103655,-57,166,-94,423,230,-8171,1745140189209419213
103847,-55,183,-98,425,262,-8223,1745140189209419213
104039,-52,203,-101,434,284,-8252,1745140189209419213
104231,-46,222,-104,481,300,-8290,1745140189209419213
104423,-37,241,-110,508,295,-8330,1745140189209419213
104615,-21,262,-119,531,300,-8372,1745140189209419213
104807,-2,283,-129,529,272,-8401,1745140189209419213
104999,18,304,-140,548,253,-8424,1745140189209419213
105191,39,326,-149,536,243,-8433,1745140189209419213
105383,59,348,-159,542,239,-8428,1745140189209419213
105575,76,371,-169,566,231,-8395,1745140189209419213
105767,93,395,-181,572,217,-8396,1745140189209419213
105959,111,422,-190,570,214,-8439,1745140189269381791
106151,133,454,-199,556,247,-8509,1745140189269381791
106343,157,489,-209,544,297,-8608,1745140189269381791
106535,186,527,-222,546,329,-8752,1745140189269381791
106727,222,564,-239,556,323,-8915,1745140189269381791
106919,267,602,-259,575,298,-9075,1745140189269381791
107111,317,646,-280,575,272,-9208,1745140189269381791
107303,375,696,-302,630,223,-9336,1745140189269381791
107495,440,745,-324,702,84,-9489,1745140189269381791
107687,505,792,-347,793,-175,-9681,1745140189269381791
107879,564,833,-374,924,-546,-9933,1745140189269381791
108071,608,867,-398,1022,-955,-10222,1745140189269381791
108263,629,902,-415,1123,-1408,-10497,1745140189326834859
108455,638,931,-435,1210,-1833,-10863,1745140189326834859
108647,636,954,-453,1298,-2180,-11299,1745140189326834859
108839,626,971,-460,1372,-2415,-11762,1745140189326834859
109031,619,987,-461,1435,-2568,-12310,1745140189326834859
109223,628,991,-458,1569,-2742,-12734,1745140189326834859
109415,672,980,-456,1748,-3098,-13329,1745140189326834859
109607,799,959,-443,2063,-3719,-13637,1745140189326834859
109799,977,938,-411,2407,-4745,-13769,1745140189326834859
109991,1086,915,-347,2859,-5597,-14507,1745140189326834859
110183,1078,837,-276,3497,-6052,-15144,1745140189326834859
110375,946,714,-223,4168,-6585,-15261,1745140189326834859
110567,724,528,-167,4705,-7429,-15062,1745140189387166652
110759,526,346,-60,4851,-8096,-15231,1745140189387166652
110951,354,186,97,4689,-8240,-15343,1745140189387166652
111143,90,89,234,4427,-7693,-14923,1745140189387166652
111335,-195,66,273,4195,-6393,-14655,1745140189387166652
111527,-344,98,196,3970,-4184,-14417,1745140189387166652
111719,-266,113,63,3909,-1454,-14163,1745140189387166652
111911,63,146,-34,4466,1004,-15217,1745140189387166652
112103,506,252,-38,5059,2067,-14985,1745140189387166652
112295,813,100,50,6633,1385,-15933,1745140189387166652
112487,1068,-194,255,8330,-25,-17160,1745140189387166652
112679,1356,-617,593,9603,-1118,-18270,1745140189387166652
112871,1768,-1074,979,10094,-1273,-19477,1745140189447294280
113063,2356,-1470,1304,9794,-1165,-20171,1745140189447294280
113255,2910,-1859,1468,9285,-1370,-20770,1745140189447294280
113447,3370,-2163,1566,8515,-2152,-20670,1745140189447294280
113639,3616,-2439,1652,7524,-3146,-19797,1745140189447294280
113831,3683,-2681,1775,6864,-3778,-19469,1745140189447294280
114023,3663,-2761,1952,6175,-3920,-18459,1745140189447294280
114215,3509,-2841,2118,5992,-3831,-17488,1745140189447294280
114407,3267,-2927,2249,6140,-3546,-16738,1745140189447294280
114599,2961,-3037,2358,6467,-3316,-16013,1745140189447294280
114791,2618,-3178,2455,6763,-3056,-15310,1745140189447294280
114983,2277,-3333,2566,7002,-2832,-14567,1745140189447294280
115175,1951,-3489,2684,7102,-2571,-13834,1745140189504570007
115367,1639,-3645,2787,7115,-2300,-13185,1745140189504570007
115559,1344,-3804,2863,7042,-1943,-12609,1745140189504570007
115751,1068,-3960,2914,6890,-1491,-12061,1745140189504570007
115943,829,-4107,2939,6684,-937,-11611,1745140189504570007
116135,647,-4240,2938,6502,-289,-11063,1745140189504570007
116327,533,-4356,2920,6329,424,-10382,1745140189504570007
116519,487,-4457,2884,6193,1165,-9726,1745140189504570007
116711,493,-4547,2837,6137,1846,-9115,1745140189504570007
116903,543,-4632,2792,6095,2384,-8624,1745140189504570007
117095,638,-4719,2756,6005,2774,-8164,1745140189504570007
117287,775,-4797,2732,5873,3006,-7799,1745140189504570007
117479,937,-4864,2725,5717,3111,-7362,1745140189564530344
117671,1097,-4913,2730,5512,3090,-6837,1745140189564530344
117863,1234,-4938,2739,5265,3050,-6425,1745140189564530344
118055,1339,-4942,2745,5019,2980,-5864,1745140189564530344
118247,1421,-4927,2745,4750,2881,-5362,1745140189564530344
118439,1478,-4904,2738,4551,2708,-4876,1745140189564530344
118631,1510,-4876,2728,4319,2515,-4400,1745140189564530344
118823,1526,-4842,2718,4110,2341,-4034,1745140189564530344
119015,1519,-4803,2706,3937,2201,-3534,1745140189564530344
119207,1491,-4761,2689,3779,2104,-3004,1745140189564530344
119399,1441,-4722,2664,3685,2022,-2503,1745140189564530344
119591,1370,-4686,2631,3578,1974,-1869,1745140189564530344
119783,1292,-4653,2596,3401,1939,-1263,1745140189618710318
119975,1211,-4616,2564,3202,1926,-783,1745140189618710318
120167,1121,-4580,2526,2933,1959,-307,1745140189618710318
120359,1030,-4541,2483,2597,1973,68,1745140189618710318
120551,950,-4501,2437,2248,2003,312,1745140189618710318
120743,887,-4458,2392,1863,2016,345,1745140189618710318
120935,854,-4409,2345,1483,2009,348,1745140189618710318
121127,839,-4350,2294,1103,1989,365,1745140189618710318
121319,819,-4281,2235,754,1984,506,1745140189618710318
121511,788,-4199,2171,459,2010,295,1745140189618710318
121703,746,-4118,2102,311,2069,925,1745140189618710318
121895,700,-4031,2022,136,2242,1373,1745140189618710318
122087,629,-3943,1944,-135,2414,1887,1745140189680789439
122279,550,-3855,1871,-434,2551,2503,1745140189680789439
122471,492,-3776,1806,-786,2658,3072,1745140189680789439
122663,450,-3701,1745,-1259,2769,3562,1745140189680789439
122855,408,-3621,1680,-1812,2875,4077,1745140189680789439
123047,353,-3537,1603,-2338,2900,4543,1745140189680789439
123239,289,-3445,1519,-2969,2886,4883,1745140189680789439
123431,215,-3340,1431,-3634,2746,5116,1745140189680789439
123623,132,-3217,1330,-4279,2608,5210,1745140189680789439
123815,53,-3069,1214,-4943,2491,5228,1745140189680789439
124007,-4,-2895,1085,-5574,2459,5266,1745140189680789439
124199,-29,-2705,956,-6035,2439,5386,1745140189680789439
124391,-23,-2499,840,-6382,2428,5378,1745140189739899680
124583,2,-2281,739,-6573,2418,5357,1745140189739899680
124775,43,-2054,651,-6654,2441,5304,1745140189739899680
124967,112,-1842,579,-6618,2576,5339,1745140189739899680
125159,212,-1650,519,-6498,2677,5332,1745140189739899680
125351,326,-1473,460,-6391,2720,5218,1745140189739899680
125543,437,-1307,399,-6329,2693,5185,1745140189739899680
125735,547,-1159,342,-6334,2622,5144,1745140189739899680
125927,649,-1029,295,-6434,2543,5069,1745140189739899680
126119,739,-908,257,-6618,2407,4985,1745140189739899680
126311,818,-788,221,-6806,2266,4917,1745140189739899680
126503,892,-670,187,-6985,2152,4881,1745140189739899680
126695,968,-556,157,-7158,1998,4774,1745140189800249024
126887,1044,-444,129,-7251,1841,4565,1745140189800249024
127079,1106,-341,102,-7315,1643,4348,1745140189800249024
127271,1143,-251,76,-7304,1432,4088,1745140189800249024
127463,1160,-172,54,-7257,1178,3832,1745140189800249024
127655,1157,-107,36,-7201,933,3547,1745140189800249024
127847,1139,-60,20,-7097,689,3309,1745140189800249024
128039,1104,-23,9,-7086,526,3104,1745140189800249024
128231,1049,7,2,-7093,357,2958,1745140189800249024
128423,974,32,-3,-7115,234,2822,1745140189800249024
128615,884,52,-5,-7138,143,2622,1745140189800249024
128807,792,68,1,-7130,66,2450,1745140189800249024
128999,709,77,13,-7110,9,2321,1745140189856357887
129191,629,80,19,-7113,-25,2207,1745140189856357887
129383,545,72,17,-7159,-4,2090,1745140189856357887
129575,459,60,16,-7239,-14,1955,1745140189856357887
129767,379,47,16,-7356,-51,1772,1745140189856357887
129959,311,35,23,-7490,-81,1581,1745140189856357887
130151,259,16,37,-7653,-93,1438,1745140189856357887
130343,221,-4,51,-7798,-46,1386,1745140189856357887
130535,189,-18,61,-7924,20,1315,1745140189856357887
130727,160,-23,64,-7997,69,1200,1745140189856357887
130919,133,-22,60,-8025,104,1143,1745140189856357887
131111,112,-24,53,-8027,95,1114,1745140189856357887
131303,95,-30,45,-8060,69,1080,1745140189916980666
131495,76,-34,34,-8082,3,1061,1745140189916980666
131687,52,-32,23,-8090,-48,1047,1745140189916980666
131879,26,-28,20,-8079,-94,1030,1745140189916980666
132071,-4,-19,24,-8075,-148,975,1745140189916980666
132263,-35,-4,38,-8032,-180,853,1745140189916980666
132455,-64,4,50,-8008,-214,690,1745140189916980666
132647,-99,1,44,-8012,-238,552,1745140189916980666
132839,-132,-3,27,-8028,-266,458,1745140189916980666
133031,-158,-6,9,-8077,-262,420,1745140189916980666
133223,-178,-1,-3,-8117,-235,333,1745140189916980666
133415,-196,13,-6,-8156,-247,220,1745140189916980666
133607,-207,29,-8,-8142,-263,163,1745140189973845720
133799,-207,40,-10,-8103,-272,99,1745140189973845720
133991,-191,47,-3,-8094,-278,70,1745140189973845720
134183,-166,54,10,-8096,-238,31,1745140189973845720
134375,-153,45,5,-8179,-172,-7,1745140189973845720
134567,-148,34,-10,-8298,-171,-26,1745140189973845720
134759,-132,29,-27,-8435,-214,-49,1745140189973845720
134951,-109,36,-45,-8532,-298,-104,1745140189973845720
135143,-85,57,-59,-8569,-413,-159,1745140189973845720
135335,-71,84,-62,-8497,-530,-247,1745140189973845720
135527,-65,108,-60,-8413,-660,-313,1745140189973845720
135719,-60,121,-58,-8282,-755,-364,1745140189973845720
135911,-53,132,-49,-8191,-790,-456,1745140190033749912
136103,-46,142,-28,-8134,-804,-623,1745140190033749912
136295,-44,137,-17,-8133,-786,-748,1745140190033749912
136487,-37,122,-15,-8146,-774,-832,1745140190033749912
136679,-20,108,-20,-8218,-733,-845,1745140190033749912
136871,-4,99,-28,-8253,-666,-852,1745140190033749912
137063,7,94,-42,-8281,-683,-861,1745140190033749912
137255,16,96,-55,-8282,-743,-831,1745140190033749912
137447,31,98,-62,-8274,-805,-799,1745140190033749912
137639,39,100,-67,-8269,-851,-811,1745140190033749912
137831,33,103,-68,-8292,-880,-867,1745140190033749912
138023,22,113,-68,-8221,-945,-946,1745140190033749912
138215,20,97,-68,-8128,-916,-1112,1745140190090407572
138407,28,112,-61,-8373,-852,-1138,1745140190090407572
138599,46,106,-64,-8438,-867,-1123,1745140190090407572
138791,60,123,-87,-8547,-897,-1109,1745140190090407572
138983,67,129,-116,-8582,-978,-1132,1745140190090407572
139175,73,197,-116,-8593,-891,-1124,1745140190090407572
139367,96,186,-59,-7875,-786,-1158,1745140190090407572
139559,106,131,-10,-7297,-795,-1267,1745140190090407572
139751,94,53,2,-7170,-794,-1281,1745140190090407572
139943,76,-10,-6,-7359,-845,-1154,1745140190090407572
140135,59,-35,-11,-7766,-947,-1125,1745140190090407572
140327,39,-55,-15,-8050,-1034,-1053,1745140190090407572
140519,11,-57,-16,-8288,-1106,-939,1745140190150928373
140711,-22,-40,-14,-8423,-1180,-845,1745140190150928373
140903,-54,-13,-10,-8337,-1166,-814,1745140190150928373
141095,-85,4,-2,-8143,-1091,-863,1745140190150928373
141287,-115,3,4,-7906,-957,-861,1745140190150928373
141479,-137,-12,9,-7746,-799,-860,1745140190150928373
141671,-147,-29,11,-7722,-645,-874,1745140190150928373
141863,-151,-42,14,-7750,-543,-882,1745140190150928373
142055,-148,-47,16,-7868,-507,-847,1745140190150928373
142247,-136,-48,13,-7953,-522,-801,1745140190150928373
142439,-122,-44,6,-8007,-568,-744,1745140190150928373
142631,-109,-33,-2,-8014,-617,-681,1745140190150928373
142823,-100,-23,-7,-8000,-626,-679,1745140190207688532
143015,-97,-19,-8,-7896,-623,-633,1745140190207688532
143207,-96,-28,-7,-7770,-577,-586,1745140190207688532
143399,-94,-43,-4,-7744,-517,-578,1745140190207688532
143591,-89,-52,0,-7824,-449,-544,1745140190207688532
143783,-82,-58,-2,-7923,-409,-523,1745140190207688532
143975,-78,-56,-11,-8047,-409,-507,1745140190207688532
144167,-68,-47,-20,-8132,-442,-486,1745140190207688532
144359,-57,-32,-26,-8140,-475,-422,1745140190207688532
144551,-50,-13,-30,-8133,-513,-398,1745140190207688532
144743,-46,2,-30,-8085,-594,-380,1745140190207688532
144935,-43,16,-26,-8036,-648,-400,1745140190207688532
145127,-42,30,-24,-8004,-663,-420,1745140190268542507
145319,-43,44,-24,-7959,-653,-472,1745140190268542507
145511,-44,57,-25,-7926,-633,-514,1745140190268542507
145703,-34,64,-25,-7915,-632,-533,1745140190268542507
145895,-12,69,-25,-7900,-605,-566,1745140190268542507
146087,17,77,-26,-7888,-578,-606,1745140190268542507
146279,47,85,-28,-7866,-565,-642,1745140190268542507
146471,80,86,-32,-7818,-564,-660,1745140190268542507
146663,110,81,-37,-7825,-587,-653,1745140190268542507
146855,131,76,-39,-7837,-618,-666,1745140190268542507
147047,143,77,-39,-7864,-639,-681,1745140190268542507
147239,144,79,-37,-7902,-695,-697,1745140190268542507
147431,135,81,-36,-7939,-761,-735,1745140190324676161
147623,118,83,-35,-7941,-860,-770,1745140190324676161
147815,97,85,-33,-7979,-919,-791,1745140190324676161
148007,70,86,-28,-7980,-965,-781,1745140190324676161
148199,39,85,-22,-7991,-971,-785,1745140190324676161
148391,4,86,-16,-8004,-937,-790,1745140190324676161
148583,-26,85,-9,-8008,-908,-824,1745140190324676161
148775,-46,84,-4,-7994,-845,-863,1745140190324676161
148967,-58,85,1,-7968,-780,-883,1745140190324676161
149159,-64,84,3,-7955,-716,-879,1745140190324676161
149351,-67,83,3,-7960,-654,-879,1745140190324676161
149543,-65,84,5,-7937,-617,-872,1745140190324676161
149735,-60,85,5,-7921,-616,-905,1745140190385129150
149927,-52,81,4,-7905,-601,-929,1745140190385129150
150119,-38,76,6,-7916,-564,-929,1745140190385129150
150311,-22,69,9,-7953,-536,-904,1745140190385129150
150503,-4,64,10,-7999,-506,-900,1745140190385129150
150695,14,62,9,-8051,-461,-865,1745140190385129150
150887,33,64,9,-8110,-470,-853,1745140190385129150
151079,51,71,6,-8126,-464,-867,1745140190385129150
151271,64,77,-1,-8121,-483,-902,1745140190385129150
151463,72,82,-8,-8110,-524,-923,1745140190385129150
151655,77,84,-10,-8112,-593,-963,1745140190385129150
151847,79,82,-10,-8075,-614,-976,1745140190385129150
152039,76,76,-12,-8101,-666,-980,1745140190442692114
152231,69,70,-15,-8122,-649,-981,1745140190442692114
152423,59,67,-16,-8158,-648,-979,1745140190442692114
152615,52,65,-17,-8152,-659,-1005,1745140190442692114
152807,50,62,-17,-8134,-633,-1014,1745140190442692114
152999,51,57,-18,-8133,-622,-1031,1745140190442692114
153191,55,52,-18,-8136,-608,-1029,1745140190442692114
153383,60,46,-18,-8122,-562,-1030,1745140190442692114
153575,62,40,-18,-8131,-533,-1040,1745140190442692114
153767,63,35,-18,-8128,-548,-1019,1745140190442692114
153959,65,29,-18,-8135,-592,-978,1745140190442692114
154151,68,22,-18,-8185,-646,-950,1745140190442692114
154343,65,19,-17,-8228,-679,-932,1745140190502554276
154535,50,19,-20,-8267,-746,-939,1745140190502554276
154727,31,24,-24,-8261,-779,-918,1745140190502554276
154919,14,29,-27,-8243,-818,-897,1745140190502554276
155111,-2,34,-28,-8223,-811,-903,1745140190502554276
155303,-18,39,-28,-8167,-780,-901,1745140190502554276
155495,-28,41,-26,-8101,-704,-925,1745140190502554276
155687,-29,41,-25,-8065,-606,-973,1745140190502554276
155879,-22,38,-24,-8026,-526,-1025,1745140190502554276
156071,-9,33,-23,-8025,-459,-1044,1745140190502554276
156263,9,25,-23,-8036,-446,-1018,1745140190502554276
156455,31,18,-21,-8073,-469,-1015,1745140190502554276
156647,49,16,-20,-8110,-540,-991,1745140190558952302
156839,60,15,-23,-8132,-618,-963,1745140190558952302
157031,62,16,-26,-8148,-689,-949,1745140190558952302
157223,56,16,-27,-8126,-737,-938,1745140190558952302
157415,44,18,-29,-8112,-752,-930,1745140190558952302
157607,30,19,-29,-8075,-734,-899,1745140190558952302
157799,15,22,-30,-8025,-710,-880,1745140190558952302
157991,2,23,-30,-7999,-678,-866,1745140190558952302
158183,-7,22,-29,-7971,-643,-858,1745140190558952302
158375,-11,22,-30,-7988,-635,-843,1745140190558952302
158567,-9,18,-31,-8002,-611,-885,1745140190558952302
158759,-7,17,-33,-8048,-630,-935,1745140190558952302
158951,-2,13,-35,-8083,-623,-947,1745140190620339658
159143,6,12,-35,-8094,-651,-960,1745140190620339658
159335,11,13,-38,-8087,-660,-946,1745140190620339658
159527,9,15,-41,-8068,-652,-934,1745140190620339658
159719,4,16,-43,-8053,-662,-928,1745140190620339658
159911,-1,16,-44,-8022,-630,-927,1745140190620339658
160103,-1,15,-41,-7993,-625,-920,1745140190620339658
160295,0,16,-39,-7946,-617,-908,1745140190620339658
160487,3,15,-40,-7935,-606,-897,1745140190620339658
160679,11,14,-39,-7912,-642,-861,1745140190620339658
160871,18,12,-39,-7921,-695,-856,1745140190620339658
161063,21,13,-42,-7949,-751,-859,1745140190620339658
161255,22,13,-46,-7961,-789,-893,1745140190677720175
161447,22,13,-47,-7986,-792,-918,1745140190677720175
161639,20,12,-45,-7990,-794,-940,1745140190677720175
161831,15,11,-42,-8011,-757,-936,1745140190677720175
162023,11,8,-39,-8037,-757,-918,1745140190677720175
162215,11,5,-37,-8082,-766,-891,1745140190677720175
162407,14,4,-38,-8138,-776,-873,1745140190677720175
162599,14,9,-39,-8148,-779,-863,1745140190677720175
162791,11,19,-41,-8135,-793,-862,1745140190677720175
162983,11,27,-42,-8082,-817,-841,1745140190677720175
163175,13,35,-44,-8040,-817,-839,1745140190677720175
163367,15,42,-42,-7955,-800,-876,1745140190677720175
163559,16,48,-39,-7904,-784,-924,1745140190736551773
163751,17,50,-37,-7873,-768,-950,1745140190736551773
163943,25,45,-35,-7871,-773,-952,1745140190736551773
164135,34,34,-34,-7924,-800,-977,1745140190736551773
164327,43,25,-32,-8016,-835,-987,1745140190736551773
164519,48,23,-28,-8098,-889,-946,1745140190736551773
164711,45,25,-26,-8167,-903,-940,1745140190736551773
164903,40,30,-26,-8169,-904,-910,1745140190736551773
165095,32,37,-20,-8173,-902,-884,1745140190736551773
165287,26,45,-15,-8136,-889,-839,1745140190736551773
165479,19,54,-12,-8075,-869,-818,1745140190736551773
165671,14,65,-10,-8026,-868,-831,1745140190736551773
165863,10,71,-10,-7926,-868,-879,1745140190794085727
166055,7,74,-11,-7856,-863,-959,1745140190794085727
166247,6,76,-10,-7783,-833,-1025,1745140190794085727
166439,9,70,-9,-7739,-803,-1069,1745140190794085727
166631,12,61,-7,-7734,-780,-1108,1745140190794085727
166823,13,52,-6,-7765,-749,-1116,1745140190794085727
167015,12,42,-6,-7834,-747,-1126,1745140190794085727
167207,10,35,-5,-7898,-773,-1100,1745140190794085727
167399,8,30,-5,-7947,-812,-1069,1745140190794085727
167591,6,29,-4,-7984,-806,-1046,1745140190794085727
167783,1,31,-3,-8003,-777,-1038,1745140190794085727
167975,-5,35,-1,-7999,-735,-1016,1745140190794085727
168167,-8,39,0,-7952,-671,-1036,1745140190854239605
168359,-8,42,2,-7893,-653,-1058,1745140190854239605
168551,-2,41,2,-7873,-663,-1089,1745140190854239605
168743,8,36,2,-7842,-664,-1084,1745140190854239605
168935,21,27,1,-7849,-703,-1089,1745140190854239605
169127,30,20,0,-7888,-732,-1074,1745140190854239605
169319,35,12,-2,-7943,-771,-1058,1745140190854239605
169511,35,9,-4,-7975,-789,-1049,1745140190854239605
169703,29,6,-4,-8019,-799,-1022,1745140190854239605
169895,21,4,-4,-8071,-798,-1014,1745140190854239605
170087,14,4,-4,-8116,-794,-999,1745140190854239605
170279,7,8,-6,-8110,-770,-993,1745140190854239605
170471,-2,14,-6,-8072,-764,-985,1745140190911895849
170663,-12,22,-5,-8030,-713,-970,1745140190911895849
170855,-20,29,-4,-7968,-720,-983,1745140190911895849
171047,-25,35,-2,-7918,-737,-983,1745140190911895849
171239,-27,37,-2,-7879,-740,-983,1745140190911895849
171431,-28,35,-2,-7877,-748,-972,1745140190911895849
171623,-29,30,-2,-7893,-733,-922,1745140190911895849
171815,-23,27,-2,-7929,-711,-879,1745140190911895849
172007,-19,28,-1,-7999,-678,-861,1745140190911895849
172199,-14,33,-1,-8048,-656,-857,1745140190911895849
172391,0,37,0,-8105,-650,-883,1745140190911895849
172583,23,42,1,-8163,-650,-930,1745140190911895849
172775,49,46,0,-8186,-683,-957,1745140190971569366
172967,65,50,-5,-8225,-714,-986,1745140190971569366
173159,71,56,-9,-8251,-751,-993,1745140190971569366
173351,69,63,-12,-8260,-769,-994,1745140190971569366
173543,58,75,-13,-8221,-783,-999,1745140190971569366
173735,43,86,-12,-8171,-788,-1026,1745140190971569366
173927,28,94,-12,-8108,-775,-1054,1745140190971569366
174119,13,97,-10,-8040,-741,-1113,1745140190971569366
174311,1,96,-10,-8015,-728,-1150,1745140190971569366
174503,-5,90,-10,-7988,-726,-1163,1745140190971569366
174695,-4,84,-9,-8030,-694,-1199,1745140190971569366
174887,-1,77,-11,-8045,-659,-1200,1745140190971569366
175079,0,71,-14,-8086,-594,-1222,1745140191029199100
175271,3,67,-16,-8113,-566,-1223,1745140191029199100
175463,14,65,-17,-8122,-542,-1220,1745140191029199100
175655,27,62,-19,-8117,-517,-1212,1745140191029199100
175847,38,59,-22,-8087,-509,-1176,1745140191029199100
176039,45,56,-25,-8092,-509,-1174,1745140191029199100
176231,50,56,-28,-8072,-535,-1175,1745140191029199100
176423,54,54,-31,-8057,-584,-1190,1745140191029199100
176615,53,54,-35,-8032,-634,-1214,1745140191029199100
176807,46,53,-40,-8017,-687,-1216,1745140191029199100
176999,36,50,-43,-7988,-730,-1203,1745140191029199100
177191,26,46,-43,-7972,-724,-1198,1745140191029199100
177383,13,38,-42,-7976,-730,-1194,1745140191081827369
177575,-1,30,-42,-7988,-705,-1196,1745140191081827369
177767,-12,24,-43,-8026,-662,-1190,1745140191081827369
177959,-16,19,-43,-8047,-632,-1178,1745140191081827369
178151,-13,14,-45,-8082,-589,-1172,1745140191081827369
178343,-10,12,-49,-8087,-562,-1137,1745140191081827369
178535,-6,13,-52,-8102,-563,-1130,1745140191081827369
178727,1,12,-57,-8092,-598,-1119,1745140191081827369
178919,8,13,-59,-8099,-630,-1103,1745140191081827369
179111,11,14,-65,-8092,-663,-1091,1745140191081827369
179303,9,15,-69,-8083,-688,-1088,1745140191081827369
179495,5,16,-71,-8070,-714,-1056,1745140191081827369
179687,1,16,-71,-8091,-700,-1038,1745140191147505415
179879,-5,15,-73,-8092,-692,-1047,1745140191147505415
180071,-11,19,-75,-8132,-681,-1093,1745140191147505415
180263,-13,23,-79,-8110,-692,-1089,1745140191147505415
180455,-11,29,-81,-8085,-680,-1048,1745140191147505415
180647,-3,31,-84,-8048,-695,-1035,1745140191147505415
180839,6,32,-85,-8013,-673,-1053,1745140191147505415
181031,14,33,-85,-7998,-683,-1060,1745140191147505415
181223,17,34,-87,-7964,-715,-1063,1745140191147505415
181415,22,32,-90,-7956,-762,-1069,1745140191147505415
181607,24,30,-94,-7953,-787,-1067,1745140191147505415
181799,22,28,-95,-7972,-812,-1082,1745140191147505415
181991,18,28,-94,-7984,-852,-1097,1745140191198979164
182183,16,29,-93,-8007,-879,-1114,1745140191198979164
182375,17,30,-91,-8011,-850,-1114,1745140191198979164
182567,19,33,-89,-7993,-833,-1136,1745140191198979164
182759,23,36,-88,-7969,-829,-1151,1745140191198979164
182951,30,38,-87,-7936,-888,-1179,1745140191198979164
183143,43,37,-87,-7929,-918,-1184,1745140191198979164
183335,53,33,-87,-7917,-938,-1204,1745140191198979164
183527,57,31,-87,-7906,-972,-1215,1745140191198979164
183719,55,29,-87,-7920,-1008,-1209,1745140191198979164
183911,52,27,-86,-7907,-1023,-1193,1745140191198979164
184103,48,25,-85,-7913,-1013,-1190,1745140191198979164
184295,44,25,-81,-7918,-1021,-1186,1745140191264457732
184487,41,26,-74,-7915,-1028,-1165,1745140191264457732
184679,42,25,-68,-7923,-1045,-1144,1745140191264457732
184871,44,25,-61,-7917,-1073,-1119,1745140191264457732
185063,43,29,-58,-7940,-1136,-1114,1745140191264457732
185255,39,34,-54,-7930,-1204,-1120,1745140191264457732
185447,34,35,-49,-7924,-1272,-1133,1745140191264457732
185639,25,35,-45,-7943,-1316,-1148,1745140191264457732
185831,12,36,-38,-7947,-1344,-1152,1745140191264457732
186023,-3,36,-33,-7948,-1351,-1132,1745140191264457732
186215,-19,38,-28,-7963,-1316,-1120,1745140191264457732
186407,-36,39,-25,-7963,-1297,-1122,1745140191264457732
186599,-54,42,-25,-7991,-1238,-1142,1745140191316300592
186791,-67,44,-22,-7985,-1179,-1162,1745140191316300592
186983,-74,47,-17,-8003,-1096,-1195,1745140191316300592
187175,-73,52,-9,-8007,-1007,-1250,1745140191316300592
187367,-70,55,-6,-7994,-909,-1275,1745140191316300592
187559,-61,57,-10,-7967,-853,-1292,1745140191316300592
187751,-41,59,-14,-7951,-815,-1322,1745140191316300592
187943,-12,60,-11,-7927,-798,-1344,1745140191316300592
188135,19,58,-8,-7914,-806,-1358,1745140191316300592
188327,41,56,-8,-7919,-844,-1360,1745140191316300592
188519,57,52,-11,-7934,-886,-1341,1745140191316300592
188711,66,49,-15,-7950,-940,-1343,1745140191316300592
188903,69,48,-15,-7965,-982,-1355,1745140191381932961
189095,65,47,-17,-7954,-1007,-1361,1745140191381932961
189287,54,47,-18,-7984,-1008,-1362,1745140191381932961
189479,40,45,-20,-7965,-993,-1361,1745140191381932961
189671,28,43,-23,-7956,-987,-1362,1745140191381932961
189863,18,41,-25,-7933,-937,-1395,1745140191381932961
190055,9,37,-27,-7914,-901,-1417,1745140191381932961
190247,3,35,-30,-7918,-851,-1421,1745140191381932961
190439,-2,33,-33,-7906,-823,-1403,1745140191381932961
190631,-3,29,-35,-7887,-833,-1411,1745140191381932961
190823,-2,28,-37,-7892,-837,-1409,1745140191381932961
191015,-1,25,-40,-7892,-844,-1410,1745140191381932961
191207,0,22,-43,-7870,-875,-1402,1745140191439375874
191399,5,17,-43,-7860,-882,-1407,1745140191439375874
191591,11,12,-43,-7864,-890,-1412,1745140191439375874
191783,20,9,-44,-7861,-832,-1423,1745140191439375874
191975,30,5,-45,-7860,-795,-1410,1745140191439375874
192167,42,2,-48,-7852,-780,-1392,1745140191439375874
192359,54,1,-52,-7854,-798,-1378,1745140191439375874
192551,65,0,-55,-7852,-857,-1375,1745140191439375874
192743,74,-1,-58,-7860,-923,-1362,1745140191439375874
192935,75,-2,-59,-7836,-989,-1347,1745140191439375874
193127,69,-4,-61,-7849,-1039,-1316,1745140191439375874
193319,59,-6,-60,-7855,-1083,-1290,1745140191439375874
193511,51,-9,-57,-7903,-1121,-1257,1745140191498632520
193703,43,-13,-54,-7933,-1102,-1232,1745140191498632520
193895,37,-14,-50,-7975,-1119,-1223,1745140191498632520
194087,31,-13,-48,-8022,-1116,-1211,1745140191498632520
194279,30,-10,-48,-8036,-1115,-1195,1745140191498632520
194471,27,-6,-47,-8025,-1128,-1186,1745140191498632520
194663,18,1,-49,-7980,-1121,-1150,1745140191498632520
194855,6,6,-47,-7969,-1154,-1120,1745140191498632520
195047,-6,12,-43,-7957,-1161,-1121,1745140191498632520
195239,-17,16,-38,-7953,-1175,-1106,1745140191498632520
195431,-29,21,-36,-7926,-1164,-1106,1745140191498632520
195623,-37,26,-35,-7916,-1140,-1117,1745140191498632520
195815,-41,28,-34,-7910,-1115,-1152,1745140191550681159
196007,-40,30,-33,-7895,-1069,-1200,1745140191550681159
196199,-36,31,-33,-7877,-1016,-1212,1745140191550681159
196391,-30,32,-36,-7878,-1001,-1220,1745140191550681159
196583,-19,30,-37,-7881,-941,-1214,1745140191550681159
196775,-7,29,-36,-7871,-908,-1211,1745140191550681159
196967,7,29,-37,-7869,-870,-1219,1745140191550681159
197159,20,29,-37,-7845,-876,-1207,1745140191550681159
197351,32,30,-38,-7835,-898,-1214,1745140191550681159
197543,41,30,-41,-7808,-923,-1194,1745140191550681159
197735,44,30,-44,-7794,-973,-1145,1745140191550681159
197927,39,30,-46,-7770,-1029,-1139,1745140191550681159
198119,30,30,-48,-7759,-1068,-1115,1745140191616157592
198311,16,31,-46,-7769,-1087,-1095,1745140191616157592
198503,0,34,-45,-7802,-1078,-1093,1745140191616157592
198695,-17,40,-42,-7813,-1045,-1096,1745140191616157592
198887,-30,46,-39,-7829,-994,-1102,1745140191616157592
199079,-37,53,-36,-7845,-950,-1106,1745140191616157592
199271,-34,58,-35,-7843,-960,-1104,1745140191616157592
199463,-25,61,-39,-7862,-979,-1094,1745140191616157592
199655,-16,65,-44,-7903,-993,-1107,1745140191616157592
199847,-12,72,-50,-7939,-1036,-1105,1745140191616157592
200039,-7,81,-54,-7970,-1056,-1127,1745140191616157592
200231,-2,92,-51,-8000,-1107,-1169,1745140191616157592
200423,7,99,-47,-8029,-1149,-1180,1745140191672753586
200615,23,104,-44,-8051,-1162,-1221,1745140191672753586
200807,44,108,-41,-8070,-1177,-1245,1745140191672753586
200999,70,119,-30,-8065,-1190,-1283,1745140191672753586
201191,94,125,-22,-8061,-1216,-1324,1745140191672753586
201383,111,123,-27,-8071,-1230,-1328,1745140191672753586
201575,126,122,-36,-8075,-1261,-1306,1745140191672753586
201767,141,128,-37,-8064,-1312,-1312,1745140191672753586
201959,153,137,-29,-8056,-1347,-1362,1745140191672753586
202151,157,141,-19,-8016,-1372,-1369,1745140191672753586
202343,157,141,-10,-8004,-1396,-1366,1745140191672753586
202535,156,142,-4,-7984,-1404,-1365,1745140191672753586
202727,152,144,2,-7988,-1438,-1381,1745140191733214804
202919,145,146,7,-8007,-1439,-1423,1745140191733214804
203111,135,145,13,-8020,-1440,-1452,1745140191733214804
203303,126,144,18,-8005,-1442,-1494,1745140191733214804
203495,117,142,21,-7982,-1388,-1525,1745140191733214804
203687,108,140,24,-7960,-1322,-1562,1745140191733214804
203879,98,139,25,-7937,-1245,-1617,1745140191733214804
204071,90,137,25,-7884,-1188,-1647,1745140191733214804
204263,88,135,27,-7859,-1153,-1659,1745140191733214804
204455,88,132,30,-7828,-1131,-1683,1745140191733214804
204647,88,126,32,-7813,-1111,-1697,1745140191733214804
204839,84,120,32,-7806,-1114,-1685,1745140191733214804
205031,77,114,30,-7803,-1099,-1692,1745140191790659279
205223,70,111,29,-7781,-1095,-1714,1745140191790659279
205415,63,105,28,-7779,-1056,-1728,1745140191790659279
205607,61,96,28,-7782,-1032,-1731,1745140191790659279
205799,56,86,25,-7771,-977,-1703,1745140191790659279
205991,53,77,21,-7773,-931,-1661,1745140191790659279
206183,50,67,16,-7778,-868,-1636,1745140191790659279
206375,48,60,11,-7801,-846,-1624,1745140191790659279
206567,46,57,5,-7812,-811,-1623,1745140191790659279
206759,43,59,-1,-7773,-790,-1620,1745140191790659279
206951,41,62,-8,-7744,-806,-1610,1745140191790659279
207143,41,61,-13,-7718,-815,-1608,1745140191790659279
207335,42,55,-17,-7709,-872,-1581,1745140191848529949
207527,40,46,-21,-7709,-913,-1540,1745140191848529949
207719,34,37,-26,-7748,-914,-1496,1745140191848529949
207911,25,33,-32,-7810,-924,-1458,1745140191848529949
208103,17,32,-37,-7865,-925,-1412,1745140191848529949
208295,10,32,-42,-7881,-899,-1383,1745140191848529949
208487,7,32,-46,-7895,-889,-1349,1745140191848529949
208679,5,32,-52,-7908,-877,-1307,1745140191848529949
208871,0,33,-61,-7906,-860,-1286,1745140191848529949
209063,-4,38,-67,-7906,-855,-1268,1745140191848529949
209255,-8,42,-70,-7885,-842,-1237,1745140191848529949
209447,-8,46,-69,-7852,-845,-1199,1745140191848529949
209639,-5,47,-70,-7836,-850,-1144,1745140191908681431
209831,-1,45,-73,-7826,-859,-1123,1745140191908681431
210023,4,43,-77,-7856,-890,-1087,1745140191908681431
210215,7,39,-83,-7889,-894,-1033,1745140191908681431
210407,11,34,-88,-7960,-886,-981,1745140191908681431
210599,11,33,-94,-8009,-882,-908,1745140191908681431
210791,6,39,-102,-8077,-873,-849,1745140191908681431
210983,-3,47,-106,-8100,-874,-771,1745140191908681431
211175,-17,58,-109,-8097,-893,-707,1745140191908681431
211367,-31,70,-113,-8069,-886,-645,1745140191908681431
211559,-44,78,-118,-8047,-852,-610,1745140191908681431
211751,-59,85,-124,-8042,-812,-558,1745140191908681431
211943,-76,90,-131,-8026,-753,-496,1745140191968108075
212135,-91,95,-139,-8016,-705,-414,1745140191968108075
212327,-103,102,-149,-8012,-655,-362,1745140191968108075
212519,-112,112,-161,-7993,-608,-324,1745140191968108075
212711,-120,122,-171,-7952,-556,-259,1745140191968108075
212903,-127,131,-181,-7870,-509,-153,1745140191968108075
213095,-133,139,-192,-7749,-442,-16,1745140191968108075
213287,-145,144,-206,-7634,-393,132,1745140191968108075
213479,-164,151,-221,-7535,-335,389,1745140191968108075
213671,-189,159,-242,-7516,-255,683,1745140191968108075
213863,-231,168,-265,-7613,-161,897,1745140191968108075
214055,-295,186,-289,-7778,-56,968,1745140191968108075
214247,-370,219,-315,-7968,71,992,1745140192019785259
214439,-440,267,-341,-8105,195,1001,1745140192019785259
214631,-492,327,-369,-8102,317,932,1745140192019785259
214823,-529,394,-400,-7981,415,772,1745140192019785259
215015,-547,461,-436,-7780,413,541,1745140192019785259
215207,-541,510,-477,-7550,372,328,1745140192019785259
215399,-510,536,-518,-7352,367,213,1745140192019785259
215591,-471,539,-561,-7218,416,204,1745140192019785259
215783,-443,534,-606,-7167,539,229,1745140192019785259
215975,-432,537,-652,-7161,696,318,1745140192019785259
216167,-426,548,-696,-7146,837,422,1745140192019785259
216359,-423,572,-738,-7091,928,552,1745140192019785259
216551,-425,605,-779,-6945,970,668,1745140192086143611
216743,-438,646,-818,-6744,973,794,1745140192086143611
216935,-462,688,-856,-6456,948,954,1745140192086143611
217127,-502,730,-894,-6162,886,1102,1745140192086143611
217319,-557,773,-927,-5859,827,1278,1745140192086143611
217511,-625,816,-958,-5583,772,1440,1745140192086143611
217703,-703,857,-987,-5386,746,1574,1745140192086143611
217895,-794,899,-1011,-5262,769,1669,1745140192086143611
218087,-890,944,-1034,-5172,866,1729,1745140192086143611
218279,-986,998,-1057,-5085,1006,1747,1745140192086143611
218471,-1079,1064,-1079,-5009,1103,1715,1745140192086143611
218663,-1163,1140,-1102,-4891,1165,1656,1745140192086143611
218855,-1233,1220,-1127,-4777,1178,1595,1745140192141817165
219047,-1290,1303,-1156,-4608,1157,1507,1745140192141817165
219239,-1337,1380,-1189,-4402,1127,1445,1745140192141817165
219431,-1381,1456,-1224,-4152,1087,1383,1745140192141817165
219623,-1426,1528,-1258,-3890,1064,1355,1745140192141817165
219815,-1473,1604,-1291,-3624,1029,1341,1745140192141817165
220007,-1522,1679,-1326,-3392,1015,1355,1745140192141817165
220199,-1573,1751,-1365,-3169,1017,1405,1745140192141817165
220391,-1627,1826,-1406,-2971,1037,1553,1745140192141817165
220583,-1680,1905,-1450,-2809,1122,1742,1745140192141817165
220775,-1736,1994,-1494,-2691,1221,1856,1745140192141817165
220967,-1790,2091,-1535,-2605,1360,1924,1745140192141817165
221159,-1842,2193,-1575,-2523,1474,1922,1745140192202363019
221351,-1893,2306,-1612,-2417,1580,1875,1745140192202363019
221543,-1940,2427,-1643,-2338,1605,1786,1745140192202363019
221735,-1976,2556,-1664,-2196,1572,1646,1745140192202363019
221927,-2004,2685,-1677,-2004,1527,1450,1745140192202363019
222119,-2025,2813,-1680,-1782,1501,1237,1745140192202363019
222311,-2044,2933,-1672,-1521,1470,1079,1745140192202363019
222503,-2069,3047,-1663,-1262,1431,1013,1745140192202363019
222695,-2101,3154,-1657,-1019,1350,1054,1745140192202363019
222887,-2135,3261,-1652,-784,1254,1036,1745140192202363019
223079,-2165,3368,-1641,-601,1181,893,1745140192202363019
223271,-2186,3475,-1625,-435,1157,687,1745140192202363019
223463,-2195,3582,-1603,-305,1210,402,1745140192259887858
223655,-2190,3689,-1582,-165,1341,59,1745140192259887858
223847,-2171,3801,-1563,-5,1492,-318,1745140192259887858
224039,-2144,3920,-1550,170,1633,-717,1745140192259887858
224231,-2106,4045,-1539,410,1702,-1105,1745140192259887858
224423,-2058,4172,-1525,703,1737,-1621,1745140192259887858
224615,-2000,4296,-1509,1039,1741,-2420,1745140192259887858
224807,-1928,4408,-1490,1389,1692,-3144,1745140192259887858
224999,-1832,4495,-1469,1736,1593,-3836,1745140192259887858
225191,-1709,4550,-1447,2067,1518,-4465,1745140192259887858
225383,-1554,4574,-1414,2343,1531,-5152,1745140192259887858
225575,-1368,4580,-1381,2562,1650,-5963,1745140192259887858
225767,-1155,4579,-1361,2690,1893,-6663,1745140192319019713
225959,-929,4566,-1347,2795,2124,-7153,1745140192319019713
226151,-702,4550,-1330,2877,2169,-7607,1745140192319019713
226343,-490,4538,-1305,3065,1980,-8055,1745140192319019713
226535,-295,4516,-1275,3392,1477,-8608,1745140192319019713
226727,-120,4475,-1249,3764,738,-9345,1745140192319019713
226919,30,4397,-1229,4219,-172,-9924,1745140192319019713
227111,134,4277,-1222,4726,-1125,-10604,1745140192319019713
227303,164,4130,-1236,5189,-1965,-11694,1745140192319019713
227495,125,3968,-1274,5555,-2561,-12806,1745140192319019713
227687,54,3795,-1322,5785,-2954,-13596,1745140192319019713
227879,-6,3611,-1361,5892,-3220,-14324,1745140192319019713
228071,-52,3429,-1385,5905,-3390,-14966,1745140192371443141
228263,-103,3250,-1399,5857,-3579,-15605,1745140192371443141
228455,-181,3078,-1397,5765,-3815,-16245,1745140192371443141
228647,-275,2897,-1374,5607,-4125,-16745,1745140192371443141
228839,-354,2716,-1330,5488,-4466,-17099,1745140192371443141
229031,-418,2543,-1268,5312,-4824,-17230,1745140192371443141
229223,-498,2370,-1195,5141,-5185,-17313,1745140192371443141
229415,-611,2208,-1114,4888,-5525,-17347,1745140192371443141
229607,-771,2043,-1042,4664,-5889,-17258,1745140192371443141
229799,-955,1859,-980,4481,-6113,-17163,1745140192371443141
229991,-1146,1691,-913,4204,-6178,-17042,1745140192371443141
230183,-1325,1553,-836,3884,-6040,-16770,1745140192371443141
230375,-1491,1425,-758,3607,-5733,-16526,1745140192437020875
230567,-1641,1302,-694,3389,-5270,-16465,1745140192437020875
230759,-1752,1185,-642,3263,-4764,-16374,1745140192437020875
230951,-1819,1071,-590,3240,-4261,-16363,1745140192437020875
231143,-1839,959,-531,3278,-3785,-16299,1745140192437020875
231335,-1807,851,-462,3329,-3362,-16095,1745140192437020875
231527,-1726,744,-387,3322,-2957,-15788,1745140192437020875
231719,-1596,625,-303,3313,-2642,-15415,1745140192437020875
231911,-1446,497,-226,3271,-2443,-15099,1745140192437020875
232103,-1292,372,-165,3124,-2348,-14684,1745140192437020875
232295,-1153,254,-120,2912,-2372,-14201,1745140192437020875
232487,-1036,146,-85,2620,-2470,-13728,1745140192437020875
232679,-948,49,-53,2392,-2641,-13247,1745140192488435249
232871,-890,-45,-21,2168,-2788,-12775,1745140192488435249
233063,-872,-129,-1,1806,-2929,-12223,1745140192488435249
233255,-889,-191,3,1441,-2931,-11870,1745140192488435249
233447,-916,-217,9,1099,-2822,-11481,1745140192488435249
233639,-966,-233,3,814,-2680,-11195,1745140192488435249
233831,-1008,-231,-10,552,-2416,-10871,1745140192488435249
234023,-1055,-217,-28,389,-2072,-10599,1745140192488435249
234215,-1097,-179,-30,246,-1728,-10547,1745140192488435249
234407,-1074,-130,-22,271,-1389,-9631,1745140192488435249
234599,-1025,-91,11,264,-1259,-9632,1745140192488435249
234791,-966,-60,56,667,-995,-11416,1745140192488435249
234983,-823,-114,80,1349,-945,-12217,1745140192549042768
235175,-571,-244,110,1748,-969,-12419,1745140192549042768
235367,-245,-410,160,1926,-1019,-12684,1745140192549042768
235559,5,-530,223,2023,-1238,-12879,1745140192549042768
235751,129,-603,262,1983,-1625,-12894,1745140192549042768
235943,136,-676,268,1788,-2062,-12712,1745140192549042768
236135,59,-731,271,1330,-2376,-12219,1745140192549042768
236327,-51,-754,305,782,-2527,-11649,1745140192549042768
236519,-151,-738,355,334,-2474,-10896,1745140192549042768
236711,-225,-697,388,-29,-2144,-10059,1745140192549042768
236903,-274,-652,393,-342,-1679,-9283,1745140192549042768
237095,-295,-603,370,-558,-1242,-8627,1745140192549042768
237287,-288,-551,321,-762,-787,-7984,1745140192610534707
237479,-319,-519,265,-864,-415,-7494,1745140192610534707
237671,-348,-482,215,-888,-105,-7217,1745140192610534707
237863,-349,-430,179,-855,190,-6942,1745140192610534707
238055,-334,-380,161,-755,464,-6743,1745140192610534707
238247,-311,-330,151,-593,727,-6623,1745140192610534707
238439,-281,-289,140,-423,930,-6611,1745140192610534707
238631,-249,-262,128,-272,1018,-6655,1745140192610534707
238823,-212,-246,116,-132,942,-6834,1745140192610534707
239015,-164,-231,105,-28,813,-7035,1745140192610534707
239207,-114,-215,102,52,626,-7278,1745140192610534707
239399,-72,-200,105,147,488,-7584,1745140192610534707
239591,-41,-200,106,279,325,-7880,1745140192671294204
239783,-18,-199,98,389,225,-8169,1745140192671294204
239975,0,-196,95,479,132,-8487,1745140192671294204
240167,14,-188,100,580,25,-8811,1745140192671294204
240359,24,-181,112,697,-123,-9068,1745140192671294204
240551,26,-188,130,843,-305,-9234,1745140192671294204
240743,26,-194,148,955,-532,-9300,1745140192671294204
240935,18,-212,163,1031,-735,-9253,1745140192671294204
241127,0,-234,179,1059,-854,-9102,1745140192671294204
241319,-27,-260,196,1056,-900,-8843,1745140192671294204
241511,-59,-285,209,918,-839,-8583,1745140192671294204
241703,-91,-305,215,729,-659,-8332,1745140192671294204
241895,-114,-323,218,499,-456,-8128,1745140192728799564
242087,-127,-338,211,318,-296,-7974,1745140192728799564
242279,-132,-345,192,116,-165,-7864,1745140192728799564
242471,-130,-337,169,-87,-43,-7816,1745140192728799564
242663,-120,-319,147,-219,67,-7794,1745140192728799564
242855,-108,-293,131,-316,129,-7832,1745140192728799564
243047,-91,-260,120,-385,153,-7868,1745140192728799564
243239,-73,-225,109,-384,128,-7918,1745140192728799564
243431,-56,-192,97,-344,50,-8042,1745140192728799564
243623,-38,-165,84,-276,-72,-8144,1745140192728799564
243815,-24,-140,69,-203,-182,-8271,1745140192728799564
244007,-16,-119,61,-102,-266,-8345,1745140192728799564
244199,-15,-105,58,-58,-328,-8369,1745140192788728391
244391,-20,-96,60,-2,-324,-8328,1745140192788728391
244583,-28,-88,66,28,-287,-8263,1745140192788728391
244775,-35,-79,69,11,-191,-8227,1745140192788728391
244967,-42,-72,66,-9,-145,-8181,1745140192788728391
245159,-47,-65,57,-22,-123,-8152,1745140192788728391
245351,-42,-55,48,-80,-102,-8119,1745140192788728391
245543,-33,-42,38,-107,-82,-8092,1745140192788728391
245735,-22,-27,30,-120,-75,-8069,1745140192788728391
245927,-10,-10,22,-129,-38,-8017,1745140192788728391
246119,0,4,14,-104,-1,-7980,1745140192788728391
246311,9,17,8,-85,44,-7950,1745140192788728391
246503,15,30,5,-60,33,-7933,1745140192840416252
246695,24,37,2,-1,-30,-7943,1745140192840416252
246887,34,42,-3,35,-78,-7943,1745140192840416252
247079,36,45,-9,39,-103,-7983,1745140192840416252
247271,32,50,-14,52,-127,-8018,1745140192840416252
247463,28,51,-20,32,-140,-8018,1745140192840416252
247655,25,52,-22,6,-135,-8023,1745140192840416252
247847,26,55,-20,-20,-94,-8021,1745140192840416252
248039,31,57,-18,-35,-58,-8022,1745140192840416252
248231,38,59,-20,-35,-30,-8022,1745140192840416252
248423,45,64,-30,-44,-11,-7991,1745140192840416252
248615,52,67,-42,-39,12,-7970,1745140192840416252
248807,61,71,-47,-26,5,-7952,1745140192905934821
248999,71,78,-51,-8,-50,-7930,1745140192905934821
249191,81,83,-57,25,-98,-7928,1745140192905934821
249383,85,84,-61,47,-144,-7916,1745140192905934821
249575,86,85,-63,46,-180,-7907,1745140192905934821
249767,84,88,-61,83,-197,-7916,1745140192905934821
249959,79,88,-57,108,-212,-7917,1745140192905934821
250151,71,82,-56,147,-239,-7947,1745140192905934821
250343,62,77,-54,123,-228,-7967,1745140192905934821
250535,53,75,-53,122,-204,-7972,1745140192905934821
250727,46,75,-49,115,-146,-7957,1745140192905934821
250919,44,74,-45,117,-94,-7937,1745140192905934821
251111,41,75,-44,92,-43,-7921,1745140192957637369
251303,40,75,-44,101,4,-7896,1745140192957637369
251495,43,76,-43,123,22,-7907,1745140192957637369
251687,50,73,-41,165,5,-7892,1745140192957637369
251879,56,68,-42,185,-9,-7878,1745140192957637369
252071,63,64,-42,185,-12,-7848,1745140192957637369
252263,69,59,-41,215,-41,-7840,1745140192957637369
252455,73,54,-42,203,-72,-7860,1745140192957637369
252647,76,45,-45,207,-141,-7870,1745140192957637369
252839,75,37,-45,219,-221,-7900,1745140192957637369
253031,70,29,-43,212,-296,-7896,1745140192957637369
253223,61,20,-40,219,-357,-7917,1745140192957637369
253415,45,11,-37,190,-407,-7929,1745140193022705733
253607,25,5,-35,191,-418,-7935,1745140193022705733
253799,7,-1,-34,170,-381,-7958,1745140193022705733
253991,-7,-5,-31,168,-309,-7968,1745140193022705733
254183,-15,-11,-28,162,-233,-7973,1745140193022705733
254375,-19,-17,-27,142,-147,-7967,1745140193022705733
254567,-17,-22,-27,142,-95,-7958,1745140193022705733
254759,-14,-26,-27,127,-43,-7940,1745140193022705733
254951,-11,-28,-27,123,-16,-7921,1745140193022705733
255143,-8,-30,-25,137,-16,-7905,1745140193022705733
255335,-4,-31,-23,132,-68,-7920,1745140193022705733
255527,-2,-33,-20,149,-102,-7905,1745140193022705733
255719,-2,-36,-17,137,-156,-7927,1745140193082234356
255911,-2,-40,-16,162,-203,-7951,1745140193082234356
256103,-3,-44,-11,175,-191,-7967,1745140193082234356
256295,-6,-49,-4,183,-190,-7952,1745140193082234356
256487,-10,-53,1,168,-173,-7978,1745140193082234356
256679,-14,-59,7,162,-160,-7964,1745140193082234356
256871,-21,-65,8,152,-162,-7945,1745140193082234356
257063,-25,-72,7,123,-160,-7919,1745140193082234356
257255,-30,-76,8,102,-142,-7895,1745140193082234356
257447,-36,-77,12,77,-116,-7874,1745140193082234356
257639,-41,-77,18,52,-140,-7869,1745140193082234356
257831,-45,-75,22,44,-137,-7880,1745140193082234356
258023,-46,-72,21,27,-134,-7901,1745140193138717642
258215,-45,-71,16,53,-140,-7906,1745140193138717642
258407,-43,-68,11,65,-113,-7913,1745140193138717642
258599,-39,-66,9,101,-88,-7918,1745140193138717642
258791,-33,-66,11,97,-82,-7928,1745140193138717642
258983,-26,-66,13,110,-70,-7937,1745140193138717642
259175,-19,-66,13,99,-97,-7968,1745140193138717642
259367,-12,-68,10,99,-103,-7999,1745140193138717642
259559,-4,-68,9,61,-119,-8004,1745140193138717642
259751,0,-66,8,54,-155,-7988,1745140193138717642
259943,-1,-63,8,36,-186,-7999,1745140193138717642
260135,-5,-61,8,18,-195,-7994,1745140193138717642
260327,-9,-57,5,-9,-209,-7971,1745140193192178091
260519,-12,-55,2,9,-202,-7944,1745140193192178091
260711,-15,-55,1,33,-182,-7938,1745140193192178091
260903,-17,-54,-1,36,-166,-7957,1745140193192178091
261095,-17,-52,-2,34,-135,-7929,1745140193192178091
261287,-17,-52,-2,40,-97,-7913,1745140193192178091
261479,-14,-52,-3,54,-52,-7916,1745140193192178091
261671,-9,-51,-7,34,-33,-7918,1745140193192178091
261863,0,-47,-11,23,-5,-7923,1745140193192178091
262055,9,-44,-16,23,-14,-7951,1745140193192178091
262247,17,-41,-18,32,-43,-7955,1745140193192178091
262439,22,-37,-21,30,-81,-7993,1745140193192178091
262631,27,-32,-22,55,-123,-8005,1745140193257841346
262823,30,-29,-23,50,-160,-8025,1745140193257841346
263015,29,-26,-25,64,-201,-8033,1745140193257841346
263207,24,-26,-28,81,-241,-8032,1745140193257841346
263399,17,-29,-32,72,-263,-8027,1745140193257841346
263591,8,-31,-36,77,-304,-8002,1745140193257841346
263783,2,-33,-39,61,-330,-7984,1745140193257841346
263975,-4,-34,-41,42,-346,-7967,1745140193257841346
264167,-10,-33,-40,28,-344,-7955,1745140193257841346
264359,-18,-29,-41,12,-313,-7957,1745140193257841346
264551,-29,-24,-44,-5,-234,-7946,1745140193257841346
264743,-36,-19,-49,-13,-159,-7955,1745140193257841346
264935,-39,-15,-51,-11,-83,-7970,1745140193315490767
265127,-36,-10,-50,6,-11,-7974,1745140193315490767
265319,-30,-8,-48,18,60,-7937,1745140193315490767
265511,-21,-8,-45,41,103,-7914,1745140193315490767
265703,-11,-9,-43,33,99,-7927,1745140193315490767
265895,0,-10,-43,26,102,-7929,1745140193315490767
266087,12,-9,-43,-13,90,-7924,1745140193315490767
266279,26,-8,-44,-10,54,-7966,1745140193315490767
266471,37,-3,-46,-25,-18,-7977,1745140193315490767
266663,43,5,-51,-23,-100,-8009,1745140193315490767
266855,46,13,-53,-11,-168,-8017,1745140193315490767
267047,44,19,-53,10,-231,-8019,1745140193315490767
267239,37,26,-50,49,-280,-8035,1745140193375060587
267431,28,28,-47,77,-296,-8026,1745140193375060587
267623,18,29,-47,104,-284,-8020,1745140193375060587
267815,9,27,-45,113,-278,-7993,1745140193375060587
268007,4,24,-43,116,-306,-7966,1745140193375060587
268199,0,23,-37,94,-332,-7960,1745140193375060587
268391,-3,26,-30,72,-341,-7965,1745140193375060587
268583,-8,29,-26,71,-328,-8002,1745140193375060587
268775,-14,32,-25,70,-300,-8002,1745140193375060587
268967,-20,34,-29,74,-223,-8015,1745140193375060587
269159,-24,36,-37,87,-135,-7977,1745140193375060587
269351,-25,35,-44,85,-33,-7965,1745140193375060587
269543,-22,36,-49,77,63,-7930,1745140193432497771
269735,-13,36,-50,103,119,-7913,1745140193432497771
269927,0,36,-49,111,159,-7880,1745140193432497771
270119,15,36,-48,106,137,-7883,1745140193432497771
270311,30,35,-46,125,103,-7873,1745140193432497771
270503,41,36,-42,109,31,-7909,1745140193432497771
270695,48,34,-43,111,-55,-7938,1745140193432497771
270887,50,30,-47,125,-114,-7960,1745140193432497771
271079,50,29,-50,113,-151,-7970,1745140193432497771
271271,53,30,-51,96,-189,-7946,1745140193432497771
271463,55,32,-51,76,-213,-7964,1745140193432497771
271655,55,33,-50,90,-243,-7941,1745140193432497771
271847,53,34,-49,107,-267,-7926,1745140193487143938
272039,47,35,-48,115,-292,-7941,1745140193487143938
272231,38,31,-48,134,-328,-7933,1745140193487143938
272423,26,26,-49,139,-303,-7909,1745140193487143938
272615,13,18,-48,137,-272,-7908,1745140193487143938
272807,1,12,-46,113,-227,-7897,1745140193487143938
272999,-9,9,-47,62,-165,-7920,1745140193487143938
273191,-12,6,-49,38,-107,-7918,1745140193487143938
273383,-10,7,-48,17,-88,-7944,1745140193487143938
273575,-4,10,-49,19,-88,-7936,1745140193487143938
273767,2,13,-49,22,-100,-7949,1745140193487143938
273959,8,15,-52,38,-115,-7956,1745140193487143938
274151,15,18,-53,52,-110,-7970,1745140193548689470
274343,22,22,-51,124,-103,-7913,1745140193548689470
274535,39,43,-60,437,2,-7665,1745140193548689470
274727,55,81,-61,314,-225,-7843,1745140193548689470
274919,49,56,-27,209,-195,-7904,1745140193548689470
275111,40,17,-23,233,-195,-7909,1745140193548689470
275303,27,-16,-40,199,-160,-7941,1745140193548689470
275495,19,-29,-68,-42,72,-8064,1745140193548689470
275687,25,-23,-112,-569,200,-7787,1745140193548689470
275879,65,72,-144,-315,382,-7703,1745140193548689470
276071,119,110,-177,-132,276,-7955,1745140193548689470
276263,135,101,-180,145,11,-7884,1745140193548689470
276455,130,77,-158,304,-166,-7931,1745140193607304247
276647,120,46,-127,524,-401,-8016,1745140193607304247
276839,101,-2,-83,725,-444,-7990,1745140193607304247
277031,73,-38,-50,733,-665,-8007,1745140193607304247
277223,38,-71,-28,480,-619,-8037,1745140193607304247
277415,-1,-89,-18,197,-658,-7966,1745140193607304247
277607,-35,-87,-5,-30,-491,-7932,1745140193607304247
277799,-51,-76,-21,17,-255,-7934,1745140193607304247
277991,-52,-64,-57,4,-57,-7865,1745140193607304247
278183,-38,-38,-81,-38,-63,-7868,1745140193607304247
278375,-15,-20,-85,88,369,-7914,1745140193607304247
278567,25,-29,-133,118,437,-7925,1745140193607304247
278759,60,-31,-166,-86,135,-7955,1745140193668177753
278951,77,-31,-147,11,-223,-8072,1745140193668177753
279143,75,-33,-108,27,-405,-7994,1745140193668177753
279335,61,-19,-79,174,-297,-8035,1745140193668177753
279527,58,-26,-88,326,-234,-7937,1745140193668177753
279719,64,-14,-103,228,-161,-7910,1745140193668177753
279911,77,-28,-118,450,-170,-7971,1745140193668177753
280103,85,-48,-119,470,-286,-7988,1745140193668177753
280295,80,-87,-103,559,-319,-8014,1745140193668177753
280487,72,-122,-92,616,-367,-7940,1745140193668177753
280679,62,-129,-87,442,-310,-7964,1745140193668177753
280871,56,-122,-100,85,-293,-7872,1745140193668177753
281063,39,-139,-111,55,-371,-8006,1745140193726394617
281255,40,-93,-119,-630,-245,-7814,1745140193726394617
281447,33,-95,-116,-401,-288,-8188,1745140193726394617
281639,18,-93,-106,-478,-417,-7950,1745140193726394617
281831,3,-65,-74,-532,-417,-7997,1745140193726394617
282023,0,-4,-45,-447,-449,-7958,1745140193726394617
282215,-13,12,-30,-142,-278,-8027,1745140193726394617
282407,-27,7,-41,21,-312,-8015,1745140193726394617
282599,-45,-13,-28,237,-355,-8008,1745140193726394617
282791,-51,-23,-6,392,-278,-7951,1745140193726394617
282983,-52,-33,13,450,-361,-7915,1745140193726394617
283175,-53,-33,36,312,-281,-7905,1745140193726394617
283367,-44,-37,34,209,-64,-7961,1745140193783192276
283559,-32,-55,-1,285,-2,-7927,1745140193783192276
283751,-11,-31,-27,-198,-77,-7847,1745140193783192276
283943,0,-23,-20,207,-212,-8133,1745140193783192276
284135,0,-41,-18,-189,-340,-7750,1745140193783192276
284327,-8,-1,14,-200,-261,-8031,1745140193783192276
284519,-8,15,30,-61,-296,-8114,1745140193783192276
284711,-14,-5,26,-193,-269,-7815,1745140193783192276
284903,-16,25,31,147,-149,-8123,1745140193783192276
285095,-18,-31,6,347,-157,-7859,1745140193783192276
285287,-17,23,20,-242,-390,-7900,1745140193783192276
285479,-23,27,62,5,-402,-8007,1745140193783192276
285671,-40,19,72,-146,-586,-7941,1745140193843754118
285863,-87,14,106,-279,-819,-8025,1745140193843754118
286055,-138,23,149,-137,-837,-7976,1745140193843754118
286247,-185,35,171,-70,-778,-7943,1745140193843754118
286439,-237,64,184,124,-793,-7726,1745140193843754118
286631,-303,123,206,111,-485,-7961,1745140193843754118
286823,-301,87,160,325,192,-7951,1745140193843754118
287015,-250,53,56,389,673,-7955,1745140193843754118
287207,-194,30,-22,412,822,-7962,1745140193843754118
287399,-128,26,-53,419,674,-7911,1745140193843754118
287591,-65,15,-44,451,431,-7888,1745140193843754118
287783,-23,-9,-20,427,153,-7903,1745140193843754118
287975,-8,-31,1,341,-83,-7910,1745140193900343862
288167,-11,-47,8,216,-191,-7904,1745140193900343862
288359,-19,-52,5,101,-203,-7902,1745140193900343862
288551,-27,-50,-6,0,-141,-7880,1745140193900343862
288743,-33,-43,-15,-64,-69,-7891,1745140193900343862
288935,-35,-33,-18,-74,-46,-7880,1745140193900343862
289127,-30,-24,-17,-36,-48,-7893,1745140193900343862
289319,-24,-19,-14,-2,-75,-7919,1745140193900343862
289511,-20,-15,-10,69,-110,-7925,1745140193900343862
289703,-19,-13,-7,125,-136,-7975,1745140193900343862
289895,-19,-15,-6,134,-130,-7994,1745140193900343862
290087,-20,-18,-5,149,-124,-8016,1745140193900343862
290279,-21,-21,-4,129,-91,-8000,1745140193960740393
290471,-21,-22,0,121,-92,-7978,1745140193960740393
290663,-19,-23,4,107,-103,-7960,1745140193960740393
290855,-20,-25,7,105,-117,-7935,1745140193960740393
291047,-23,-24,10,73,-128,-7929,1745140193960740393
291239,-24,-23,9,70,-133,-7922,1745140193960740393
291431,-25,-21,9,50,-125,-7928,1745140193960740393
291623,-27,-20,7,76,-98,-7925,1745140193960740393
291815,-29,-18,7,78,-75,-7946,1745140193960740393
292007,-28,-18,7,87,-71,-7940,1745140193960740393
292199,-28,-18,10,87,-69,-7950,1745140193960740393
292391,-26,-19,11,97,-51,-7932,1745140193960740393
292583,-25,-21,11,109,-50,-7903,1745140194019176162
292775,-22,-22,10,102,-43,-7896,1745140194019176162
292967,-16,-23,10,88,-21,-7934,1745140194019176162
293159,-8,-23,8,96,-4,-7919,1745140194019176162
293351,-1,-24,5,87,5,-7929,1745140194019176162
293543,4,-23,2,102,-26,-7950,1745140194019176162
293735,8,-21,1,90,-62,-7950,1745140194019176162
293927,10,-21,0,79,-97,-7973,1745140194019176162
294119,10,-21,2,68,-108,-7903,1745140194019176162
294311,19,-38,9,249,126,-7820,1745140194019176162
294503,22,-65,15,386,4,-7863,1745140194019176162
294695,16,-107,12,402,-127,-8052,1745140194019176162
294887,19,-97,12,191,-203,-8091,1745140194078032968
295079,23,-81,15,31,-152,-7958,1745140194078032968
295271,15,-99,17,30,-96,-7847,1745140194078032968
295463,1,-129,15,132,-94,-8020,1745140194078032968
295655,5,-104,14,-90,-106,-7911,1745140194078032968
295847,17,-68,17,-340,-18,-7798,1745140194078032968
296039,29,-35,12,-510,-10,-7821,1745140194078032968
296231,31,4,-3,-607,-106,-7824,1745140194078032968
296423,7,34,-19,-482,-168,-7816,1745140194078032968
296615,-32,46,-31,-186,-137,-7895,1745140194078032968
296807,-49,53,-37,77,-116,-7915,1745140194078032968
296999,-52,53,-33,221,-79,-7922,1745140194078032968
297191,-53,43,-23,291,-29,-7861,1745140194136435299
297383,-60,19,-13,305,135,-7840,1745140194136435299
297575,-72,-4,-9,271,204,-7778,1745140194136435299
297767,-45,-36,-14,435,116,-7916,1745140194136435299
297959,48,-62,-19,503,132,-7915,1745140194136435299
298151,78,-79,-13,343,166,-7862,1745140194136435299
298343,100,-94,-3,175,96,-7839,1745140194136435299
298535,120,-101,5,120,-83,-7894,1745140194136435299
298727,126,-101,5,49,-232,-7930,1745140194136435299
298919,116,-93,2,-85,-328,-7924,1745140194136435299
299111,110,-75,-2,-279,-404,-7832,1745140194136435299
299303,100,-66,-3,-199,-421,-7870,1745140194136435299
300647,31,-61,-33,83,-213,-8108,1745140196101320214
374567,71,-230,1,354,134,-7741,1745140196101320214
374759,-269,-71,-15,323,-581,-8414,1745140196101320214
374951,-217,-67,-39,72,-125,-7975,1745140196101320214
375143,-286,-36,-31,134,42,-8026,1745140196101320214
375335,-267,-49,-34,237,178,-8121,1745140196101320214
375527,-297,-54,-38,303,417,-8081,1745140196101320214
375719,-301,-49,-42,337,526,-8124,1745140196101320214
375911,-280,-67,-44,259,567,-8087,1745140196101320214
376103,-289,-54,-40,85,642,-7929,1745140196101320214
376295,-263,-45,-36,-68,926,-7742,1745140196101320214
376487,-219,-44,-26,-91,1153,-7660,1745140196101320214
376679,-165,-25,-12,-33,1090,-7638,1745140196160759827
376871,-115,-23,-3,46,1029,-7708,1745140196160759827
377063,-71,-9,4,93,992,-7819,1745140196160759827
377255,-27,7,10,137,984,-8002,1745140196160759827
377447,15,13,13,174,873,-8262,1745140196160759827
377639,44,29,11,207,735,-8524,1745140196160759827
377831,66,45,6,202,672,-8760,1745140196160759827
378023,94,56,5,493,756,-8861,1745140196160759827
378215,124,28,9,1047,987,-8880,1745140196160759827
378407,177,-22,21,1245,1380,-8866,1745140196160759827
378599,262,-69,42,1219,1661,-8717,1745140196160759827
378791,365,-107,54,1093,1765,-8544,1745140196160759827
378983,465,-138,58,833,1513,-8330,1745140196214424389
379175,495,-169,47,466,-285,-8092,1745140196214424389
379367,504,-116,51,-143,1125,-7674,1745140196214424389
379559,575,-104,81,-705,393,-7152,1745140196214424389
379751,573,-2,64,-864,-343,-7675,1745140196214424389
379943,735,32,18,-601,-517,-7364,1745140196214424389
380135,564,76,1,-458,-610,-7044,1745140196214424389
380327,383,77,5,-213,-1360,-7586,1745140196214424389
380519,-64,95,-48,-81,-4677,-7594,1745140196214424389
380711,-360,59,-73,-266,-2933,-7571,1745140196214424389
380903,-493,54,0,-413,-940,-7620,1745140196214424389
381095,-482,70,75,-187,786,-7649,1745140196214424389
381287,-406,79,71,127,1835,-7693,1745140196274965867
381479,-279,62,-3,361,2195,-7739,1745140196274965867
381671,-132,48,-80,473,1990,-7824,1745140196274965867
381863,-4,39,-111,519,1451,-7943,1745140196274965867
382055,71,21,-97,482,849,-8009,1745140196274965867
382247,91,-2,-67,344,394,-8024,1745140196274965867
382439,77,-17,-44,184,126,-7989,1745140196274965867
382631,50,-18,-34,65,14,-7928,1745140196274965867
382823,25,-9,-37,-21,3,-7885,1745140196274965867
383015,6,2,-43,-3,38,-7847,1745140196274965867
383207,-6,11,-48,55,48,-7837,1745140196274965867
383399,-14,14,-49,142,68,-7790,1745140196274965867
383591,-18,15,-48,209,113,-7788,1745140196331525559
383783,-23,11,-48,259,120,-7795,1745140196331525559
383975,-33,4,-50,269,160,-7781,1745140196331525559
384167,-42,-3,-55,279,187,-7780,1745140196331525559
384359,-52,-9,-59,237,217,-7811,1745140196331525559
384551,-56,-12,-59,197,286,-7828,1745140196331525559
384743,-56,-12,-59,157,332,-7858,1745140196331525559
384935,-53,-13,-56,122,386,-7874,1745140196331525559
385127,-49,-14,-53,116,428,-7883,1745140196331525559
385319,-45,-15,-52,111,444,-7876,1745140196331525559
385511,-41,-17,-52,108,457,-7892,1745140196331525559
385703,-37,-20,-50,104,457,-7872,1745140196331525559
385895,-33,-24,-49,83,448,-7830,1745140196392041829
386087,-28,-27,-47,58,445,-7818,1745140196392041829
386279,-24,-27,-46,20,441,-7816,1745140196392041829
386471,-21,-25,-46,-4,409,-7833,1745140196392041829
386663,-20,-21,-46,6,408,-7856,1745140196392041829
386855,-20,-18,-47,22,380,-7865,1745140196392041829
387047,-22,-17,-46,43,366,-7902,1745140196392041829
387239,-26,-14,-43,78,371,-7916,1745140196392041829
387431,-31,-13,-40,139,374,-7926,1745140196392041829
387623,-37,-15,-37,180,367,-7934,1745140196392041829
387815,-40,-19,-35,216,371,-7949,1745140196392041829
388007,-42,-24,-35,241,367,-7937,1745140196392041829
388199,-43,-29,-33,238,356,-7937,1745140196450836709
388391,-45,-35,-33,237,369,-7904,1745140196450836709
388583,-48,-40,-34,215,348,-7897,1745140196450836709
388775,-50,-42,-33,179,371,-7907,1745140196450836709
388967,-49,-43,-32,170,390,-7903,1745140196450836709
389159,-47,-40,-31,167,399,-7915,1745140196450836709
389351,-45,-40,-31,166,394,-7919,1745140196450836709
389543,-42,-39,-31,157,394,-7909,1745140196450836709
389735,-40,-38,-31,167,409,-7925,1745140196450836709
389927,-38,-38,-31,159,421,-7919,1745140196450836709
390119,-36,-38,-34,160,399,-7928,1745140196450836709
390311,-35,-37,-35,175,393,-7928,1745140196450836709
390503,-33,-35,-36,167,386,-7916,1745140196509169718
390695,-29,-33,-34,151,367,-7934,1745140196509169718
390887,-29,-30,-32,153,373,-7958,1745140196509169718
391079,-29,-27,-32,168,378,-7989,1745140196509169718
391271,-30,-23,-34,178,376,-8010,1745140196509169718
391463,-32,-20,-34,173,393,-8041,1745140196509169718
391655,-33,-18,-35,175,397,-8051,1745140196509169718
391847,-33,-18,-36,164,380,-8037,1745140196509169718
392039,-32,-16,-35,152,386,-8049,1745140196509169718
392231,-33,-13,-34,140,413,-8007,1745140196509169718
392423,-33,-9,-34,122,409,-7984,1745140196509169718
392615,-33,-5,-34,89,416,-7978,1745140196509169718
392807,-33,-2,-35,90,412,-7953,1745140196566225446
392999,-32,1,-35,80,427,-7941,1745140196566225446
393191,-31,5,-34,83,445,-7932,1745140196566225446
393383,-31,10,-33,78,458,-7920,1745140196566225446
393575,-28,13,-31,87,463,-7910,1745140196566225446
393767,-26,16,-30,95,474,-7918,1745140196566225446
393959,-23,20,-30,112,489,-7925,1745140196566225446
394151,-17,24,-30,102,497,-7944,1745140196566225446
394343,-10,29,-30,103,506,-7959,1745140196566225446
394535,-3,34,-30,116,517,-7977,1745140196566225446
394727,2,39,-28,122,535,-7967,1745140196566225446
394919,6,42,-25,137,510,-7982,1745140196566225446
395111,11,47,-22,132,515,-7981,1745140196626776560
395303,16,52,-20,137,507,-7974,1745140196626776560
395495,21,56,-17,155,517,-7971,1745140196626776560
395687,26,61,-18,161,488,-7977,1745140196626776560
395879,30,67,-17,172,486,-8000,1745140196626776560
396071,34,74,-17,194,460,-8023,1745140196626776560
396263,37,79,-17,192,472,-8031,1745140196626776560
396455,40,84,-17,192,453,-8042,1745140196626776560
396647,43,88,-17,191,431,-8055,1745140196626776560
396839,46,92,-18,195,395,-8046,1745140196626776560
397031,47,94,-17,190,368,-8027,1745140196626776560
397223,44,97,-17,198,353,-8001,1745140196626776560
397415,40,100,-17,188,351,-7966,1745140196682659122
397607,36,103,-17,171,329,-7932,1745140196682659122
397799,33,107,-17,179,352,-7919,1745140196682659122
397991,32,113,-18,167,392,-7904,1745140196682659122
398183,32,119,-18,189,415,-7898,1745140196682659122
398375,35,125,-18,192,449,-7916,1745140196682659122
398567,40,132,-18,213,449,-7942,1745140196682659122
398759,43,139,-18,238,473,-7984,1745140196682659122
398951,45,145,-17,273,454,-8005,1745140196682659122
399143,46,150,-16,280,451,-8023,1745140196682659122
399335,44,154,-13,297,416,-8029,1745140196682659122
399527,39,158,-9,295,384,-8056,1745140196682659122
399719,36,163,-6,296,360,-8069,1745140196743182840
399911,32,167,-5,308,358,-8088,1745140196743182840
400103,30,173,-4,315,341,-8067,1745140196743182840
400295,30,178,-4,332,361,-8080,1745140196743182840
400487,28,186,-4,353,359,-8086,1745140196743182840
400679,27,190,-6,354,368,-8068,1745140196743182840
400871,27,194,-6,376,391,-8051,1745140196743182840
401063,29,198,-6,368,399,-8032,1745140196743182840
401255,30,201,-6,372,424,-8008,1745140196743182840
401447,31,206,-7,338,432,-7992,1745140196743182840
401639,36,213,-10,329,426,-7989,1745140196743182840
401831,45,224,-13,321,443,-8006,1745140196743182840
402023,53,238,-16,280,440,-8035,1745140196801456683
402215,61,252,-19,274,440,-8069,1745140196801456683
402407,67,268,-25,277,433,-8115,1745140196801456683
402599,74,287,-33,275,411,-8174,1745140196801456683
402791,84,308,-41,289,376,-8239,1745140196801456683
402983,95,333,-49,328,334,-8312,1745140196801456683
403175,103,358,-58,351,283,-8381,1745140196801456683
403367,109,387,-69,404,273,-8484,1745140196801456683
403559,110,416,-82,420,269,-8636,1745140196801456683
403751,112,447,-101,451,262,-8816,1745140196801456683
403943,124,481,-124,450,225,-9017,1745140196801456683
404135,145,516,-148,451,149,-9191,1745140196801456683
404327,168,551,-173,480,22,-9336,1745140196860563018
404519,188,589,-205,459,-112,-9457,1745140196860563018
404711,209,633,-239,442,-268,-9635,1745140196860563018
404903,227,682,-275,444,-422,-9849,1745140196860563018
405095,241,735,-312,482,-586,-10119,1745140196860563018
405287,263,790,-351,564,-802,-10410,1745140196860563018
405479,296,849,-393,647,-1064,-10746,1745140196860563018
405671,327,908,-434,780,-1401,-11198,1745140196860563018
405863,352,962,-467,930,-1753,-11773,1745140196860563018
406055,371,1002,-484,1116,-2061,-12404,1745140196860563018
406247,393,1024,-481,1288,-2359,-13125,1745140196860563018
406439,450,1026,-456,1498,-2677,-13780,1745140196860563018
406631,557,1004,-416,1664,-3021,-14328,1745140196918765976
406823,671,975,-369,1861,-3403,-15117,1745140196918765976
407015,797,934,-321,2096,-3863,-15831,1745140196918765976
407207,920,871,-278,2420,-4371,-16445,1745140196918765976
407399,1007,781,-239,2715,-4877,-16832,1745140196918765976
407591,1027,685,-204,2952,-5380,-17027,1745140196918765976
407783,1001,568,-164,3119,-5963,-16150,1745140196918765976
407975,970,429,-84,3181,-6729,-15504,1745140196918765976
408167,1011,271,32,3200,-6974,-14823,1745140196918765976
408359,915,178,136,3227,-6506,-14314,1745140196918765976
408551,610,206,170,3319,-5515,-13285,1745140196918765976
408743,206,285,118,3636,-4440,-12408,1745140196918765976
408935,-112,362,15,4200,-3120,-12279,1745140196977068725
409127,-217,408,-89,4912,-1294,-12907,1745140196977068725
409319,-111,439,-154,5966,492,-14038,1745140196977068725
409511,96,390,-151,7632,1054,-15726,1745140196977068725
409703,281,132,-40,9930,101,-18016,1745140196977068725
409895,546,-400,207,12343,-1259,-20156,1745140196977068725
410087,1021,-1074,570,13520,-1477,-21537,1745140196977068725
410279,1680,-1673,946,12661,-458,-22233,1745140196977068725
410471,2383,-2110,1215,10683,384,-22580,1745140196977068725
410663,2959,-2430,1343,8645,87,-22518,1745140196977068725
410855,3409,-2624,1407,6957,-912,-21902,1745140196977068725
411047,3681,-2705,1470,5766,-1755,-20949,1745140196977068725
411239,3768,-2702,1544,5186,-2093,-19924,1745140197036704586
411431,3696,-2671,1617,5236,-2109,-18810,1745140197036704586
411623,3527,-2686,1693,5739,-1992,-17774,1745140197036704586
411815,3309,-2778,1786,6459,-1877,-16770,1745140197036704586
412007,3077,-2925,1902,7036,-1674,-16063,1745140197036704586
412199,2845,-3090,2020,7318,-1321,-15495,1745140197036704586
412391,2618,-3251,2123,7250,-841,-15034,1745140197036704586
412583,2412,-3399,2198,6969,-301,-14570,1745140197036704586
412775,2239,-3534,2242,6576,196,-14113,1745140197036704586
412967,2105,-3659,2265,6253,623,-13665,1745140197036704586
413159,2001,-3774,2280,6028,1044,-13173,1745140197036704586
413351,1929,-3872,2291,5896,1457,-12688,1745140197036704586
413543,1884,-3959,2297,5857,1896,-12248,1745140197098887247
413735,1864,-4038,2304,5893,2299,-11682,1745140197098887247
413927,1873,-4122,2308,5943,2655,-10960,1745140197098887247
414119,1908,-4206,2314,5956,3020,-10298,1745140197098887247
414311,1968,-4285,2326,5958,3354,-9615,1745140197098887247
414503,2057,-4361,2344,5917,3634,-9041,1745140197098887247
414695,2176,-4435,2372,5850,3814,-8456,1745140197098887247
414887,2314,-4506,2407,5761,3934,-7850,1745140197098887247
415079,2445,-4569,2448,5642,3885,-7392,1745140197098887247
415271,2560,-4624,2500,5504,3687,-6952,1745140197098887247
415463,2665,-4675,2558,5341,3411,-6363,1745140197098887247
415655,2748,-4713,2620,5170,3074,-5726,1745140197098887247
415847,2793,-4734,2681,4979,2676,-5138,1745140197151763118
416039,2797,-4737,2743,4830,2261,-4591,1745140197151763118
416231,2770,-4729,2804,4756,1835,-3950,1745140197151763118
416423,2708,-4722,2861,4745,1389,-3278,1745140197151763118
416615,2606,-4723,2904,4728,1022,-2602,1745140197151763118
416807,2465,-4724,2929,4654,751,-1806,1745140197151763118
416999,2276,-4713,2939,4557,536,-1163,1745140197151763118
417191,2044,-4696,2940,4445,438,-733,1745140197151763118
417383,1789,-4671,2929,4390,493,-443,1745140197151763118
417575,1525,-4640,2905,4372,647,-298,1745140197151763118
417767,1275,-4582,2864,4503,998,-460,1745140197151763118
417959,1028,-4243,2857,4238,1231,-889,1745140197151763118
418151,772,-4309,2750,3847,1687,825,1745140197212208139
418343,611,-4509,2648,4092,2042,34,1745140197212208139
418535,486,-4417,2567,3757,2500,100,1745140197212208139
418727,434,-4417,2497,3396,2925,964,1745140197212208139
418919,402,-4358,2417,2990,3186,1672,1745140197212208139
419111,373,-4307,2339,2625,3337,2370,1745140197212208139
419303,307,-4259,2258,2197,3314,3135,1745140197212208139
419495,229,-4213,2178,1677,3187,3942,1745140197212208139
419687,155,-4153,2092,1053,3063,4736,1745140197212208139
419879,102,-4080,2003,378,2981,5449,1745140197212208139
420071,68,-3985,1911,-315,2970,6058,1745140197212208139
420263,34,-3880,1815,-981,2952,6517,1745140197212208139
420455,8,-3764,1713,-1645,2893,6854,1745140197270718021
420647,-1,-3644,1608,-2300,2845,7177,1745140197270718021
420839,23,-3518,1505,-3001,2825,7424,1745140197270718021
421031,87,-3376,1414,-3707,2932,7491,1745140197270718021
421223,182,-3208,1337,-4461,3042,7368,1745140197270718021
421415,301,-3015,1271,-5120,3097,7215,1745140197270718021
421607,439,-2807,1204,-5707,3119,7072,1745140197270718021
421799,576,-2584,1138,-6188,3106,6923,1745140197270718021
421991,688,-2350,1081,-6558,3064,6801,1745140197270718021
422183,765,-2119,1029,-6768,2952,6777,1745140197270718021
422375,814,-1893,973,-6877,2792,6743,1745140197270718021
422567,831,-1679,913,-6826,2608,6890,1745140197270718021
422759,826,-1491,848,-6763,2380,6973,1745140197333982547
422951,781,-1325,784,-6686,2113,6931,1745140197333982547
423143,708,-1181,726,-6647,1838,6832,1745140197333982547
423335,628,-1052,678,-6639,1622,6656,1745140197333982547
423527,551,-940,640,-6645,1521,6426,1745140197333982547
423719,485,-844,610,-6616,1497,6184,1745140197333982547
423911,424,-757,579,-6609,1536,5905,1745140197333982547
424103,375,-671,540,-6574,1625,5612,1745140197333982547
424295,355,-597,501,-6523,1704,5320,1745140197333982547
424487,364,-546,464,-6459,1786,5055,1745140197333982547
424679,387,-517,428,-6417,1800,4857,1745140197333982547
424871,405,-503,389,-6444,1706,4731,1745140197333982547
425063,417,-494,349,-6529,1531,4584,1745140197385959208
425255,420,-483,311,-6645,1337,4476,1745140197385959208
425447,411,-470,278,-6798,1110,4383,1745140197385959208
425639,386,-455,250,-6990,906,4277,1745140197385959208
425831,337,-436,225,-7177,672,4161,1745140197385959208
426023,276,-408,208,-7384,438,4010,1745140197385959208
426215,217,-376,201,-7576,289,3957,1745140197385959208
426407,159,-343,193,-7717,226,3900,1745140197385959208
426599,82,-301,180,-7833,195,3742,1745140197385959208
426791,-3,-255,170,-7932,101,3507,1745140197385959208
426983,-63,-214,159,-7950,17,3335,1745140197385959208
427175,-89,-182,150,-7919,-9,3201,1745140197385959208
427367,-94,-160,145,-7921,57,3059,1745140197442162913
427559,-93,-146,146,-7909,164,2910,1745140197442162913
427751,-84,-138,144,-7924,268,2824,1745140197442162913
427943,-54,-137,137,-7993,295,2778,1745140197442162913
428135,-14,-131,127,-8133,274,2705,1745140197442162913
428327,23,-118,117,-8254,239,2619,1745140197442162913
428519,50,-88,109,-8336,169,2532,1745140197442162913
428711,62,-45,104,-8306,66,2421,1745140197442162913
428903,65,1,106,-8239,-98,2345,1745140197442162913
429095,62,39,97,-8135,-222,2247,1745140197442162913
429287,56,70,86,-7998,-377,2100,1745140197442162913
429479,55,100,75,-7913,-520,1940,1745140197442162913
429671,59,123,77,-7870,-629,1850,1745140197508065853
429863,65,137,87,-7870,-711,1817,1745140197508065853
430055,65,142,98,-7911,-723,1799,1745140197508065853
430247,39,139,90,-8042,-744,1784,1745140197508065853
430439,-10,140,62,-8250,-774,1770,1745140197508065853
430631,-66,156,31,-8476,-825,1753,1745140197508065853
430823,-120,190,4,-8684,-869,1655,1745140197508065853
431015,-167,244,-3,-8805,-897,1499,1745140197508065853
431207,-201,304,2,-8810,-881,1318,1745140197508065853
431399,-222,366,12,-8661,-858,1171,1745140197508065853
431591,-229,406,19,-8456,-789,1001,1745140197508065853
431783,-240,423,6,-8265,-718,842,1745140197508065853
431975,-238,411,-11,-8030,-591,668,1745140197560892766
432167,-209,402,-4,-8124,-452,494,1745140197560892766
432359,-156,383,23,-7865,-322,362,1745140197560892766
432551,-101,345,49,-7834,-305,167,1745140197560892766
432743,-36,338,69,-7945,-329,195,1745140197560892766
432935,50,287,106,-7977,-423,187,1745140197560892766
433127,111,247,128,-8008,-631,65,1745140197560892766
433319,129,180,119,-8229,-767,30,1745140197560892766
433511,133,175,99,-8672,-972,113,1745140197560892766
433703,122,219,57,-9037,-1186,83,1745140197560892766
433895,93,305,8,-9142,-1418,-14,1745140197560892766
434087,45,378,-41,-8916,-1566,-161,1745140197560892766
434279,2,411,-53,-8392,-1529,-276,1745140197621282996
434471,-37,379,-24,-7771,-1394,-381,1745140197621282996
434663,-75,307,19,-7306,-1146,-508,1745140197621282996
434855,-108,230,59,-7324,-936,-599,1745140197621282996
435047,-123,160,79,-7526,-694,-599,1745140197621282996
435239,-126,112,72,-8056,-577,-603,1745140197621282996
435431,-119,91,45,-8392,-432,-584,1745140197621282996
435623,-96,81,42,-8494,-274,-521,1745140197621282996
435815,-53,83,70,-8503,-150,-530,1745140197621282996
436007,-14,85,81,-8342,-299,-470,1745140197621282996
436199,0,84,40,-8263,-477,-479,1745140197621282996
436391,6,84,13,-8089,-528,-505,1745140197621282996
436583,1,60,32,-7831,-650,-466,1745140197682307647
436775,-34,26,44,-7761,-777,-496,1745140197682307647
436967,-81,-3,53,-7787,-797,-444,1745140197682307647
437159,-123,-48,65,-7857,-775,-325,1745140197682307647
437351,-165,-76,63,-8085,-700,-224,1745140197682307647
437543,-204,-88,50,-8321,-661,-89,1745140197682307647
437735,-236,-86,31,-8430,-542,58,1745140197682307647
437927,-265,-75,14,-8511,-474,152,1745140197682307647
438119,-292,-58,-3,-8487,-438,204,1745140197682307647
438311,-309,-36,-11,-8382,-388,214,1745140197682307647
438503,-310,-16,-6,-8258,-299,143,1745140197682307647
438695,-298,-3,-1,-8128,-214,152,1745140197682307647
438887,-277,-10,-2,-7973,-148,205,1745140197738400468
439079,-250,-22,-10,-7942,-116,258,1745140197738400468
439271,-219,-31,-21,-7982,-154,311,1745140197738400468
439463,-195,-33,-33,-8072,-214,329,1745140197738400468
439655,-175,-31,-41,-8150,-271,383,1745140197738400468
439847,-152,-28,-43,-8240,-331,417,1745140197738400468
440039,-132,-18,-45,-8355,-395,387,1745140197738400468
440231,-115,-1,-46,-8424,-442,363,1745140197738400468
440423,-100,22,-48,-8455,-420,365,1745140197738400468
440615,-89,49,-48,-8419,-398,379,1745140197738400468
440807,-78,77,-47,-8355,-385,418,1745140197738400468
440999,-62,102,-45,-8281,-404,436,1745140197738400468
441191,-43,124,-44,-8154,-457,427,1745140197798106485
441383,-27,140,-44,-8074,-529,422,1745140197798106485
441575,-17,153,-46,-8017,-601,389,1745140197798106485
441767,-9,165,-45,-7964,-667,330,1745140197798106485
441959,-4,174,-41,-7935,-715,242,1745140197798106485
442151,4,180,-35,-7894,-750,199,1745140197798106485
442343,10,181,-35,-7873,-746,142,1745140197798106485
442535,12,182,-36,-7875,-754,81,1745140197798106485
442727,12,181,-35,-7885,-763,-3,1745140197798106485
442919,14,178,-30,-7896,-774,-58,1745140197798106485
443111,16,171,-25,-7901,-775,-99,1745140197798106485
443303,12,165,-26,-7941,-809,-130,1745140197798106485
443495,2,158,-30,-7971,-845,-119,1745140197856778553
443687,-13,155,-32,-7984,-830,-98,1745140197856778553
443879,-31,155,-31,-7986,-799,-67,1745140197856778553
444071,-54,162,-26,-7921,-810,-108,1745140197856778553
444263,-73,170,-17,-7863,-825,-157,1745140197856778553
444455,-78,169,-10,-7785,-825,-236,1745140197856778553
444647,-75,161,-2,-7730,-837,-302,1745140197856778553
444839,-69,147,2,-7698,-847,-335,1745140197856778553
445031,-64,132,4,-7701,-833,-329,1745140197856778553
445223,-64,117,4,-7748,-832,-320,1745140197856778553
445415,-67,104,6,-7839,-843,-301,1745140197856778553
445607,-74,95,9,-7894,-825,-278,1745140197856778553
445799,-85,90,11,-7948,-812,-242,1745140197915042812
445991,-98,87,14,-7988,-767,-214,1745140197915042812
446183,-108,88,20,-8002,-726,-217,1745140197915042812
446375,-104,87,29,-7995,-705,-217,1745140197915042812
446567,-92,87,35,-7988,-662,-256,1745140197915042812
446759,-81,87,34,-7947,-587,-282,1745140197915042812
446951,-75,89,29,-7986,-555,-262,1745140197915042812
447143,-65,95,22,-8042,-571,-247,1745140197915042812
447335,-55,109,13,-8112,-605,-217,1745140197915042812
447527,-46,116,5,-7998,-654,-241,1745140197915042812
447719,-40,127,12,-7926,-651,-291,1745140197915042812
447911,-37,121,31,-7834,-659,-326,1745140197915042812
448103,-41,116,43,-7854,-648,-314,1745140197977578960
448295,-43,101,43,-7926,-628,-323,1745140197977578960
448487,-34,89,40,-8037,-632,-291,1745140197977578960
448679,-19,87,35,-8192,-618,-243,1745140197977578960
448871,-9,100,29,-8299,-612,-196,1745140197977578960
449063,-7,122,21,-8314,-624,-200,1745140197977578960
449255,-11,146,15,-8243,-647,-249,1745140197977578960
449447,-15,165,15,-8126,-688,-313,1745140197977578960
449639,-18,172,17,-8021,-723,-381,1745140197977578960
449831,-25,165,19,-7979,-736,-424,1745140197977578960
450023,-38,152,19,-8014,-749,-452,1745140197977578960
450215,-48,138,23,-8095,-721,-497,1745140197977578960
450407,-54,132,28,-8200,-688,-545,1745140198030508633
450599,-58,129,30,-8258,-648,-600,1745140198030508633
450791,-57,126,27,-8294,-623,-647,1745140198030508633
450983,-50,123,24,-8296,-587,-636,1745140198030508633
451175,-40,119,18,-8286,-552,-607,1745140198030508633
451367,-36,121,14,-8246,-545,-588,1745140198030508633
451559,-41,124,11,-8189,-586,-614,1745140198030508633
451751,-48,123,11,-8089,-604,-619,1745140198030508633
451943,-53,116,14,-8034,-608,-630,1745140198030508633
452135,-56,109,17,-7988,-575,-672,1745140198030508633
452327,-59,99,23,-7971,-546,-681,1745140198030508633
452519,-53,87,28,-7985,-492,-698,1745140198030508633
452711,-36,70,32,-8047,-416,-719,1745140198091004747
452903,-9,53,32,-8128,-367,-696,1745140198091004747
453095,25,39,32,-8234,-316,-680,1745140198091004747
453287,60,32,27,-8327,-293,-652,1745140198091004747
453479,89,31,17,-8371,-312,-642,1745140198091004747
453671,110,33,5,-8364,-361,-619,1745140198091004747
453863,126,39,-5,-8322,-426,-568,1745140198091004747
454055,129,49,-14,-8226,-508,-517,1745140198091004747
454247,116,59,-18,-8115,-573,-509,1745140198091004747
454439,92,67,-16,-8008,-644,-531,1745140198091004747
454631,68,67,-11,-7932,-698,-553,1745140198091004747
454823,43,63,-4,-7871,-718,-568,1745140198091004747
455015,23,53,2,-7867,-719,-550,1745140198149168903
455207,7,41,6,-7911,-720,-569,1745140198149168903
455399,-5,29,6,-7965,-702,-558,1745140198149168903
455591,-11,18,6,-8058,-646,-528,1745140198149168903
455783,-15,11,5,-8146,-592,-492,1745140198149168903
455975,-19,10,4,-8214,-553,-468,1745140198149168903
456167,-22,11,2,-8267,-536,-405,1745140198149168903
456359,-26,16,-2,-8276,-524,-395,1745140198149168903
456551,-30,24,-5,-8273,-530,-385,1745140198149168903
456743,-35,30,-7,-8218,-542,-387,1745140198149168903
456935,-38,37,-9,-8146,-558,-379,1745140198149168903
457127,-43,42,-9,-8108,-562,-391,1745140198149168903
457319,-47,45,-7,-8064,-581,-399,1745140198208435914
457511,-45,44,-5,-8043,-565,-394,1745140198208435914
457703,-41,42,-4,-8033,-528,-393,1745140198208435914
457895,-39,41,-4,-8068,-497,-414,1745140198208435914
458087,-35,39,-6,-8121,-465,-383,1745140198208435914
458279,-29,39,-12,-8162,-444,-351,1745140198208435914
458471,-21,42,-19,-8218,-421,-321,1745140198208435914
458663,-13,49,-27,-8226,-444,-321,1745140198208435914
458855,-11,60,-35,-8221,-452,-326,1745140198208435914
459047,-12,68,-41,-8175,-458,-311,1745140198208435914
459239,-14,73,-44,-8141,-447,-318,1745140198208435914
459431,-14,74,-45,-8109,-416,-317,1745140198208435914
459623,-12,75,-44,-8094,-401,-308,1745140198267105378
459815,-9,75,-42,-8080,-372,-293,1745140198267105378
460007,0,78,-40,-8076,-366,-301,1745140198267105378
460199,11,83,-36,-8035,-349,-340,1745140198267105378
460391,25,89,-34,-7988,-337,-370,1745140198267105378
460583,41,93,-32,-7926,-366,-377,1745140198267105378
460775,58,95,-30,-7886,-412,-398,1745140198267105378
460967,77,94,-30,-7863,-488,-457,1745140198267105378
461159,94,91,-32,-7879,-547,-473,1745140198267105378
461351,102,85,-34,-7875,-579,-479,1745140198267105378
461543,101,77,-37,-7904,-635,-464,1745140198267105378
461735,93,70,-39,-7925,-646,-441,1745140198267105378
461927,85,66,-38,-7961,-666,-437,1745140198325426772
462119,72,65,-36,-7968,-676,-423,1745140198325426772
462311,60,64,-32,-7993,-699,-428,1745140198325426772
462503,51,61,-29,-8034,-729,-451,1745140198325426772
462695,42,59,-29,-8034,-753,-456,1745140198325426772
462887,32,61,-32,-8072,-775,-481,1745140198325426772
463079,18,64,-32,-8066,-799,-472,1745140198325426772
463271,5,67,-31,-8068,-835,-476,1745140198325426772
463463,-8,69,-30,-8077,-863,-466,1745140198325426772
463655,-18,71,-28,-8090,-876,-473,1745140198325426772
463847,-29,72,-25,-8083,-861,-461,1745140198325426772
464039,-42,73,-20,-8087,-828,-476,1745140198325426772
464231,-53,74,-16,-8075,-788,-484,1745140198384140454
464423,-58,76,-13,-8081,-748,-469,1745140198384140454
464615,-58,78,-9,-8078,-690,-528,1745140198384140454
464807,-52,78,-6,-8059,-646,-563,1745140198384140454
464999,-42,79,-2,-8054,-610,-569,1745140198384140454
465191,-28,76,-1,-8013,-593,-561,1745140198384140454
465383,-18,76,-2,-7999,-587,-518,1745140198384140454
465575,-11,77,-4,-7960,-623,-502,1745140198384140454
465767,-4,75,-4,-7942,-649,-490,1745140198384140454
465959,-3,74,-2,-7891,-673,-474,1745140198384140454
466151,-10,71,-2,-7867,-653,-449,1745140198384140454
466343,-25,68,-1,-7872,-648,-457,1745140198384140454
466535,-42,70,1,-7943,-648,-455,1745140198442458828
466727,-51,74,2,-8094,-629,-422,1745140198442458828
466919,-54,81,2,-8212,-613,-393,1745140198442458828
467111,-55,84,-7,-8064,-568,-388,1745140198442458828
467303,-58,94,-17,-8182,-568,-397,1745140198442458828
467495,-60,100,-23,-8074,-541,-442,1745140198442458828
467687,-65,90,-21,-7977,-540,-541,1745140198442458828
467879,-70,72,-15,-7993,-489,-611,1745140198442458828
468071,-71,61,-5,-8158,-459,-611,1745140198442458828
468263,-67,63,-3,-8341,-453,-636,1745140198442458828
468455,-59,73,-8,-8484,-488,-661,1745140198442458828
468647,-48,89,-16,-8495,-479,-681,1745140198442458828
468839,-38,103,-18,-8430,-453,-710,1745140198501315478
469031,-33,114,-16,-8333,-475,-746,1745140198501315478
469223,-23,119,-12,-8216,-494,-794,1745140198501315478
469415,-12,113,-8,-8143,-529,-833,1745140198501315478
469607,-8,106,-13,-8149,-535,-862,1745140198501315478
469799,-4,96,-18,-8111,-529,-850,1745140198501315478
469991,-3,87,-26,-8141,-543,-862,1745140198501315478
470183,-1,89,-32,-8195,-518,-846,1745140198501315478
470375,4,91,-34,-8195,-512,-850,1745140198501315478
470567,6,95,-38,-8195,-509,-872,1745140198501315478
470759,9,95,-44,-8167,-528,-877,1745140198501315478
470951,10,94,-52,-8125,-516,-896,1745140198501315478
471143,8,95,-57,-8119,-539,-939,1745140198555234568
471335,5,94,-54,-8084,-546,-960,1745140198555234568
471527,7,90,-49,-8050,-570,-997,1745140198555234568
471719,11,84,-49,-8028,-602,-1028,1745140198555234568
471911,19,78,-50,-8012,-598,-1037,1745140198555234568
472103,26,68,-51,-8017,-631,-1029,1745140198555234568
472295,32,57,-51,-8041,-672,-1020,1745140198555234568
472487,37,47,-51,-8072,-683,-1005,1745140198555234568
472679,36,44,-52,-8095,-726,-995,1745140198555234568
472871,28,48,-55,-8122,-738,-977,1745140198555234568
473063,14,55,-55,-8108,-753,-956,1745140198555234568
473255,-2,61,-54,-8084,-751,-935,1745140198555234568
473447,-17,66,-53,-8053,-796,-916,1745140198615456883
473639,-32,68,-50,-8009,-793,-948,1745140198615456883
473831,-46,65,-48,-7976,-812,-953,1745140198615456883
474023,-55,55,-45,-7982,-817,-963,1745140198615456883
474215,-56,41,-42,-8047,-817,-947,1745140198615456883
474407,-50,31,-40,-8113,-814,-930,1745140198615456883
474599,-46,25,-40,-8181,-787,-937,1745140198615456883
474791,-44,26,-41,-8195,-755,-914,1745140198615456883
474983,-40,30,-39,-8210,-713,-904,1745140198615456883
475175,-35,34,-36,-8167,-669,-900,1745140198615456883
475367,-27,40,-34,-8104,-647,-922,1745140198615456883
475559,-18,45,-31,-8018,-634,-952,1745140198615456883
475751,-6,48,-28,-7931,-622,-977,1745140198676343202
475943,9,44,-23,-7870,-639,-980,1745140198676343202
476135,26,34,-19,-7823,-622,-954,1745140198676343202
476327,40,24,-18,-7851,-637,-932,1745140198676343202
476519,50,15,-17,-7892,-684,-909,1745140198676343202
476711,60,9,-19,-7959,-736,-875,1745140198676343202
476903,65,7,-20,-8032,-760,-855,1745140198676343202
477095,63,9,-23,-8069,-784,-858,1745140198676343202
477287,53,14,-25,-8065,-764,-848,1745140198676343202
477479,40,19,-26,-8029,-774,-833,1745140198676343202
477671,26,22,-27,-7984,-756,-815,1745140198676343202
477863,12,25,-26,-7923,-728,-816,1745140198676343202
478055,-2,26,-25,-7877,-715,-801,1745140198735436151
478247,-15,25,-25,-7870,-712,-800,1745140198735436151
478439,-27,22,-24,-7880,-704,-813,1745140198735436151
478631,-36,20,-22,-7890,-717,-812,1745140198735436151
478823,-40,17,-20,-7914,-706,-791,1745140198735436151
479015,-37,18,-20,-7932,-695,-744,1745140198735436151
479207,-29,19,-19,-7938,-649,-708,1745140198735436151
479399,-20,25,-19,-7958,-610,-704,1745140198735436151
479591,-11,29,-19,-7966,-571,-691,1745140198735436151
479783,0,34,-20,-7981,-569,-713,1745140198735436151
479975,12,38,-22,-7970,-588,-730,1745140198735436151
480167,24,42,-23,-7967,-627,-764,1745140198735436151
480359,36,44,-22,-7971,-659,-758,1745140198794379103
480551,45,46,-23,-7966,-704,-752,1745140198794379103
480743,47,46,-24,-7976,-705,-760,1745140198794379103
480935,45,50,-24,-7972,-758,-772,1745140198794379103
481127,43,55,-24,-7975,-792,-790,1745140198794379103
481319,44,56,-23,-7967,-813,-812,1745140198794379103
481511,44,56,-21,-7951,-842,-837,1745140198794379103
481703,42,55,-21,-7943,-843,-875,1745140198794379103
481895,34,54,-22,-7925,-851,-896,1745140198794379103
482087,26,51,-20,-7900,-861,-898,1745140198794379103
482279,18,46,-18,-7907,-859,-904,1745140198794379103
482471,10,39,-15,-7916,-860,-881,1745140198794379103
482663,1,33,-12,-7955,-861,-880,1745140198852553363
482855,-8,29,-9,-8027,-870,-866,1745140198852553363
483047,-18,23,-7,-8104,-874,-851,1745140198852553363
483239,-24,23,-5,-8174,-856,-820,1745140198852553363
483431,-30,30,-4,-8215,-816,-794,1745140198852553363
483623,-38,44,-2,-8217,-783,-797,1745140198852553363
483815,-43,60,-1,-8175,-773,-805,1745140198852553363
484007,-44,70,-1,-8104,-762,-837,1745140198852553363
484199,-39,75,1,-8006,-748,-860,1745140198852553363
484391,-34,77,4,-7938,-731,-888,1745140198852553363
484583,-28,72,8,-7930,-718,-921,1745140198852553363
484775,-20,64,10,-7916,-692,-941,1745140198852553363
484967,-10,56,12,-7976,-639,-970,1745140198911315118
485159,2,48,15,-8022,-603,-978,1745140198911315118
485351,18,45,15,-8065,-578,-983,1745140198911315118
485543,36,42,14,-8097,-579,-991,1745140198911315118
485735,52,40,11,-8126,-605,-991,1745140198911315118
485927,63,40,6,-8132,-650,-993,1745140198911315118
486119,70,39,2,-8133,-698,-981,1745140198911315118
486311,72,42,0,-8117,-763,-993,1745140198911315118
486503,66,45,-1,-8095,-797,-1004,1745140198911315118
486695,52,48,1,-8075,-804,-995,1745140198911315118
486887,35,49,4,-8068,-800,-985,1745140198911315118
487079,18,47,9,-8058,-799,-964,1745140198911315118
487271,3,45,13,-8069,-769,-943,1745140198968304076
487463,-10,46,14,-8077,-744,-935,1745140198968304076
487655,-19,48,13,-8085,-723,-934,1745140198968304076
487847,-23,49,10,-8089,-683,-971,1745140198968304076
488039,-22,50,8,-8069,-628,-964,1745140198968304076
488231,-16,49,6,-8064,-599,-974,1745140198968304076
488423,-7,47,2,-8040,-574,-991,1745140198968304076
488615,0,45,-2,-8044,-549,-988,1745140198968304076
488807,8,42,-6,-8056,-547,-1002,1745140198968304076
488999,15,40,-7,-8043,-547,-998,1745140198968304076
489191,21,41,-10,-8046,-561,-1007,1745140198968304076
489383,26,44,-14,-8026,-589,-976,1745140198968304076
489575,34,45,-14,-8001,-630,-999,1745140199028692952
489767,39,44,-16,-7961,-657,-982,1745140199028692952
489959,41,41,-18,-7942,-686,-986,1745140199028692952
490151,39,41,-19,-7935,-697,-1003,1745140199028692952
490343,32,41,-20,-7938,-708,-1014,1745140199028692952
490535,26,39,-19,-7948,-729,-1016,1745140199028692952
490727,26,32,-18,-7964,-735,-1011,1745140199028692952
490919,27,24,-18,-8008,-747,-1012,1745140199028692952
491111,25,20,-19,-8045,-753,-974,1745140199028692952
491303,18,20,-22,-8083,-779,-964,1745140199028692952
491495,10,22,-23,-8098,-806,-954,1745140199028692952
491687,0,26,-24,-8083,-830,-952,1745140199028692952
491879,-10,31,-24,-8053,-822,-959,1745140199087353093
492071,-22,32,-24,-8016,-828,-945,1745140199087353093
492263,-34,32,-24,-7975,-815,-932,1745140199087353093
492455,-42,33,-20,-7946,-803,-928,1745140199087353093
492647,-47,33,-16,-7958,-806,-942,1745140199087353093
492839,-48,30,-14,-7988,-792,-957,1745140199087353093
493031,-43,26,-12,-8031,-768,-941,1745140199087353093
493223,-33,24,-11,-8075,-730,-966,1745140199087353093
493415,-25,26,-12,-8101,-690,-942,1745140199087353093
493607,-18,29,-13,-8129,-673,-918,1745140199087353093
493799,-9,32,-14,-8145,-687,-913,1745140199087353093
493991,4,36,-15,-8157,-708,-937,1745140199087353093
494183,14,43,-15,-8127,-726,-975,1745140199144664184
494375,20,51,-13,-8083,-753,-993,1745140199144664184
494567,24,55,-13,-8042,-754,-978,1745140199144664184
494759,26,55,-11,-8004,-760,-999,1745140199144664184
494951,28,56,-10,-7965,-761,-1000,1745140199144664184
495143,29,54,-7,-7931,-745,-998,1745140199144664184
495335,29,52,-7,-7943,-727,-1012,1745140199144664184
495527,31,49,-6,-7957,-745,-1026,1745140199144664184
495719,33,46,-6,-7992,-721,-1019,1745140199144664184
495911,31,44,-6,-8029,-742,-1005,1745140199144664184
496103,24,46,-8,-8081,-744,-1001,1745140199144664184
496295,16,48,-10,-8072,-717,-973,1745140199144664184
496487,4,51,-13,-8070,-698,-964,1745140199204401920
496679,-10,56,-15,-8027,-671,-960,1745140199204401920
496871,-20,58,-16,-7987,-623,-961,1745140199204401920
497063,-25,58,-16,-7952,-578,-934,1745140199204401920
497255,-27,52,-20,-7931,-538,-910,1745140199204401920
497447,-25,47,-24,-7934,-513,-868,1745140199204401920
497639,-20,44,-28,-7948,-477,-833,1745140199204401920
497831,-12,44,-32,-7965,-444,-812,1745140199204401920
498023,-2,46,-35,-7973,-431,-763,1745140199204401920
498215,6,50,-41,-7959,-418,-760,1745140199204401920
498407,13,52,-46,-7933,-418,-718,1745140199204401920
498599,19,52,-53,-7912,-429,-676,1745140199204401920
498791,22,50,-59,-7946,-451,-593,1745140199262756230
498983,18,47,-66,-8001,-451,-533,1745140199262756230
499175,7,50,-74,-8072,-442,-490,1745140199262756230
499367,-8,56,-82,-8127,-437,-419,1745140199262756230
499559,-23,65,-89,-8133,-427,-314,1745140199262756230
499751,-38,74,-99,-8146,-407,-239,1745140199262756230
499943,-55,85,-108,-8145,-383,-165,1745140199262756230
500135,-74,95,-119,-8119,-344,-75,1745140199262756230
500327,-91,102,-129,-8087,-282,29,1745140199262756230
500519,-106,107,-142,-8080,-210,211,1745140199262756230
500711,-122,109,-156,-8060,-134,390,1745140199262756230
500903,-140,114,-173,-8046,-44,562,1745140199262756230
501095,-160,121,-190,-8010,0,759,1745140199321555381
501287,-184,129,-207,-7917,52,995,1745140199321555381
501479,-212,134,-225,-7824,104,1252,1745140199321555381
501671,-251,135,-246,-7700,123,1514,1745140199321555381
501863,-299,136,-268,-7597,114,1793,1745140199321555381
502055,-352,140,-291,-7568,134,2086,1745140199321555381
502247,-413,149,-314,-7536,167,2386,1745140199321555381
502439,-485,168,-341,-7552,222,2680,1745140199321555381
502631,-567,200,-368,-7568,361,2927,1745140199321555381
502823,-657,250,-395,-7576,514,3154,1745140199321555381
503015,-748,318,-425,-7488,696,3333,1745140199321555381
503207,-831,401,-458,-7323,852,3471,1745140199321555381
503399,-903,490,-495,-7078,1017,3580,1745140199374926299
503591,-959,578,-534,-6783,1187,3697,1745140199374926299
503783,-1003,663,-573,-6469,1369,3800,1745140199374926299
503975,-1037,743,-614,-6167,1525,3836,1745140199374926299
504167,-1063,824,-656,-5882,1658,3798,1745140199374926299
504359,-1079,906,-699,-5618,1736,3701,1745140199374926299
504551,-1091,987,-741,-5363,1809,3591,1745140199374926299
504743,-1092,1059,-782,-5166,1856,3497,1745140199374926299
504935,-1088,1124,-821,-4987,1925,3432,1745140199374926299
505127,-1084,1185,-859,-4818,1997,3377,1745140199374926299
505319,-1089,1249,-900,-4668,2008,3314,1745140199374926299
505511,-1110,1319,-945,-4525,2011,3304,1745140199374926299
505703,-1142,1390,-990,-4402,1973,3303,1745140199438079160
505895,-1179,1462,-1031,-4283,1904,3285,1745140199438079160
506087,-1218,1534,-1066,-4211,1812,3238,1745140199438079160
506279,-1258,1607,-1098,-4119,1735,3173,1745140199438079160
506471,-1297,1687,-1132,-4045,1701,3103,1745140199438079160
506663,-1346,1771,-1167,-3978,1715,3043,1745140199438079160
506855,-1400,1862,-1207,-3876,1699,2961,1745140199438079160
507047,-1450,1960,-1246,-3756,1668,2868,1745140199438079160
507239,-1487,2061,-1283,-3605,1669,2739,1745140199438079160
507431,-1511,2162,-1317,-3416,1639,2650,1745140199438079160
507623,-1529,2264,-1351,-3223,1608,2558,1745140199438079160
507815,-1550,2367,-1385,-2995,1550,2467,1745140199438079160
508007,-1576,2471,-1416,-2780,1444,2333,1745140199496678989
508199,-1605,2572,-1442,-2533,1318,2243,1745140199496678989
508391,-1635,2671,-1462,-2339,1201,2114,1745140199496678989
508583,-1665,2766,-1475,-2127,1106,1923,1745140199496678989
508775,-1702,2857,-1481,-1963,1029,1657,1745140199496678989
508967,-1740,2946,-1478,-1809,976,1373,1745140199496678989
509159,-1770,3033,-1469,-1709,953,1051,1745140199496678989
509351,-1784,3123,-1453,-1660,955,751,1745140199496678989
509543,-1779,3211,-1435,-1578,1000,447,1745140199496678989
509735,-1765,3295,-1426,-1421,1014,169,1745140199496678989
509927,-1751,3374,-1430,-1262,1075,-65,1745140199496678989
510119,-1730,3440,-1424,-1010,1123,-298,1745140199496678989
510311,-1702,3490,-1401,-765,1182,-507,1745140199560168409
510503,-1671,3537,-1364,-580,1202,-734,1745140199560168409
510695,-1635,3580,-1324,-476,1195,-1040,1745140199560168409
510887,-1598,3627,-1293,-383,1159,-1498,1745140199560168409
511079,-1563,3678,-1277,-367,1092,-2052,1745140199560168409
511271,-1519,3726,-1268,-363,1013,-2654,1745140199560168409
511463,-1464,3776,-1262,-338,977,-3273,1745140199560168409
511655,-1393,3825,-1254,-249,1020,-3941,1745140199560168409
511847,-1305,3861,-1242,-103,1172,-4613,1745140199560168409
512039,-1203,3885,-1216,1,1358,-5199,1745140199560168409
512231,-1081,3896,-1183,97,1497,-5818,1745140199560168409
512423,-926,3896,-1150,231,1614,-6400,1745140199560168409
512615,-733,3883,-1117,330,1634,-6786,1745140199615798109
512807,-522,3860,-1077,408,1495,-7199,1745140199615798109
512999,-317,3840,-1038,459,1257,-7711,1745140199615798109
513191,-122,3825,-1004,554,946,-8442,1745140199615798109
513383,62,3804,-981,605,511,-9199,1745140199615798109
513575,236,3774,-964,660,19,-9906,1745140199615798109
513767,388,3726,-949,825,-562,-10575,1745140199615798109
513959,492,3664,-952,1032,-1162,-11227,1745140199615798109
514151,529,3597,-978,1256,-1776,-11775,1745140199615798109
514343,507,3526,-1018,1475,-2358,-12291,1745140199615798109
514535,442,3445,-1063,1689,-2881,-12663,1745140199615798109
514727,333,3360,-1110,1862,-3384,-12952,1745140199615798109
514919,171,3273,-1154,2004,-3829,-13363,1745140199672168740
515111,-39,3183,-1198,2140,-4150,-13965,1745140199672168740
515303,-270,3092,-1228,2236,-4373,-14520,1745140199672168740
515495,-480,2990,-1234,2315,-4484,-14826,1745140199672168740
515687,-652,2881,-1217,2398,-4586,-14916,1745140199672168740
515879,-811,2769,-1185,2455,-4603,-14875,1745140199672168740
516071,-980,2655,-1148,2491,-4609,-14796,1745140199672168740
516263,-1160,2543,-1119,2460,-4521,-14697,1745140199672168740
516455,-1328,2428,-1092,2393,-4367,-14517,1745140199672168740
516647,-1460,2315,-1063,2293,-4122,-14324,1745140199672168740
516839,-1544,2205,-1028,2202,-3753,-14057,1745140199672168740
517031,-1589,2099,-997,2134,-3298,-13941,1745140199672168740
517223,-1604,2001,-972,2025,-2767,-14042,1745140199731641530
517415,-1572,1904,-940,1991,-2299,-14291,1745140199731641530
517607,-1474,1806,-910,2035,-2011,-14362,1745140199731641530
517799,-1334,1686,-878,2206,-1780,-14576,1745140199731641530
517991,-1159,1596,-817,2354,-1791,-14599,1745140199731641530
518183,-1001,1503,-752,2484,-1959,-14496,1745140199731641530
518375,-876,1391,-681,2652,-2169,-14384,1745140199731641530
518567,-786,1269,-609,2727,-2460,-14144,1745140199731641530
518759,-736,1137,-538,2726,-2755,-13852,1745140199731641530
518951,-725,1013,-472,2562,-2959,-13490,1745140199731641530
519143,-753,904,-411,2311,-3020,-13143,1745140199731641530
519335,-811,813,-365,1987,-3023,-12917,1745140199731641530
519527,-884,736,-335,1675,-2985,-12642,1745140199792004521
519719,-958,675,-315,1310,-2916,-12357,1745140199792004521
519911,-1024,635,-299,962,-2824,-12132,1745140199792004521
520103,-1072,619,-286,692,-2642,-11977,1745140199792004521
520295,-1095,605,-273,666,-2402,-11874,1745140199792004521
520487,-1092,586,-257,609,-2208,-11683,1745140199792004521
520679,-1077,563,-255,622,-2079,-11480,1745140199792004521
520871,-1055,533,-255,797,-1934,-11424,1745140199792004521
521063,-1015,504,-232,977,-1924,-11390,1745140199792004521
521255,-949,483,-198,1047,-1964,-11357,1745140199792004521
521447,-895,452,-166,1093,-1982,-11258,1745140199792004521
521639,-855,411,-138,1171,-1960,-11156,1745140199792004521
521831,-825,365,-114,1245,-1954,-11078,1745140199846914019
522023,-794,319,-86,1218,-1867,-10979,1745140199846914019
522215,-766,275,-54,1135,-1788,-10889,1745140199846914019
522407,-725,241,-8,1075,-1738,-10745,1745140199846914019
522599,-686,212,35,947,-1719,-10599,1745140199846914019
522791,-650,194,73,774,-1716,-10418,1745140199846914019
522983,-629,182,104,627,-1696,-10206,1745140199846914019
523175,-613,178,132,532,-1671,-10012,1745140199846914019
523367,-600,179,156,456,-1656,-9832,1745140199846914019
523559,-590,182,169,376,-1611,-9640,1745140199846914019
523751,-586,189,174,315,-1519,-9447,1745140199846914019
523943,-591,200,176,290,-1409,-9257,1745140199846914019
524135,-593,212,180,313,-1308,-9050,1745140199907645391
524327,-595,226,187,331,-1214,-8855,1745140199907645391
524519,-599,242,193,326,-1142,-8700,1745140199907645391
524711,-600,262,197,307,-1031,-8590,1745140199907645391
524903,-591,284,201,265,-909,-8629,1745140199907645391
525095,-560,300,206,241,-687,-8818,1745140199907645391
525287,-492,308,208,301,-238,-9271,1745140199907645391
525479,-355,291,212,429,149,-9426,1745140199907645391
525671,-180,251,209,620,477,-10154,1745140199907645391
525863,38,181,186,1016,816,-10558,1745140199907645391
526055,286,97,142,1258,812,-9676,1745140199907645391
526247,400,2,100,1316,523,-11137,1745140199907645391
526439,384,-58,49,1524,165,-12199,1745140199965965067
526631,165,-128,8,1701,-555,-12550,1745140199965965067
526823,-104,-248,26,1674,-930,-12594,1745140199965965067
527015,-249,-390,97,1411,-915,-12090,1745140199965965067
527207,-321,-473,198,1072,-784,-11383,1745140199965965067
527399,-335,-499,281,744,-700,-10463,1745140199965965067
527591,-333,-494,328,474,-619,-9709,1745140199965965067
527783,-323,-488,337,243,-534,-8919,1745140199965965067
527975,-310,-478,321,-61,-427,-8177,1745140199965965067
528167,-300,-455,302,-339,-296,-7553,1745140199965965067
528359,-292,-421,290,-540,-135,-7010,1745140199965965067
528551,-284,-374,280,-663,27,-6679,1745140199965965067
528743,-280,-324,262,-738,177,-6501,1745140200024774478
528935,-277,-273,230,-706,314,-6440,1745140200024774478
529127,-270,-225,193,-652,435,-6524,1745140200024774478
529319,-254,-187,161,-464,447,-6746,1745140200024774478
529511,-226,-153,136,-309,468,-7009,1745140200024774478
529703,-185,-132,122,-85,438,-7214,1745140200024774478
529895,-136,-122,118,75,374,-7431,1745140200024774478
530087,-88,-119,119,221,289,-7691,1745140200024774478
530279,-49,-127,117,340,221,-7964,1745140200024774478
530471,-20,-138,112,430,120,-8296,1745140200024774478
530663,5,-151,93,506,23,-8610,1745140200024774478
530855,25,-161,71,524,-110,-8858,1745140200024774478
531047,33,-169,59,567,-265,-9009,1745140200082997331
531239,29,-181,61,596,-480,-9073,1745140200082997331
531431,20,-189,68,614,-673,-9014,1745140200082997331
531623,-5,-200,78,595,-841,-8868,1745140200082997331
531815,-42,-212,83,591,-970,-8664,1745140200082997331
532007,-89,-225,86,540,-1002,-8421,1745140200082997331
532199,-141,-239,88,463,-962,-8180,1745140200082997331
532391,-190,-247,93,354,-797,-8001,1745140200082997331
532583,-230,-245,97,176,-584,-7885,1745140200082997331
532775,-257,-242,93,40,-310,-7802,1745140200082997331
532967,-267,-238,81,-49,-32,-7796,1745140200082997331
533159,-261,-224,61,-96,221,-7816,1745140200082997331
533351,-241,-210,39,-130,421,-7817,1745140200141849033
533543,-213,-194,22,-117,548,-7860,1745140200141849033
533735,-180,-179,13,-97,605,-7891,1745140200141849033
533927,-145,-170,10,-88,609,-7935,1745140200141849033
534119,-114,-161,7,-67,539,-8000,1745140200141849033
534311,-86,-153,10,-36,464,-8089,1745140200141849033
534503,-60,-146,16,-5,379,-8160,1745140200141849033
534695,-42,-143,23,43,294,-8187,1745140200141849033
534887,-28,-145,31,68,213,-8186,1745140200141849033
535079,-22,-151,34,78,119,-8149,1745140200141849033
535271,-24,-154,35,67,43,-8136,1745140200141849033
535463,-34,-157,36,43,11,-8096,1745140200141849033
535655,-49,-162,35,23,-26,-8039,1745140200201638070
535847,-64,-167,35,-7,29,-7969,1745140200201638070
536039,-76,-170,36,-48,105,-7925,1745140200201638070
536231,-79,-168,35,-89,189,-7914,1745140200201638070
536423,-76,-164,31,-97,285,-7931,1745140200201638070
536615,-67,-164,25,-87,321,-7939,1745140200201638070
536807,-52,-158,18,-114,328,-7921,1745140200201638070
536999,-41,-152,12,-92,277,-7920,1745140200201638070
537191,-35,-148,10,-77,206,-7920,1745140200201638070
537383,-33,-146,10,-43,137,-7921,1745140200201638070
537575,-34,-149,14,-36,82,-7920,1745140200201638070
537767,-42,-151,21,0,23,-7944,1745140200201638070
537959,-55,-155,28,17,-2,-8005,1745140200257695944
538151,-74,-161,34,0,11,-8011,1745140200257695944
538343,-93,-167,41,-40,12,-7989,1745140200257695944
538535,-112,-174,50,-67,68,-7970,1745140200257695944
538727,-133,-179,55,-90,113,-7923,1745140200257695944
538919,-147,-183,57,-140,207,-7889,1745140200257695944
539111,-150,-183,60,-214,367,-7833,1745140200257695944
539303,-143,-181,65,-242,525,-7781,1745140200257695944
539495,-131,-177,71,-258,647,-7766,1745140200257695944
539687,-114,-170,67,-277,709,-7769,1745140200257695944
539879,-90,-160,57,-288,704,-7810,1745140200257695944
540071,-59,-153,48,-288,626,-7846,1745140200257695944
540263,-29,-147,39,-280,537,-7890,1745140200317743937
540455,-7,-137,36,-247,417,-7978,1745140200317743937
540647,10,-130,37,-169,279,-8053,1745140200317743937
540839,23,-127,38,-138,150,-8077,1745140200317743937
541031,30,-127,42,-123,51,-8115,1745140200317743937
541223,26,-128,46,-90,-32,-8143,1745140200317743937
541415,11,-129,49,-145,-44,-8128,1745140200317743937
541607,-10,-139,47,-162,-48,-8071,1745140200317743937
541799,-29,-151,45,-225,-30,-8014,1745140200317743937
541991,-47,-160,44,-285,14,-7950,1745140200317743937
542183,-65,-160,44,-366,101,-7899,1745140200317743937
542375,-79,-155,44,-419,194,-7874,1745140200317743937
542567,-88,-149,39,-445,292,-7863,1745140200376242621
542759,-92,-141,34,-449,390,-7844,1745140200376242621
542951,-85,-133,27,-441,453,-7846,1745140200376242621
543143,-71,-123,21,-418,507,-7853,1745140200376242621
543335,-53,-111,18,-376,541,-7853,1745140200376242621
543527,-34,-104,16,-332,541,-7855,1745140200376242621
543719,-15,-99,16,-292,476,-7881,1745140200376242621
543911,1,-98,15,-243,392,-7894,1745140200376242621
544103,9,-99,12,-238,313,-7927,1745140200376242621
544295,11,-102,12,-235,222,-7947,1745140200376242621
544487,8,-105,11,-260,177,-7974,1745140200376242621
544679,4,-107,8,-310,130,-7992,1745140200376242621
544871,2,-107,4,-359,133,-7987,1745140200434991876
545063,1,-104,2,-404,158,-7985,1745140200434991876
545255,0,-99,2,-435,178,-7968,1745140200434991876
545447,-3,-97,-3,-451,208,-7985,1745140200434991876
545639,-8,-91,-7,-482,252,-7981,1745140200434991876
545831,-11,-87,-12,-482,268,-7978,1745140200434991876
546023,-10,-83,-13,-478,288,-7951,1745140200434991876
546215,-8,-77,-13,-483,305,-7922,1745140200434991876
546407,-5,-71,-12,-490,335,-7893,1745140200434991876
546599,0,-65,-14,-490,384,-7888,1745140200434991876
546791,6,-58,-15,-485,411,-7892,1745140200434991876
546983,15,-51,-17,-462,429,-7891,1745140200434991876
547175,26,-45,-22,-425,436,-7896,1745140200493296135
547367,36,-38,-22,-410,420,-7919,1745140200493296135
547559,46,-31,-23,-389,398,-7941,1745140200493296135
547751,54,-26,-26,-356,348,-7981,1745140200493296135
547943,62,-23,-30,-360,319,-7996,1745140200493296135
548135,69,-22,-31,-367,277,-7971,1745140200493296135
548327,72,-21,-32,-373,215,-7961,1745140200493296135
548519,67,-22,-33,-387,161,-7977,1745140200493296135
548711,58,-21,-32,-409,117,-7984,1745140200493296135
548903,46,-18,-31,-432,107,-7981,1745140200493296135
549095,36,-13,-27,-432,95,-7973,1745140200493296135
549287,27,-6,-25,-439,132,-7975,1745140200493296135
549479,19,-1,-27,-390,167,-7935,1745140200552029088
549671,10,-2,-31,-374,194,-7914,1745140200552029088
549863,7,3,-32,-414,266,-7911,1745140200552029088
550055,10,11,-24,-373,298,-7893,1745140200552029088
550247,18,13,-19,-348,339,-7899,1745140200552029088
550439,27,13,-22,-344,367,-7914,1745140200552029088
550631,33,10,-27,-340,396,-7914,1745140200552029088
550823,43,12,-30,-373,395,-7941,1745140200552029088
551015,55,15,-29,-388,399,-7936,1745140200552029088
551207,65,17,-28,-395,373,-7940,1745140200552029088
551399,69,18,-28,-392,326,-7958,1745140200552029088
551591,72,19,-28,-403,253,-7955,1745140200552029088
551783,70,22,-24,-423,186,-7955,1745140200611503701
551975,67,26,-18,-423,155,-7964,1745140200611503701
552167,59,28,-16,-432,143,-7944,1745140200611503701
552359,49,31,-16,-418,125,-7973,1745140200611503701
552551,40,34,-18,-407,117,-8002,1745140200611503701
552743,31,37,-17,-392,111,-7993,1745140200611503701
552935,20,38,-14,-369,124,-7969,1745140200611503701
553127,12,41,-8,-375,162,-7979,1745140200611503701
553319,6,43,-7,-375,204,-7976,1745140200611503701
553511,7,44,-7,-378,242,-7966,1745140200611503701
553703,11,45,-5,-377,270,-7954,1745140200611503701
553895,16,46,-5,-376,302,-7926,1745140200611503701
554087,22,49,-6,-375,306,-7906,1745140200669571504
554279,30,52,-4,-366,308,-7931,1745140200669571504
554471,39,54,-2,-372,346,-7919,1745140200669571504
554663,48,58,1,-359,358,-7894,1745140200669571504
554855,59,62,0,-360,380,-7879,1745140200669571504
555047,70,67,0,-323,350,-7885,1745140200669571504
555239,78,70,-1,-305,292,-7916,1745140200669571504
555431,82,72,-2,-279,231,-7919,1745140200669571504
555623,81,76,0,-267,181,-7953,1745140200669571504
555815,77,79,2,-241,155,-7964,1745140200669571504
556007,74,77,5,-225,117,-7973,1745140200669571504
556199,68,75,9,-222,102,-7925,1745140200669571504
556391,60,71,11,-235,84,-7897,1745140200728152323
556583,52,67,14,-259,83,-7905,1745140200728152323
556775,42,65,14,-270,81,-7889,1745140200728152323
556967,35,66,12,-299,94,-7883,1745140200728152323
557159,30,69,12,-296,130,-7899,1745140200728152323
557351,28,73,13,-312,177,-7907,1745140200728152323
557543,28,78,15,-286,227,-7908,1745140200728152323
557735,33,82,15,-271,277,-7907,1745140200728152323
557927,44,84,14,-242,290,-7932,1745140200728152323
558119,59,82,14,-238,311,-7951,1745140200728152323
558311,73,78,14,-228,295,-7975,1745140200728152323
558503,83,75,14,-222,261,-7981,1745140200728152323
558695,92,69,14,-245,217,-7976,1745140200786714288
558887,96,65,12,-274,178,-7932,1745140200786714288
559079,92,66,14,-321,119,-7905,1745140200786714288
559271,83,65,14,-327,68,-7906,1745140200786714288
559463,73,64,11,-309,29,-7907,1745140200786714288
559655,63,67,11,-304,13,-7905,1745140200786714288
559847,53,71,12,-261,1,-7902,1745140200786714288
560039,44,71,14,-220,17,-7914,1745140200786714288
560231,36,70,16,-175,39,-7912,1745140200786714288
560423,31,65,18,-145,60,-7896,1745140200786714288
560615,26,61,20,-117,90,-7893,1745140200786714288
560807,21,58,22,-127,118,-7881,1745140200786714288
560999,17,52,23,-116,152,-7886,1745140200845447658
561191,14,46,24,-129,183,-7877,1745140200845447658
561383,16,44,24,-144,203,-7880,1745140200845447658
561575,21,43,25,-159,217,-7900,1745140200845447658
561767,28,42,25,-146,249,-7924,1745140200845447658
561959,37,40,24,-159,247,-7942,1745140200845447658
562151,46,37,23,-175,219,-7942,1745140200845447658
562343,51,36,23,-171,164,-7936,1745140200845447658
562535,54,34,21,-192,122,-7933,1745140200845447658
562727,54,31,22,-170,47,-7938,1745140200845447658
562919,50,26,25,-185,-8,-7932,1745140200845447658
563111,43,21,25,-181,-49,-7946,1745140200845447658
563303,32,18,24,-176,-85,-7940,1745140200903706813
563495,20,14,22,-182,-95,-7922,1745140200903706813
563687,7,9,19,-185,-56,-7924,1745140200903706813
563879,-3,7,19,-207,-14,-7922,1745140200903706813
564071,-10,6,21,-177,38,-7915,1745140200903706813
564263,-14,3,21,-179,77,-7897,1745140200903706813
564455,-17,1,19,-165,123,-7884,1745140200903706813
564647,-17,-3,15,-141,141,-7872,1745140200903706813
564839,-16,-7,12,-141,166,-7860,1745140200903706813
565031,-12,-10,11,-157,179,-7878,1745140200903706813
565223,-7,-11,9,-165,173,-7895,1745140200903706813
565415,-1,-11,6,-156,171,-7912,1745140200903706813
565607,7,-12,2,-145,142,-7911,1745140200962568567
565799,12,-12,0,-140,115,-7895,1745140200962568567
565991,14,-9,-2,-144,75,-7902,1745140200962568567
566183,14,-9,-5,-132,56,-7915,1745140200962568567
566375,13,-10,-9,-129,30,-7907,1745140200962568567
566567,10,-10,-13,-97,26,-7935,1745140200962568567
566759,8,-12,-17,-112,23,-7951,1745140200962568567
566951,5,-16,-20,-105,61,-7941,1745140200962568567
567143,5,-22,-21,-113,93,-7914,1745140200962568567
567335,5,-26,-23,-141,111,-7918,1745140200962568567
567527,5,-28,-26,-171,112,-7902,1745140200962568567
567719,7,-28,-30,-200,109,-7926,1745140200962568567
567911,9,-29,-35,-207,92,-7921,1745140201021144803
568103,12,-25,-39,-221,82,-7926,1745140201021144803
568295,14,-21,-42,-228,60,-7908,1745140201021144803
568487,18,-16,-45,-217,61,-7915,1745140201021144803
568679,20,-11,-48,-188,63,-7919,1745140201021144803
568871,21,-8,-52,-180,58,-7946,1745140201021144803
569063,23,-8,-54,-163,41,-7958,1745140201021144803
569255,25,-11,-54,-160,48,-7959,1745140201021144803
569447,25,-13,-54,-164,49,-7960,1745140201021144803
569639,23,-16,-55,-181,52,-7953,1745140201021144803
569831,19,-19,-56,-195,33,-7946,1745140201021144803
570023,14,-24,-57,-211,28,-7949,1745140201021144803
570215,8,-26,-59,-233,23,-7918,1745140201079620831
570407,0,-28,-61,-252,24,-7915,1745140201079620831
570599,-10,-26,-62,-244,49,-7901,1745140201079620831
570791,-19,-26,-64,-240,60,-7901,1745140201079620831
570983,-25,-25,-66,-244,95,-7919,1745140201079620831
571175,-27,-24,-67,-228,122,-7946,1745140201079620831
571367,-25,-23,-67,-213,171,-7943,1745140201079620831
571559,-21,-22,-66,-195,211,-7939,1745140201079620831
571751,-13,-23,-65,-187,248,-7928,1745140201079620831
571943,-5,-22,-63,-179,242,-7916,1745140201079620831
572135,4,-24,-64,-178,252,-7920,1745140201079620831
572327,13,-26,-64,-168,221,-7901,1745140201079620831
572519,18,-28,-64,-170,160,-7903,1745140201138337743
572711,22,-29,-66,-185,113,-7917,1745140201138337743
572903,25,-29,-66,-175,57,-7913,1745140201138337743
573095,27,-29,-67,-170,8,-7941,1745140201138337743
573287,24,-26,-68,-178,4,-7936,1745140201138337743
573479,13,-26,-71,-151,-88,-7882,1745140201138337743
573671,-52,-38,-81,-100,-597,-7944,1745140201138337743
573863,-166,-51,-96,-152,-740,-7903,1745140201138337743
574055,-202,-57,-91,-235,-575,-7963,1745140201138337743
574247,-354,-60,-87,-146,-660,-8039,1745140201138337743
574439,-420,-59,-86,-190,-565,-8006,1745140201138337743
574631,-402,-59,-91,-258,-100,-8002,1745140201138337743
574823,-364,-47,-82,-278,361,-7943,1745140201196760490
575015,-289,-36,-74,-223,802,-7884,1745140201196760490
575207,-190,-37,-71,-120,1175,-7856,1745140201196760490
575399,-143,-46,-78,30,814,-7852,1745140201196760490
575591,-130,-74,-95,85,510,-7880,1745140201196760490
575783,-113,-94,-93,-26,460,-7887,1745140201196760490
575975,-71,-94,-67,-199,782,-7864,1745140201196760490
576167,-47,-93,-46,-216,459,-7861,1745140201196760490
576359,-76,-108,-59,-238,144,-7903,1745140201196760490
576551,-93,-111,-68,-333,150,-7925,1745140201196760490
576743,-87,-104,-57,-302,243,-7874,1745140201196760490
576935,-78,-98,-41,-267,370,-7907,1745140201196760490
577127,-70,-93,-31,-264,401,-7930,1745140201255537141
577319,-66,-87,-32,-300,330,-7920,1745140201255537141
577511,-67,-82,-39,-328,211,-7937,1745140201255537141
577703,-69,-78,-46,-351,145,-7909,1745140201255537141
577895,-73,-73,-47,-381,165,-7836,1745140201255537141
578087,-78,-74,-46,-349,253,-7788,1745140201255537141
578279,-78,-87,-46,-212,364,-7797,1745140201255537141
578471,-71,-102,-41,-95,447,-7867,1745140201255537141
578663,-60,-113,-34,-106,469,-7866,1745140201255537141
578855,-50,-122,-30,-161,402,-7915,1745140201255537141
579047,-46,-122,-29,-235,320,-7958,1745140201255537141
579239,-47,-124,-30,-263,291,-7947,1745140201255537141
579431,-43,-124,-27,-262,347,-7938,1745140201313582235
579623,-36,-121,-24,-283,368,-7931,1745140201313582235
579815,-28,-115,-21,-314,389,-7925,1745140201313582235
580007,-17,-110,-19,-302,386,-7937,1745140201313582235
580199,-9,-106,-20,-322,376,-7945,1745140201313582235
580391,1,-101,-21,-343,404,-7944,1745140201313582235
580583,12,-97,-24,-409,361,-7915,1745140201313582235
580775,9,-90,-28,-448,139,-7911,1745140201313582235
580967,-19,-89,-35,-386,-94,-7916,1745140201313582235
581159,-48,-91,-39,-367,-84,-7920,1745140201313582235
581351,-66,-88,-33,-379,146,-7919,1745140201313582235
581543,-70,-83,-28,-389,375,-7918,1745140201313582235
581735,-61,-78,-28,-363,496,-7926,1745140201372496749
581927,-46,-76,-32,-356,547,-7915,1745140201372496749
582119,-29,-77,-35,-376,565,-7891,1745140201372496749
582311,-12,-76,-33,-363,543,-7882,1745140201372496749
582503,3,-79,-30,-326,484,-7907,1745140201372496749
582695,13,-83,-28,-306,426,-7933,1745140201372496749
582887,15,-84,-26,-334,300,-7978,1745140201372496749
583079,9,-84,-27,-381,191,-8005,1745140201372496749
583271,1,-83,-29,-390,154,-8000,1745140201372496749
583463,-8,-79,-27,-435,170,-7986,1745140201372496749
583655,-17,-71,-25,-511,168,-7961,1745140201372496749
583847,-31,-58,-25,-566,147,-7904,1745140201372496749
637031,-194,1,18,-209,840,-7892,1745140202784270780
637223,-107,-46,-2,-324,341,-8303,1745140202784270780
637415,26,-73,-9,-505,375,-8130,1745140202784270780
637607,13,-32,4,-529,281,-8149,1745140202784270780
637799,-11,-3,10,-456,326,-8153,1745140202784270780
637991,9,-8,5,-379,382,-8141,1745140202784270780
638183,-14,11,7,-297,395,-8121,1745140202784270780
638375,-3,13,14,-237,395,-8108,1745140202784270780
638567,0,6,19,-330,346,-8160,1745140202784270780
638759,-13,27,20,-405,330,-8284,1745140202784270780
638951,6,45,16,-490,582,-8496,1745140202784270780
639143,37,75,13,-383,798,-8710,1745140202784270780
639335,70,99,6,-128,820,-8783,1745140202842406291
