timestamp,gyr_x,gyr_y,gyr_z,acc_x,acc_y,acc_z,pkt_time_ns
321760,232,-92,11,-616,1584,-7724,1745139198061555017
321952,559,-222,23,-587,956,-7536,1745139198061555017
322144,136,-69,15,-409,1358,-7631,1745139198061555017
322336,209,-91,13,-729,1233,-7740,1745139198061555017
322528,192,-94,6,-751,844,-7926,1745139198061555017
322720,194,-66,-2,-762,672,-8033,1745139198061555017
322912,191,-76,8,-721,690,-8253,1745139198061555017
323104,174,-56,21,-658,729,-8452,1745139198061555017
323296,166,-34,24,-545,511,-8637,1745139198061555017
323488,106,-34,21,-506,305,-8765,1745139198061555017
323680,44,-6,21,-525,372,-8915,1745139198061555017
323872,-11,19,21,-416,465,-9107,1745139198061555017
324064,-80,39,20,-312,498,-9266,1745139198118340644
324256,-136,74,18,-313,694,-9393,1745139198118340644
324448,-174,102,18,-198,976,-9433,1745139198118340644
324640,-193,119,19,73,1328,-9347,1745139198118340644
324832,-184,133,25,147,1732,-9184,1745139198118340644
325024,-157,133,33,304,2004,-8968,1745139198118340644
325216,-107,131,41,245,2191,-8724,1745139198118340644
325408,-151,191,40,-341,1342,-9387,1745139198118340644
325600,-145,230,53,54,2756,-7447,1745139198118340644
325792,62,227,13,420,1854,-9252,1745139198118340644
325984,20,414,-157,-351,2204,-8858,1745139198118340644
326176,-107,368,-84,-942,-896,-5724,1745139198118340644
326368,-68,235,0,-258,-379,-7578,1745139198177925569
326560,-142,193,48,-79,422,-7429,1745139198177925569
326752,-198,172,49,-161,1125,-7395,1745139198177925569
326944,-188,173,10,-264,1459,-7455,1745139198177925569
327136,-127,139,-23,-453,1498,-7526,1745139198177925569
327328,-60,127,-41,-592,1344,-7587,1745139198177925569
327520,-18,123,-45,-688,1118,-7618,1745139198177925569
327712,7,111,-47,-705,870,-7644,1745139198177925569
327904,15,110,-51,-676,749,-7677,1745139198177925569
328096,10,103,-54,-634,682,-7691,1745139198177925569
328288,5,97,-57,-609,674,-7700,1745139198177925569
328480,0,99,-58,-586,709,-7743,1745139198177925569
328672,0,92,-60,-570,762,-7770,1745139198237174142
328864,6,89,-65,-558,821,-7790,1745139198237174142
329056,10,85,-68,-506,841,-7786,1745139198237174142
329248,15,78,-70,-472,865,-7784,1745139198237174142
329440,17,75,-71,-442,907,-7813,1745139198237174142
329632,15,73,-71,-409,954,-7848,1745139198237174142
329824,14,71,-72,-363,1008,-7885,1745139198237174142
330016,14,69,-75,-324,1096,-7942,1745139198237174142
330208,15,65,-79,-296,1122,-7983,1745139198237174142
330400,18,60,-81,-267,1139,-8008,1745139198237174142
330592,19,58,-82,-227,1104,-8037,1745139198237174142
330784,19,55,-80,-217,1081,-8049,1745139198237174142
330976,16,52,-79,-181,1083,-8056,1745139198292962435
331168,10,49,-78,-147,1059,-8056,1745139198292962435
331360,5,47,-77,-145,1086,-8047,1745139198292962435
331552,-1,46,-77,-139,1111,-8058,1745139198292962435
331744,-5,44,-77,-156,1148,-8069,1745139198292962435
331936,-6,42,-77,-159,1162,-8070,1745139198292962435
332128,-5,39,-77,-162,1174,-8080,1745139198292962435
332320,-3,38,-76,-162,1140,-8086,1745139198292962435
332512,-1,36,-72,-184,1127,-8106,1745139198292962435
332704,0,35,-70,-190,1120,-8092,1745139198292962435
332896,1,33,-66,-200,1091,-8091,1745139198292962435
333088,2,30,-62,-225,1076,-8066,1745139198292962435
333280,1,30,-57,-223,1056,-8053,1745139198353298290
333472,0,29,-51,-239,1069,-8018,1745139198353298290
333664,-2,28,-47,-270,1051,-8012,1745139198353298290
333856,-5,27,-43,-284,1044,-8012,1745139198353298290
334048,-7,26,-39,-308,1036,-8006,1745139198353298290
334240,-7,25,-36,-304,1058,-8005,1745139198353298290
334432,-10,24,-34,-315,1044,-7991,1745139198353298290
334624,-13,23,-30,-324,1027,-7989,1745139198353298290
334816,-17,22,-29,-324,1028,-7995,1745139198353298290
335008,-20,22,-26,-336,1023,-7993,1745139198353298290
335200,-21,22,-24,-330,1032,-7989,1745139198353298290
335392,-23,22,-21,-328,1009,-7959,1745139198353298290
335584,-22,22,-19,-320,1030,-7951,1745139198410686515
335776,-23,22,-17,-313,1023,-7952,1745139198410686515
335968,-23,24,-15,-316,1010,-7964,1745139198410686515
336160,-24,25,-13,-328,1035,-7984,1745139198410686515
336352,-22,27,-12,-328,1056,-7991,1745139198410686515
336544,-19,30,-10,-310,1064,-8029,1745139198410686515
336736,-15,33,-8,-292,1065,-8044,1745139198410686515
336928,-13,36,-5,-288,1070,-8058,1745139198410686515
337120,-10,39,-3,-269,1083,-8078,1745139198410686515
337312,-8,41,-3,-251,1076,-8079,1745139198410686515
337504,-8,42,-3,-275,1056,-8082,1745139198410686515
337696,-9,46,-2,-290,1042,-8077,1745139198410686515
337888,-10,52,0,-299,1055,-8077,1745139198468393280
338080,-11,57,2,-278,1065,-8094,1745139198468393280
338272,-12,62,3,-247,1079,-8093,1745139198468393280
338464,-12,66,3,-241,1086,-8091,1745139198468393280
338656,-12,70,3,-232,1109,-8084,1745139198468393280
338848,-10,74,3,-244,1115,-8085,1745139198468393280
339040,-8,79,2,-249,1101,-8082,1745139198468393280
339232,-6,84,0,-237,1099,-8123,1745139198468393280
339424,-3,89,-2,-229,1110,-8135,1745139198468393280
339616,0,94,-2,-209,1113,-8144,1745139198468393280
339808,3,99,-1,-198,1109,-8147,1745139198468393280
340000,8,103,0,-200,1119,-8145,1745139198468393280
340192,12,108,1,-199,1109,-8123,1745139198528809759
340384,17,114,1,-206,1089,-8111,1745139198528809759
340576,21,119,1,-196,1075,-8114,1745139198528809759
340768,25,123,0,-177,1039,-8108,1745139198528809759
340960,26,127,0,-168,1034,-8100,1745139198528809759
341152,27,129,-1,-152,1027,-8103,1745139198528809759
341344,28,132,-2,-159,1011,-8086,1745139198528809759
341536,28,135,-3,-165,1027,-8092,1745139198528809759
341728,27,139,-4,-184,1032,-8083,1745139198528809759
341920,29,144,-6,-164,1052,-8099,1745139198528809759
342112,32,148,-7,-163,1086,-8102,1745139198528809759
342304,36,151,-7,-138,1085,-8103,1745139198528809759
342496,39,153,-7,-117,1099,-8098,1745139198585824186
342688,42,157,-7,-111,1114,-8115,1745139198585824186
342880,44,162,-5,-77,1131,-8142,1745139198585824186
343072,44,167,-3,-46,1126,-8175,1745139198585824186
343264,45,171,-3,-27,1157,-8203,1745139198585824186
343456,46,175,0,9,1153,-8209,1745139198585824186
343648,48,178,1,11,1155,-8225,1745139198585824186
343840,52,183,2,9,1122,-8228,1745139198585824186
344032,55,189,3,31,1101,-8238,1745139198585824186
344224,56,195,3,34,1098,-8260,1745139198585824186
344416,58,202,3,25,1080,-8290,1745139198585824186
344608,62,209,3,34,1085,-8295,1745139198585824186
344800,67,217,3,49,1068,-8287,1745139198645790826
344992,73,225,1,73,1045,-8286,1745139198645790826
345184,80,231,0,76,1046,-8313,1745139198645790826
345376,85,237,0,106,1022,-8311,1745139198645790826
345568,86,244,0,89,1020,-8318,1745139198645790826
345760,84,252,2,73,1037,-8310,1745139198645790826
345952,84,261,4,102,1062,-8325,1745139198645790826
346144,85,271,4,127,1107,-8339,1745139198645790826
346336,85,279,4,185,1136,-8365,1745139198645790826
346528,87,290,5,206,1163,-8384,1745139198645790826
346720,91,301,7,214,1190,-8424,1745139198645790826
346912,99,313,5,226,1181,-8487,1745139198645790826
347104,108,327,1,211,1155,-8559,1745139198703776338
347296,119,340,-3,233,1114,-8653,1745139198703776338
347488,132,356,-7,258,1058,-8704,1745139198703776338
347680,144,372,-12,281,980,-8757,1745139198703776338
347872,153,388,-19,302,895,-8791,1745139198703776338
348064,162,403,-27,301,858,-8785,1745139198703776338
348256,169,417,-31,278,859,-8795,1745139198703776338
348448,180,430,-34,292,860,-8786,1745139198703776338
348640,192,442,-41,294,845,-8777,1745139198703776338
348832,205,453,-51,297,803,-8745,1745139198703776338
349024,217,466,-61,336,759,-8751,1745139198703776338
349216,223,480,-74,368,712,-8771,1745139198703776338
349408,227,493,-85,363,673,-8796,1745139198762193721
349600,234,510,-98,354,647,-8851,1745139198762193721
349792,245,531,-111,395,643,-8972,1745139198762193721
349984,262,551,-128,394,552,-9039,1745139198762193721
350176,294,573,-152,420,491,-9294,1745139198762193721
350368,337,592,-179,492,363,-9545,1745139198762193721
350560,380,612,-200,550,189,-9778,1745139198762193721
350752,418,634,-215,620,12,-10083,1745139198762193721
350944,459,655,-223,674,-79,-10405,1745139198762193721
351136,511,677,-234,684,-136,-10710,1745139198762193721
351328,571,698,-250,779,-229,-11096,1745139198762193721
351520,629,712,-270,939,-439,-11494,1745139198762193721
351712,680,715,-291,1150,-769,-11907,1745139198821082454
351904,729,704,-310,1373,-1155,-12268,1745139198821082454
352096,777,682,-325,1567,-1840,-12337,1745139198821082454
352288,817,627,-319,2147,-3215,-13121,1745139198821082454
352480,764,545,-303,2026,-3936,-13923,1745139198821082454
352672,595,456,-304,1638,-3720,-15205,1745139198821082454
352864,372,539,-328,909,-3561,-15119,1745139198821082454
353056,224,546,-344,1004,-4002,-15155,1745139198821082454
353248,154,483,-320,1661,-4914,-15938,1745139198821082454
353440,100,398,-234,1812,-5344,-16018,1745139198821082454
353632,18,358,-120,1778,-5325,-16110,1745139198821082454
353824,-19,345,-32,1862,-4579,-17036,1745139198821082454
354016,37,333,2,1978,-3054,-17991,1745139198877270482
354208,230,298,-2,2562,-1703,-19130,1745139198877270482
354400,557,202,19,3706,-1042,-20339,1745139198877270482
354592,989,21,117,4805,-966,-21187,1745139198877270482
354784,1458,-246,264,5673,-1487,-22168,1745139198877270482
354976,1900,-574,389,6396,-2561,-23434,1745139198877270482
355168,2311,-908,481,6824,-3615,-24525,1745139198877270482
355360,2707,-1223,567,6853,-4133,-25035,1745139198877270482
355552,3055,-1537,686,6895,-4547,-25330,1745139198877270482
355744,3321,-1842,826,6863,-4908,-25363,1745139198877270482
355936,3505,-2128,978,6698,-5072,-25141,1745139198877270482
356128,3606,-2394,1143,6619,-4983,-24751,1745139198877270482
356320,3612,-2646,1321,6649,-4803,-24223,1745139198939569132
356512,3532,-2893,1514,6736,-4510,-23628,1745139198939569132
356704,3400,-3131,1728,6906,-4181,-22954,1745139198939569132
356896,3231,-3371,1950,7136,-3945,-22152,1745139198939569132
357088,3020,-3616,2167,7347,-3818,-21244,1745139198939569132
357280,2761,-3865,2371,7571,-3702,-20291,1745139198939569132
357472,2451,-4103,2552,7756,-3498,-19293,1745139198939569132
357664,2101,-4326,2707,7899,-3096,-18280,1745139198939569132
357856,1725,-4535,2830,8081,-2449,-17200,1745139198939569132
358048,1345,-4733,2914,8318,-1605,-16092,1745139198939569132
358240,968,-4922,2954,8589,-574,-15113,1745139198939569132
358432,607,-5076,2945,8916,548,-14221,1745139198939569132
358624,270,-5201,2880,9076,1784,-13019,1745139198998214638
358816,-2,-5352,2801,9049,3314,-11433,1745139198998214638
359008,-171,-5573,2789,9283,4246,-10531,1745139198998214638
359200,-260,-5767,2734,9437,5415,-9683,1745139198998214638
359392,-269,-5905,2658,9319,6392,-8600,1745139198998214638
359584,-184,-6039,2570,9193,6960,-7456,1745139198998214638
359776,11,-6173,2470,9053,7228,-6592,1745139198998214638
359968,253,-6285,2364,8746,7304,-6013,1745139198998214638
360160,487,-6357,2257,8280,7146,-5164,1745139198998214638
360352,730,-6387,2154,7774,6901,-4498,1745139198998214638
360544,936,-6377,2062,7300,6647,-3787,1745139198998214638
360736,1089,-6334,1976,6857,6450,-3256,1745139198998214638
360928,1205,-6254,1902,6504,6335,-2629,1745139199052239405
361120,1300,-6160,1836,6359,6209,-1999,1745139199052239405
361312,1376,-6055,1770,6177,6127,-1423,1745139199052239405
361504,1430,-5939,1711,6048,5990,-781,1745139199052239405
361696,1451,-5824,1657,5862,5759,-187,1745139199052239405
361888,1443,-5705,1603,5516,5445,362,1745139199052239405
362080,1423,-5580,1555,5064,5155,665,1745139199052239405
362272,1419,-5440,1506,4545,4996,998,1745139199052239405
362464,1440,-5291,1452,4234,4804,1500,1745139199052239405
362656,1460,-5155,1394,4126,4439,1969,1745139199052239405
362848,1466,-5028,1346,3931,4071,2501,1745139199052239405
363040,1457,-4910,1314,3672,3637,3327,1745139199052239405
363232,1415,-4798,1272,3212,3315,3984,1745139199115611586
363424,1310,-4688,1212,2559,3031,4677,1745139199115611586
363616,1176,-4570,1137,1910,2816,5605,1745139199115611586
363808,1018,-4451,1043,1244,2660,6331,1745139199115611586
364000,818,-4323,935,581,2477,6917,1745139199115611586
364192,587,-4184,820,-80,2265,7255,1745139199115611586
364384,352,-4030,703,-782,2140,7481,1745139199115611586
364576,153,-3857,590,-1474,2116,7650,1745139199115611586
364768,8,-3662,479,-2148,2174,7620,1745139199115611586
364960,-69,-3456,371,-2752,2266,7502,1745139199115611586
365152,-85,-3239,269,-3334,2357,7213,1745139199115611586
365344,-49,-3010,183,-3806,2399,6987,1745139199115611586
365536,34,-2776,117,-4165,2396,6774,1745139199172142372
365728,154,-2540,73,-4425,2355,6645,1745139199172142372
365920,292,-2310,43,-4610,2292,6608,1745139199172142372
366112,437,-2087,27,-4784,2271,6735,1745139199172142372
366304,578,-1879,20,-4955,2156,6770,1745139199172142372
366496,712,-1685,14,-5174,2003,6727,1745139199172142372
366688,846,-1505,6,-5439,1818,6753,1745139199172142372
366880,965,-1332,-2,-5651,1623,6680,1745139199172142372
367072,1050,-1177,-15,-5783,1348,6558,1745139199172142372
367264,1091,-1032,-32,-5861,1091,6425,1745139199172142372
367456,1098,-898,-44,-5893,828,6216,1745139199172142372
367648,1077,-775,-51,-5856,585,5932,1745139199172142372
367840,1034,-673,-57,-5804,391,5598,1745139199231946982
368032,980,-592,-58,-5704,220,5299,1745139199231946982
368224,922,-525,-56,-5633,105,4958,1745139199231946982
368416,859,-467,-51,-5592,71,4638,1745139199231946982
368608,796,-420,-45,-5553,90,4378,1745139199231946982
368800,745,-382,-36,-5548,144,4172,1745139199231946982
368992,709,-351,-28,-5586,169,3935,1745139199231946982
369184,683,-329,-18,-5646,186,3789,1745139199231946982
369376,664,-314,-7,-5753,136,3705,1745139199231946982
369568,654,-306,3,-5883,34,3650,1745139199231946982
369760,647,-302,12,-6097,-96,3566,1745139199231946982
369952,638,-293,22,-6336,-264,3381,1745139199231946982
370144,619,-279,28,-6527,-484,3231,1745139199289563591
370336,589,-269,30,-6655,-684,3106,1745139199289563591
370528,551,-262,29,-6797,-841,3010,1745139199289563591
370720,504,-255,30,-6917,-947,2900,1745139199289563591
370912,447,-249,33,-6999,-1023,2871,1745139199289563591
371104,386,-247,34,-7071,-1090,2870,1745139199289563591
371296,324,-246,28,-7192,-1152,2919,1745139199289563591
371488,259,-245,17,-7294,-1147,2939,1745139199289563591
371680,192,-242,8,-7399,-1102,2895,1745139199289563591
371872,126,-233,3,-7480,-1052,2796,1745139199289563591
372064,63,-216,-3,-7436,-1038,2683,1745139199289563591
372256,8,-206,-6,-7336,-1060,2525,1745139199289563591
372448,-56,-195,2,-7376,-1080,2459,1745139199348915549
372640,-78,-191,18,-7432,-1106,2444,1745139199348915549
372832,-88,-186,31,-7666,-1074,2388,1745139199348915549
373024,-104,-171,45,-8030,-990,2402,1745139199348915549
373216,-109,-131,69,-8368,-854,2387,1745139199348915549
373408,-100,-75,99,-8505,-703,2377,1745139199348915549
373600,-76,-19,120,-8411,-607,2374,1745139199348915549
373792,-38,21,131,-8132,-574,2296,1745139199348915549
373984,-2,38,128,-7822,-619,2254,1745139199348915549
374176,17,37,117,-7567,-718,2233,1745139199348915549
374368,18,24,103,-7516,-812,2187,1745139199348915549
374560,2,17,90,-7715,-884,2131,1745139199348915549
374752,-20,30,84,-8030,-879,2054,1745139199406377837
374944,-36,56,85,-8223,-823,1972,1745139199406377837
375136,-44,91,88,-8376,-726,1904,1745139199406377837
375328,-42,126,97,-8361,-645,1856,1745139199406377837
375520,-36,153,106,-8244,-614,1795,1745139199406377837
375712,-31,174,108,-8142,-613,1715,1745139199406377837
375904,-19,192,115,-8140,-656,1642,1745139199406377837
376096,2,211,127,-8265,-677,1561,1745139199406377837
376288,27,233,142,-8366,-680,1431,1745139199406377837
376480,45,241,139,-8203,-780,1343,1745139199406377837
376672,54,255,110,-8415,-857,1293,1745139199406377837
376864,58,295,91,-8568,-871,1202,1745139199406377837
377056,63,323,89,-8321,-901,1069,1745139199466314997
377248,72,329,88,-8165,-895,917,1745139199466314997
377440,86,335,90,-8172,-894,760,1745139199466314997
377632,105,335,90,-8168,-905,621,1745139199466314997
377824,121,328,84,-8211,-893,473,1745139199466314997
378016,132,322,80,-8250,-912,316,1745139199466314997
378208,140,318,78,-8273,-949,202,1745139199466314997
378400,142,309,79,-8233,-973,90,1745139199466314997
378592,133,293,80,-8187,-965,7,1745139199466314997
378784,113,273,81,-8135,-932,-29,1745139199466314997
378976,86,249,86,-8143,-910,-68,1745139199466314997
379168,58,224,93,-8249,-872,-86,1745139199466314997
379360,33,205,100,-8455,-810,-114,1745139199523613432
379552,18,195,114,-8588,-736,-192,1745139199523613432
379744,15,188,129,-8559,-648,-251,1745139199523613432
379936,19,178,142,-8399,-598,-310,1745139199523613432
380128,20,159,145,-8163,-616,-326,1745139199523613432
380320,16,129,140,-7991,-648,-328,1745139199523613432
380512,10,93,138,-7944,-692,-340,1745139199523613432
380704,1,52,142,-8017,-655,-303,1745139199523613432
380896,-11,13,148,-8171,-595,-250,1745139199523613432
381088,-22,-13,154,-8305,-519,-167,1745139199523613432
381280,-26,-32,166,-8296,-451,-68,1745139199523613432
381472,-33,-51,173,-8279,-429,7,1745139199523613432
381664,-51,-73,163,-8267,-435,92,1745139199583193305
381856,-72,-95,143,-8240,-472,146,1745139199583193305
382048,-94,-115,127,-8258,-500,227,1745139199583193305
382240,-120,-127,117,-8290,-507,295,1745139199583193305
382432,-151,-135,111,-8284,-527,348,1745139199583193305
382624,-173,-140,108,-8282,-486,412,1745139199583193305
382816,-187,-143,103,-8307,-412,413,1745139199583193305
383008,-194,-145,97,-8339,-339,422,1745139199583193305
383200,-191,-144,93,-8343,-283,468,1745139199583193305
383392,-179,-141,86,-8376,-243,494,1745139199583193305
383584,-166,-137,74,-8429,-240,531,1745139199583193305
383776,-154,-130,60,-8493,-255,605,1745139199583193305
383968,-146,-122,47,-8522,-296,678,1745139199637465569
384160,-140,-116,35,-8547,-350,741,1745139199637465569
384352,-142,-106,22,-8606,-375,821,1745139199637465569
384544,-151,-88,13,-8662,-350,869,1745139199637465569
384736,-164,-65,7,-8651,-300,888,1745139199637465569
384928,-172,-38,1,-8596,-232,880,1745139199637465569
385120,-170,-11,-7,-8550,-181,816,1745139199637465569
385312,-155,15,-14,-8457,-166,722,1745139199637465569
385504,-130,36,-18,-8367,-154,664,1745139199637465569
385696,-97,57,-20,-8296,-144,602,1745139199637465569
385888,-61,74,-25,-8226,-158,568,1745139199637465569
386080,-22,87,-29,-8152,-203,510,1745139199637465569
386272,16,96,-35,-8123,-271,481,1745139199699923020
386464,48,101,-37,-8107,-348,465,1745139199699923020
386656,72,104,-40,-8139,-406,444,1745139199699923020
386848,85,109,-44,-8180,-468,425,1745139199699923020
387040,86,114,-49,-8180,-502,398,1745139199699923020
387232,77,118,-54,-8176,-509,352,1745139199699923020
387424,67,121,-52,-8167,-510,301,1745139199699923020
387616,58,123,-47,-8135,-540,238,1745139199699923020
387808,47,122,-46,-8131,-543,194,1745139199699923020
388000,36,121,-44,-8121,-550,196,1745139199699923020
388192,31,121,-38,-8113,-570,160,1745139199699923020
388384,29,123,-34,-8079,-578,115,1745139199699923020
388576,30,128,-30,-8001,-577,72,1745139199757344318
388768,34,127,-26,-7898,-581,30,1745139199757344318
388960,41,119,-26,-7853,-604,-17,1745139199757344318
389152,50,108,-24,-7832,-602,-19,1745139199757344318
389344,57,95,-24,-7902,-605,0,1745139199757344318
389536,60,91,-26,-7986,-579,-11,1745139199757344318
389728,59,79,-33,-7848,-585,-16,1745139199757344318
389920,59,71,-31,-8119,-537,36,1745139199757344318
390112,66,76,-15,-7939,-539,61,1745139199757344318
390304,68,62,-20,-7842,-630,45,1745139199757344318
390496,59,42,-36,-7571,-732,-13,1745139199757344318
390688,47,11,-33,-7630,-756,-78,1745139199757344318
390880,38,2,-13,-8024,-777,-39,1745139199816925701
391072,30,-4,-21,-8194,-828,11,1745139199816925701
391264,25,-13,-50,-8162,-817,70,1745139199816925701
391456,26,-13,-51,-8207,-766,143,1745139199816925701
391648,31,-12,-26,-8263,-695,198,1745139199816925701
391840,38,-8,-5,-8211,-647,247,1745139199816925701
392032,43,-5,-1,-8199,-614,275,1745139199816925701
392224,52,1,-3,-8175,-626,312,1745139199816925701
392416,60,1,-3,-8133,-653,307,1745139199816925701
392608,61,-4,0,-8091,-697,287,1745139199816925701
392800,56,-10,1,-8085,-752,259,1745139199816925701
392992,47,-12,4,-8116,-759,238,1745139199816925701
393184,36,-8,13,-8130,-725,207,1745139199874359030
393376,27,0,23,-8129,-692,226,1745139199874359030
393568,23,9,33,-8139,-663,259,1745139199874359030
393760,21,13,38,-8097,-647,288,1745139199874359030
393952,13,7,35,-8032,-666,282,1745139199874359030
394144,3,3,28,-8052,-670,292,1745139199874359030
394336,-7,2,24,-8158,-650,277,1745139199874359030
394528,-17,2,19,-8212,-632,276,1745139199874359030
394720,-26,-2,12,-8278,-634,306,1745139199874359030
394912,-30,3,11,-8290,-623,291,1745139199874359030
395104,-31,13,16,-8276,-563,268,1745139199874359030
395296,-35,20,19,-8178,-511,239,1745139199874359030
395488,-36,20,18,-8023,-482,248,1745139199933919215
395680,-31,15,14,-7993,-465,285,1745139199933919215
395872,-21,16,14,-8062,-445,323,1745139199933919215
396064,-10,21,15,-8101,-447,317,1745139199933919215
396256,-1,28,15,-8058,-510,287,1745139199933919215
396448,5,28,12,-7998,-553,264,1745139199933919215
396640,11,26,11,-8037,-589,275,1745139199933919215
396832,17,20,9,-8119,-583,261,1745139199933919215
397024,20,21,8,-8223,-551,280,1745139199933919215
397216,23,30,5,-8334,-494,282,1745139199933919215
397408,32,45,4,-8397,-414,314,1745139199933919215
397600,46,59,5,-8357,-371,290,1745139199933919215
397792,63,66,4,-8221,-377,244,1745139199990194639
397984,77,68,-1,-8064,-456,220,1745139199990194639
398176,85,61,-7,-7995,-557,195,1745139199990194639
398368,87,51,-10,-7970,-638,171,1745139199990194639
398560,81,42,-9,-8082,-660,180,1745139199990194639
398752,71,38,-7,-8144,-666,160,1745139199990194639
398944,62,39,-11,-8249,-630,141,1745139199990194639
399136,61,42,-12,-8285,-593,166,1745139199990194639
399328,63,48,-10,-8232,-540,134,1745139199990194639
399520,63,52,-3,-8175,-497,120,1745139199990194639
399712,61,50,2,-8093,-513,111,1745139199990194639
399904,56,42,-2,-8019,-559,145,1745139199990194639
400096,48,33,-7,-8014,-591,174,1745139200050369766
400288,35,29,-11,-8020,-598,168,1745139200050369766
400480,21,26,-9,-8053,-604,182,1745139200050369766
400672,9,23,-7,-8102,-626,194,1745139200050369766
400864,1,22,-7,-8102,-629,201,1745139200050369766
401056,-5,20,-9,-8098,-641,194,1745139200050369766
401248,-8,15,-11,-8109,-676,188,1745139200050369766
401440,-8,9,-13,-8129,-686,213,1745139200050369766
401632,-8,5,-13,-8150,-680,230,1745139200050369766
401824,-11,0,-10,-8168,-682,278,1745139200050369766
402016,-15,-3,-8,-8177,-666,336,1745139200050369766
402208,-19,-3,-8,-8190,-638,373,1745139200050369766
402400,-22,0,-10,-8187,-616,377,1745139200106939822
402592,-25,5,-10,-8177,-593,393,1745139200106939822
402784,-22,10,-9,-8140,-601,390,1745139200106939822
402976,-18,12,-8,-8108,-650,389,1745139200106939822
403168,-13,14,-8,-8095,-659,393,1745139200106939822
403360,-12,16,-9,-8082,-685,403,1745139200106939822
403552,-17,19,-10,-8112,-678,435,1745139200106939822
403744,-24,23,-10,-8155,-652,441,1745139200106939822
403936,-31,29,-9,-8192,-651,468,1745139200106939822
404128,-37,36,-10,-8229,-629,477,1745139200106939822
404320,-43,44,-11,-8233,-628,495,1745139200106939822
404512,-51,51,-12,-8260,-612,499,1745139200106939822
404704,-58,63,-13,-8245,-600,458,1745139200167263490
404896,-64,73,-11,-8240,-597,435,1745139200167263490
405088,-65,79,-7,-8174,-583,404,1745139200167263490
405280,-62,86,-5,-8143,-544,395,1745139200167263490
405472,-56,91,-6,-8162,-538,402,1745139200167263490
405664,-45,97,-5,-8184,-544,380,1745139200167263490
405856,-31,103,-4,-8217,-583,321,1745139200167263490
406048,-18,111,0,-8235,-590,272,1745139200167263490
406240,-7,119,3,-8205,-600,200,1745139200167263490
406432,2,125,5,-8143,-613,170,1745139200167263490
406624,14,125,9,-8099,-651,136,1745139200167263490
406816,25,121,12,-8091,-680,110,1745139200167263490
407008,31,117,13,-8095,-723,77,1745139200224309844
407200,28,113,16,-8087,-740,45,1745139200224309844
407392,24,110,20,-8097,-751,7,1745139200224309844
407584,19,106,22,-8076,-762,-31,1745139200224309844
407776,12,98,24,-8075,-757,-61,1745139200224309844
407968,3,89,25,-8053,-742,-99,1745139200224309844
408160,-7,78,27,-8046,-698,-122,1745139200224309844
408352,-14,67,30,-8037,-624,-122,1745139200224309844
408544,-16,57,32,-8011,-575,-135,1745139200224309844
408736,-16,47,33,-8032,-547,-118,1745139200224309844
408928,-16,38,33,-8018,-540,-114,1745139200224309844
409120,-20,33,33,-8047,-541,-111,1745139200224309844
409312,-24,26,34,-7973,-582,-115,1745139200284149870
409504,-30,14,33,-7949,-591,-110,1745139200284149870
409696,-40,1,33,-7987,-616,-88,1745139200284149870
409888,-53,-10,33,-8069,-629,-75,1745139200284149870
410080,-70,-17,30,-8127,-617,-53,1745139200284149870
410272,-88,-19,27,-8165,-585,-35,1745139200284149870
410464,-98,-20,28,-8166,-529,-13,1745139200284149870
410656,-104,-18,29,-8152,-475,19,1745139200284149870
410848,-103,-19,30,-8139,-438,36,1745139200284149870
411040,-94,-20,28,-8141,-396,70,1745139200284149870
411232,-81,-19,24,-8192,-367,82,1745139200284149870
411424,-66,-20,20,-8201,-373,89,1745139200284149870
411616,-50,-21,13,-8225,-406,116,1745139200341442524
411808,-32,-20,7,-8267,-439,123,1745139200341442524
412000,-14,-19,6,-8312,-450,136,1745139200341442524
412192,6,-15,5,-8362,-460,146,1745139200341442524
412384,20,-9,4,-8380,-444,170,1745139200341442524
412576,29,-1,1,-8348,-439,194,1745139200341442524
412768,34,6,1,-8319,-455,206,1745139200341442524
412960,33,14,1,-8320,-475,213,1745139200341442524
413152,30,18,4,-8300,-500,221,1745139200341442524
413344,23,23,5,-8283,-536,213,1745139200341442524
413536,13,30,4,-8258,-546,194,1745139200341442524
413728,4,36,4,-8229,-570,185,1745139200341442524
413920,1,40,4,-8197,-535,202,1745139200400785992
414112,4,42,3,-8190,-512,209,1745139200400785992
414304,8,41,0,-8206,-479,215,1745139200400785992
414496,13,43,-6,-8234,-457,211,1745139200400785992
414688,16,47,-10,-8245,-450,205,1745139200400785992
414880,19,49,-14,-8221,-446,158,1745139200400785992
415072,24,49,-16,-8218,-466,156,1745139200400785992
415264,27,47,-16,-8244,-478,126,1745139200400785992
415456,26,48,-18,-8237,-499,108,1745139200400785992
415648,22,50,-18,-8224,-508,93,1745139200400785992
415840,17,52,-16,-8209,-514,102,1745139200400785992
416032,13,52,-14,-8184,-509,89,1745139200400785992
416224,8,52,-14,-8151,-506,68,1745139200457984376
416416,7,52,-15,-8119,-508,86,1745139200457984376
416608,9,52,-16,-8076,-502,70,1745139200457984376
416800,10,50,-15,-8033,-506,84,1745139200457984376
416992,10,48,-14,-8005,-491,77,1745139200457984376
417184,11,45,-13,-8012,-487,89,1745139200457984376
417376,16,41,-13,-8010,-494,86,1745139200457984376
417568,22,36,-14,-8057,-490,73,1745139200457984376
417760,28,32,-14,-8120,-509,70,1745139200457984376
417952,30,32,-13,-8136,-514,70,1745139200457984376
418144,25,33,-13,-8132,-551,68,1745139200457984376
418336,18,36,-14,-8137,-586,70,1745139200457984376
418528,12,37,-12,-8123,-596,69,1745139200516109887
418720,9,37,-9,-8110,-602,67,1745139200516109887
418912,7,36,-7,-8115,-618,73,1745139200516109887
419104,2,35,-7,-8112,-612,78,1745139200516109887
419296,-3,35,-8,-8142,-628,69,1745139200516109887
419488,-6,35,-8,-8117,-606,56,1745139200516109887
419680,-7,36,-7,-8092,-578,45,1745139200516109887
419872,-7,34,-6,-8068,-560,35,1745139200516109887
420064,-4,30,-4,-8056,-544,25,1745139200516109887
420256,-2,25,-5,-8037,-540,41,1745139200516109887
420448,-3,21,-6,-8063,-546,52,1745139200516109887
420640,-5,20,-7,-8071,-549,60,1745139200516109887
420832,-8,18,-6,-8091,-569,70,1745139200576429127
421024,-10,15,-4,-8118,-589,57,1745139200576429127
421216,-9,12,-4,-8179,-607,51,1745139200576429127
421408,-9,11,-3,-8225,-585,59,1745139200576429127
421600,-9,13,-1,-8235,-579,66,1745139200576429127
421792,-9,15,-1,-8239,-572,88,1745139200576429127
421984,-10,17,-2,-8231,-555,124,1745139200576429127
422176,-10,18,-1,-8223,-559,168,1745139200576429127
422368,-11,22,-1,-8239,-557,192,1745139200576429127
422560,-12,27,0,-8217,-553,190,1745139200576429127
422752,-15,33,0,-8195,-554,177,1745139200576429127
422944,-19,38,1,-8140,-550,173,1745139200576429127
423136,-23,43,1,-8096,-543,169,1745139200633526574
423328,-28,46,0,-8082,-549,158,1745139200633526574
423520,-32,49,-1,-8082,-545,151,1745139200633526574
423712,-32,52,-1,-8106,-564,139,1745139200633526574
423904,-28,54,-2,-8150,-557,118,1745139200633526574
424096,-25,56,-3,-8176,-564,111,1745139200633526574
424288,-21,59,-6,-8183,-548,120,1745139200633526574
424480,-17,62,-8,-8209,-544,125,1745139200633526574
424672,-12,64,-9,-8203,-556,119,1745139200633526574
424864,-9,65,-11,-8200,-565,123,1745139200633526574
425056,-9,67,-11,-8192,-582,118,1745139200633526574
425248,-12,68,-9,-8173,-581,116,1745139200633526574
425440,-15,70,-7,-8160,-571,120,1745139200690260796
425632,-19,74,-4,-8121,-565,90,1745139200690260796
425824,-21,77,-1,-8110,-573,84,1745139200690260796
426016,-21,78,1,-8098,-576,103,1745139200690260796
426208,-19,80,2,-8098,-576,106,1745139200690260796
426400,-15,82,3,-8118,-599,85,1745139200690260796
426592,-11,85,4,-8099,-601,46,1745139200690260796
426784,-4,88,7,-8086,-611,27,1745139200690260796
426976,2,88,9,-8098,-605,19,1745139200690260796
427168,5,87,10,-8074,-611,9,1745139200690260796
427360,4,84,8,-8073,-623,3,1745139200690260796
427552,0,81,7,-8082,-628,20,1745139200690260796
427744,-3,78,7,-8109,-644,31,1745139200748142402
427936,-6,76,11,-8125,-666,-2,1745139200748142402
428128,-9,74,15,-8165,-650,-27,1745139200748142402
428320,-12,72,18,-8173,-609,-28,1745139200748142402
428512,-15,72,20,-8160,-607,-67,1745139200748142402
428704,-17,72,23,-8157,-592,-87,1745139200748142402
428896,-17,72,24,-8155,-584,-114,1745139200748142402
429088,-18,72,25,-8132,-550,-124,1745139200748142402
429280,-19,69,25,-8141,-550,-134,1745139200748142402
429472,-23,67,24,-8099,-548,-145,1745139200748142402
429664,-25,64,23,-8081,-489,-149,1745139200748142402
429856,-26,61,22,-8051,-468,-170,1745139200748142402
430048,-29,56,21,-8043,-454,-146,1745139200809912307
430240,-30,50,20,-8034,-441,-133,1745139200809912307
430432,-29,42,19,-8069,-443,-138,1745139200809912307
430624,-27,36,17,-8126,-431,-152,1745139200809912307
430816,-26,32,15,-8189,-423,-166,1745139200809912307
431008,-29,30,12,-8245,-407,-173,1745139200809912307
431200,-31,30,9,-8258,-419,-183,1745139200809912307
431392,-32,32,8,-8284,-434,-186,1745139200809912307
431584,-33,33,7,-8281,-443,-176,1745139200809912307
431776,-36,33,4,-8275,-449,-155,1745139200809912307
431968,-41,33,0,-8268,-430,-133,1745139200809912307
432160,-43,33,-4,-8259,-410,-112,1745139200809912307
432352,-41,34,-8,-8267,-373,-121,1745139200867238294
432544,-35,37,-11,-8262,-345,-126,1745139200867238294
432736,-26,41,-18,-8271,-346,-143,1745139200867238294
432928,-14,42,-21,-8228,-343,-142,1745139200867238294
433120,0,41,-24,-8212,-365,-131,1745139200867238294
433312,13,42,-25,-8199,-372,-129,1745139200867238294
433504,22,42,-29,-8187,-420,-135,1745139200867238294
433696,26,41,-32,-8182,-452,-136,1745139200867238294
433888,27,40,-34,-8198,-472,-148,1745139200867238294
434080,26,39,-35,-8209,-497,-169,1745139200867238294
434272,26,37,-35,-8238,-509,-175,1745139200867238294
434464,27,37,-37,-8243,-516,-187,1745139200867238294
434656,27,37,-38,-8248,-545,-181,1745139200926993894
434848,23,38,-37,-8228,-579,-183,1745139200926993894
435040,16,38,-35,-8209,-625,-157,1745139200926993894
435232,12,36,-33,-8203,-631,-150,1745139200926993894
435424,7,34,-33,-8211,-648,-159,1745139200926993894
435616,2,33,-33,-8199,-634,-158,1745139200926993894
435808,-4,34,-34,-8169,-628,-174,1745139200926993894
436000,-8,35,-33,-8133,-602,-194,1745139200926993894
436192,-9,33,-31,-8088,-601,-192,1745139200926993894
436384,-10,30,-32,-8079,-608,-174,1745139200926993894
436576,-13,26,-35,-8095,-634,-155,1745139200926993894
436768,-18,23,-37,-8145,-635,-161,1745139200926993894
436960,-22,22,-34,-8162,-615,-153,1745139200983989206
437152,-23,23,-31,-8169,-591,-151,1745139200983989206
437344,-23,26,-28,-8156,-565,-153,1745139200983989206
437536,-19,29,-27,-8142,-560,-147,1745139200983989206
437728,-14,30,-26,-8127,-559,-157,1745139200983989206
437920,-9,32,-26,-8104,-566,-154,1745139200983989206
438112,-3,32,-26,-8105,-573,-154,1745139200983989206
438304,1,31,-27,-8105,-606,-130,1745139200983989206
438496,3,31,-27,-8121,-614,-129,1745139200983989206
438688,4,34,-26,-8117,-610,-142,1745139200983989206
438880,3,37,-25,-8090,-597,-158,1745139200983989206
439072,4,38,-25,-8080,-610,-164,1745139200983989206
439264,11,34,-25,-8054,-621,-149,1745139201043984335
439456,18,30,-26,-8037,-644,-148,1745139201043984335
439648,22,26,-27,-8069,-629,-147,1745139201043984335
439840,20,24,-27,-8098,-638,-147,1745139201043984335
440032,17,21,-25,-8108,-622,-141,1745139201043984335
440224,16,20,-22,-8116,-622,-149,1745139201043984335
440416,14,21,-19,-8122,-613,-154,1745139201043984335
440608,9,23,-19,-8113,-649,-143,1745139201043984335
440800,2,24,-18,-8105,-666,-149,1745139201043984335
440992,-6,26,-16,-8077,-664,-136,1745139201043984335
441184,-16,27,-15,-8061,-680,-128,1745139201043984335
441376,-23,28,-13,-8065,-661,-126,1745139201043984335
441568,-25,29,-11,-8075,-649,-124,1745139201101047199
441760,-25,29,-11,-8070,-617,-139,1745139201101047199
441952,-23,28,-13,-8091,-588,-123,1745139201101047199
442144,-16,26,-14,-8104,-572,-111,1745139201101047199
442336,-8,27,-12,-8125,-564,-96,1745139201101047199
442528,0,28,-13,-8122,-576,-92,1745139201101047199
442720,5,30,-13,-8146,-614,-75,1745139201101047199
442912,6,32,-13,-8163,-646,-59,1745139201101047199
443104,5,35,-12,-8168,-667,-62,1745139201101047199
443296,0,39,-10,-8165,-652,-72,1745139201101047199
443488,-7,43,-8,-8146,-671,-98,1745139201101047199
443680,-11,45,-6,-8151,-671,-91,1745139201101047199
443872,-13,46,-5,-8157,-691,-122,1745139201160765769
444064,-16,49,-6,-8145,-677,-156,1745139201160765769
444256,-19,52,-6,-8132,-654,-166,1745139201160765769
444448,-18,51,-6,-8129,-643,-178,1745139201160765769
444640,-17,47,-6,-8123,-612,-177,1745139201160765769
444832,-14,46,-5,-8126,-582,-164,1745139201160765769
445024,-11,45,-5,-8116,-571,-150,1745139201160765769
445216,-8,44,-5,-8109,-556,-153,1745139201160765769
445408,-10,44,-6,-8082,-542,-166,1745139201160765769
445600,-12,43,-6,-8033,-557,-167,1745139201160765769
445792,-9,41,-3,-8005,-594,-162,1745139201160765769
445984,-4,38,-1,-8004,-629,-182,1745139201160765769
446176,-1,37,0,-7997,-647,-189,1745139201218912789
446368,-1,36,1,-8010,-671,-187,1745139201218912789
446560,0,34,4,-8040,-668,-143,1745139201218912789
446752,2,34,7,-8066,-672,-105,1745139201218912789
446944,3,37,7,-8105,-681,-120,1745139201218912789
447136,3,41,7,-8114,-699,-115,1745139201218912789
447328,1,44,8,-8116,-700,-122,1745139201218912789
447520,-2,46,9,-8114,-696,-129,1745139201218912789
447712,-6,48,10,-8113,-696,-144,1745139201218912789
447904,-11,50,11,-8122,-708,-152,1745139201218912789
448096,-14,51,14,-8159,-700,-148,1745139201218912789
448288,-15,52,16,-8183,-691,-139,1745139201218912789
448480,-16,55,18,-8230,-688,-129,1745139201277926052
448672,-14,58,20,-8272,-701,-155,1745139201277926052
448864,-11,60,21,-8334,-713,-167,1745139201277926052
449056,-9,64,21,-8373,-716,-166,1745139201277926052
449248,-10,70,22,-8373,-686,-172,1745139201277926052
449440,-13,78,23,-8345,-656,-195,1745139201277926052
449632,-14,84,25,-8279,-601,-209,1745139201277926052
449824,-13,89,25,-8247,-557,-230,1745139201277926052
450016,-13,92,23,-8223,-522,-268,1745139201277926052
450208,-14,94,20,-8180,-495,-287,1745139201277926052
450400,-14,96,19,-8163,-492,-281,1745139201277926052
450592,-12,96,18,-8134,-456,-303,1745139201277926052
450784,-7,94,18,-8143,-438,-307,1745139201334474859
450976,-2,90,15,-8145,-442,-335,1745139201334474859
451168,1,87,10,-8195,-467,-358,1745139201334474859
451360,3,83,5,-8218,-470,-379,1745139201334474859
451552,6,78,2,-8255,-482,-395,1745139201334474859
451744,4,75,0,-8305,-480,-408,1745139201334474859
451936,0,74,-2,-8296,-464,-398,1745139201334474859
452128,-6,74,-2,-8278,-449,-387,1745139201334474859
452320,-10,73,-4,-8261,-441,-404,1745139201334474859
452512,-8,69,-6,-8228,-422,-408,1745139201334474859
452704,-5,67,-9,-8182,-426,-399,1745139201334474859
452896,-1,65,-11,-8157,-427,-386,1745139201334474859
453088,5,62,-13,-8120,-437,-390,1745139201394806860
453280,12,59,-16,-8091,-446,-380,1745139201394806860
453472,20,55,-17,-8074,-446,-375,1745139201394806860
453664,28,51,-18,-8086,-467,-365,1745139201394806860
453856,34,46,-19,-8097,-464,-351,1745139201394806860
454048,40,42,-23,-8139,-485,-330,1745139201394806860
454240,40,40,-27,-8170,-522,-325,1745139201394806860
454432,38,39,-30,-8174,-547,-304,1745139201394806860
454624,30,38,-31,-8200,-555,-274,1745139201394806860
454816,19,39,-32,-8201,-542,-283,1745139201394806860
455008,7,41,-33,-8194,-522,-273,1745139201394806860
455200,-3,43,-32,-8159,-477,-285,1745139201394806860
455392,-9,46,-33,-8120,-446,-290,1745139201451720402
455584,-11,48,-35,-8066,-435,-280,1745139201451720402
455776,-7,50,-36,-8040,-462,-259,1745139201451720402
455968,-2,49,-39,-8031,-500,-229,1745139201451720402
456160,1,51,-43,-8050,-528,-220,1745139201451720402
456352,0,53,-46,-8056,-586,-228,1745139201451720402
456544,0,56,-47,-8067,-609,-235,1745139201451720402
456736,3,58,-46,-8056,-588,-228,1745139201451720402
456928,6,61,-46,-8061,-562,-204,1745139201451720402
457120,11,63,-48,-8064,-561,-204,1745139201451720402
457312,18,64,-49,-8067,-546,-240,1745139201451720402
457504,27,65,-52,-8055,-563,-258,1745139201451720402
457696,33,67,-52,-8042,-576,-266,1745139201511657563
457888,40,67,-51,-8039,-632,-272,1745139201511657563
458080,48,66,-48,-8054,-662,-276,1745139201511657563
458272,53,67,-46,-8058,-666,-301,1745139201511657563
458464,54,69,-43,-8063,-698,-334,1745139201511657563
458656,52,72,-41,-8034,-748,-331,1745139201511657563
458848,50,71,-37,-8007,-812,-313,1745139201511657563
459040,48,70,-32,-7990,-854,-294,1745139201511657563
459232,41,71,-27,-8007,-861,-288,1745139201511657563
459424,29,72,-23,-7993,-905,-294,1745139201511657563
459616,19,73,-19,-8035,-932,-314,1745139201511657563
459808,13,74,-14,-8044,-947,-323,1745139201511657563
460000,7,76,-7,-8068,-967,-322,1745139201568648397
460192,1,78,1,-8077,-966,-322,1745139201568648397
460384,-1,81,8,-8085,-940,-326,1745139201568648397
460576,-2,84,14,-8118,-918,-306,1745139201568648397
460768,-4,89,18,-8149,-914,-315,1745139201568648397
460960,-8,95,22,-8179,-908,-311,1745139201568648397
461152,-12,101,26,-8198,-906,-336,1745139201568648397
461344,-16,108,33,-8194,-903,-354,1745139201568648397
461536,-16,114,39,-8185,-881,-355,1745139201568648397
461728,-13,119,44,-8177,-853,-383,1745139201568648397
461920,-13,122,46,-8186,-820,-412,1745139201568648397
462112,-9,123,46,-8193,-776,-443,1745139201568648397
462304,-1,124,48,-8223,-736,-470,1745139201628426392
462496,5,125,50,-8251,-700,-499,1745139201628426392
462688,11,127,52,-8248,-656,-546,1745139201628426392
462880,18,129,53,-8215,-630,-569,1745139201628426392
463072,21,130,52,-8214,-601,-605,1745139201628426392
463264,22,130,51,-8188,-586,-636,1745139201628426392
463456,21,127,48,-8176,-577,-658,1745139201628426392
463648,18,123,45,-8146,-553,-695,1745139201628426392
463840,12,118,42,-8114,-522,-710,1745139201628426392
464032,6,113,41,-8086,-438,-690,1745139201628426392
464224,5,107,40,-8044,-392,-686,1745139201628426392
464416,5,100,37,-8033,-354,-681,1745139201628426392
464608,7,91,33,-8017,-329,-663,1745139201687140491
464800,10,84,28,-8006,-300,-626,1745139201687140491
464992,13,76,23,-8026,-309,-594,1745139201687140491
465184,16,70,18,-8024,-306,-554,1745139201687140491
465376,19,66,13,-8052,-327,-517,1745139201687140491
465568,18,62,9,-8059,-309,-487,1745139201687140491
465760,12,63,3,-8082,-319,-478,1745139201687140491
465952,6,63,-3,-8063,-316,-443,1745139201687140491
466144,2,63,-7,-8066,-306,-383,1745139201687140491
466336,0,63,-12,-8073,-310,-307,1745139201687140491
466528,-2,62,-19,-8069,-307,-239,1745139201687140491
466720,-4,64,-26,-8102,-295,-199,1745139201687140491
466912,-3,70,-35,-8119,-280,-159,1745139201743731381
467104,-4,78,-43,-8077,-276,-138,1745139201743731381
467296,-3,86,-49,-8027,-268,-109,1745139201743731381
467488,-2,92,-57,-7986,-273,-64,1745139201743731381
467680,-2,96,-64,-7957,-280,-11,1745139201743731381
467872,-3,98,-71,-7975,-288,76,1745139201743731381
468064,-6,101,-79,-8011,-296,151,1745139201743731381
468256,-9,105,-85,-8038,-272,262,1745139201743731381
468448,-15,113,-90,-8057,-241,365,1745139201743731381
468640,-23,122,-95,-8053,-183,518,1745139201743731381
468832,-34,132,-100,-8019,-144,671,1745139201743731381
469024,-50,139,-105,-7991,-115,833,1745139201743731381
469216,-76,144,-111,-7931,-103,1025,1745139201803984789
469408,-112,148,-117,-7902,-88,1202,1745139201803984789
469600,-156,152,-123,-7867,-92,1338,1745139201803984789
469792,-204,158,-130,-7829,-86,1434,1745139201803984789
469984,-254,165,-136,-7772,-66,1537,1745139201803984789
470176,-299,173,-143,-7688,-28,1671,1745139201803984789
470368,-341,183,-151,-7628,41,1832,1745139201803984789
470560,-383,195,-163,-7594,134,1989,1745139201803984789
470752,-426,211,-179,-7597,216,2097,1745139201803984789
470944,-471,232,-198,-7607,331,2197,1745139201803984789
471136,-512,260,-217,-7591,419,2307,1745139201803984789
471328,-548,291,-237,-7541,498,2388,1745139201803984789
471520,-581,324,-254,-7436,588,2417,1745139201864233249
471712,-611,358,-273,-7316,651,2412,1745139201864233249
471904,-638,390,-292,-7192,658,2359,1745139201864233249
472096,-663,418,-311,-7048,667,2299,1745139201864233249
472288,-685,442,-328,-6919,673,2210,1745139201864233249
472480,-709,461,-343,-6780,683,2126,1745139201864233249
472672,-735,477,-357,-6640,666,2051,1745139201864233249
472864,-762,490,-372,-6521,612,2044,1745139201864233249
473056,-794,499,-385,-6391,549,2089,1745139201864233249
473248,-832,506,-397,-6251,482,2157,1745139201864233249
473440,-883,513,-410,-6157,435,2284,1745139201864233249
473632,-946,525,-426,-6062,401,2414,1745139201864233249
473824,-1016,545,-438,-5973,396,2594,1745139201923060263
474016,-1091,576,-451,-5885,416,2792,1745139201923060263
474208,-1173,613,-467,-5818,441,2901,1745139201923060263
474400,-1258,657,-488,-5788,543,3018,1745139201923060263
474592,-1341,712,-510,-5774,669,3100,1745139201923060263
474784,-1416,784,-529,-5744,786,3118,1745139201923060263
474976,-1477,874,-542,-5664,934,3079,1745139201923060263
475168,-1521,977,-554,-5541,1037,2946,1745139201923060263
475360,-1544,1085,-565,-5375,1124,2752,1745139201923060263
475552,-1548,1189,-579,-5184,1136,2541,1745139201923060263
475744,-1534,1284,-600,-5051,1109,2335,1745139201923060263
475936,-1508,1374,-622,-4947,1034,2178,1745139201923060263
476128,-1476,1460,-646,-4910,949,2028,1745139201977981220
476320,-1444,1543,-670,-4928,860,1914,1745139201977981220
476512,-1415,1627,-694,-4962,788,1840,1745139201977981220
476704,-1389,1712,-721,-5005,751,1807,1745139201977981220
476896,-1365,1805,-751,-5012,751,1818,1745139201977981220
477088,-1346,1909,-777,-4958,808,1829,1745139201977981220
477280,-1331,2022,-795,-4799,919,1790,1745139201977981220
477472,-1318,2139,-809,-4589,1055,1741,1745139201977981220
477664,-1309,2255,-820,-4315,1215,1683,1745139201977981220
477856,-1302,2369,-829,-3987,1333,1656,1745139201977981220
478048,-1293,2483,-836,-3702,1414,1578,1745139201977981220
478240,-1281,2599,-842,-3431,1475,1428,1745139201977981220
478432,-1267,2715,-846,-3198,1539,1200,1745139202037876871
478624,-1250,2829,-850,-2988,1580,863,1745139202037876871
478816,-1222,2938,-855,-2823,1585,490,1745139202037876871
479008,-1186,3039,-859,-2686,1529,140,1745139202037876871
479200,-1141,3132,-865,-2595,1463,-161,1745139202037876871
479392,-1091,3213,-873,-2511,1391,-309,1745139202037876871
479584,-1049,3285,-880,-2442,1253,-433,1745139202037876871
479776,-1018,3354,-890,-2422,1121,-702,1745139202037876871
479968,-997,3422,-908,-2434,1002,-954,1745139202037876871
480160,-988,3488,-932,-2453,903,-1153,1745139202037876871
480352,-989,3552,-951,-2466,856,-1301,1745139202037876871
480544,-998,3622,-965,-2432,896,-1486,1745139202037876871
480736,-1008,3703,-979,-2398,984,-1679,1745139202100992284
480928,-1015,3791,-996,-2272,1052,-1842,1745139202100992284
481120,-1019,3870,-1012,-2106,1116,-1957,1745139202100992284
481312,-1018,3950,-1022,-1985,1203,-2183,1745139202100992284
481504,-1012,4029,-1027,-1807,1301,-2589,1745139202100992284
481696,-997,4109,-1037,-1616,1382,-3111,1745139202100992284
481888,-965,4179,-1053,-1425,1353,-3594,1745139202100992284
482080,-914,4231,-1065,-1181,1236,-3954,1745139202100992284
482272,-857,4265,-1067,-970,1057,-4416,1745139202100992284
482464,-813,4290,-1063,-772,936,-5189,1745139202100992284
482656,-771,4304,-1067,-604,919,-5930,1745139202100992284
482848,-720,4292,-1078,-459,866,-6422,1745139202100992284
483040,-656,4262,-1086,-324,764,-6909,1745139202161293139
483424,-518,4193,-1080,-35,467,-7836,1745139202161293139
483616,-466,4154,-1076,120,344,-8384,1745139202161293139
483808,-408,4101,-1075,251,164,-8728,1745139202161293139
484000,-339,4037,-1069,375,-108,-8900,1745139202161293139
484192,-281,3960,-1058,590,-574,-9030,1745139202161293139
484384,-270,3876,-1057,795,-1105,-9318,1745139202161293139
484576,-316,3791,-1067,913,-1513,-9716,1745139202161293139
484768,-385,3648,-1084,1175,-1748,-10462,1745139202161293139
484960,-469,3575,-1103,1383,-1962,-10738,1745139202161293139
485152,-566,3485,-1127,1618,-2158,-11237,1745139202161293139
485344,-665,3379,-1133,1693,-2162,-11875,1745139202161293139
485536,-758,3282,-1108,1828,-2111,-12588,1745139202224325167
485728,-822,3172,-1072,1980,-2024,-13208,1745139202224325167
485920,-843,3034,-1026,2057,-1924,-13439,1745139202224325167
486112,-825,2858,-947,2164,-1949,-13729,1745139202224325167
486304,-822,2704,-875,2365,-2081,-14133,1745139202224325167
486496,-846,2533,-834,3117,-2391,-14423,1745139202224325167
486688,-895,2362,-914,3087,-2508,-14650,1745139202224325167
486880,-947,2244,-972,2227,-2421,-14480,1745139202224325167
487072,-975,2174,-925,1265,-2355,-14353,1745139202224325167
487264,-972,2113,-823,564,-2127,-14365,1745139202224325167
487456,-954,2089,-688,111,-1944,-14465,1745139202224325167
487648,-924,2061,-577,402,-1891,-14552,1745139202224325167
487840,-903,2010,-547,1044,-1985,-14618,1745139202279586017
488032,-902,1959,-553,1537,-1991,-14604,1745139202279586017
488224,-904,1888,-538,2063,-2018,-14685,1745139202279586017
488416,-890,1781,-514,2445,-2069,-14795,1745139202279586017
488608,-853,1644,-490,2680,-2145,-14846,1745139202279586017
488800,-801,1490,-467,2754,-2260,-14855,1745139202279586017
488992,-753,1338,-444,2658,-2394,-14833,1745139202279586017
489184,-723,1200,-422,2422,-2522,-14683,1745139202279586017
489376,-713,1084,-401,2088,-2569,-14436,1745139202279586017
489568,-719,983,-375,1827,-2622,-14089,1745139202279586017
489760,-744,889,-347,1583,-2670,-13722,1745139202279586017
489952,-784,812,-313,1416,-2677,-13335,1745139202279586017
490144,-837,750,-276,1273,-2657,-13028,1745139202340008173
490336,-891,701,-241,1129,-2612,-12771,1745139202340008173
490528,-940,655,-203,1030,-2540,-12545,1745139202340008173
490720,-974,614,-166,978,-2457,-12397,1745139202340008173
490912,-998,579,-136,955,-2351,-12274,1745139202340008173
491104,-1009,547,-117,959,-2261,-12270,1745139202340008173
491296,-1001,516,-102,1003,-2160,-12265,1745139202340008173
491488,-967,484,-86,1074,-2041,-12235,1745139202340008173
491680,-912,453,-68,1121,-1904,-12171,1745139202340008173
491872,-842,427,-52,1141,-1714,-12097,1745139202340008173
492064,-759,404,-36,1158,-1561,-11949,1745139202340008173
492256,-659,382,-17,1147,-1397,-11782,1745139202340008173
492448,-552,364,9,1100,-1296,-11595,1745139202396948226
492640,-445,343,35,1118,-1255,-11390,1745139202396948226
492832,-349,324,62,1084,-1253,-11157,1745139202396948226
493024,-268,310,92,1010,-1362,-10831,1745139202396948226
493216,-210,296,113,1003,-1565,-10675,1745139202396948226
493408,-184,274,120,970,-1732,-10421,1745139202396948226
493600,-185,260,127,891,-1870,-10173,1745139202396948226
493792,-207,250,134,817,-1918,-9962,1745139202396948226
493984,-247,244,137,764,-1867,-9722,1745139202396948226
494176,-296,241,139,676,-1708,-9523,1745139202396948226
494368,-337,245,138,614,-1462,-9408,1745139202396948226
494560,-361,259,138,550,-1179,-9344,1745139202396948226
494752,-367,278,139,541,-930,-9344,1745139202456850595
494944,-356,297,140,580,-741,-9347,1745139202456850595
495136,-331,316,144,659,-641,-9391,1745139202456850595
495328,-294,332,151,717,-564,-9451,1745139202456850595
495520,-249,354,156,776,-560,-9480,1745139202456850595
495712,-201,363,155,971,-549,-9432,1745139202456850595
495904,-151,348,147,1336,-479,-9367,1745139202456850595
496096,-101,319,148,1486,-417,-9209,1745139202456850595
496288,-53,287,136,1389,-315,-9070,1745139202456850595
496480,-5,294,130,985,-250,-8922,1745139202456850595
496672,40,304,128,754,-296,-8758,1745139202456850595
496864,69,303,120,737,-365,-8633,1745139202456850595
497056,77,305,124,717,-411,-8476,1745139202515607507
497248,73,324,141,619,-400,-8333,1745139202515607507
497440,60,337,154,645,-369,-8152,1745139202515607507
497632,41,337,154,659,-334,-8128,1745139202515607507
497824,40,328,147,678,-84,-8142,1745139202515607507
498016,56,316,144,831,232,-8186,1745139202515607507
498208,80,295,142,900,409,-8177,1745139202515607507
498400,106,265,135,976,368,-8169,1745139202515607507
498592,128,227,115,977,333,-8189,1745139202515607507
498784,145,190,97,924,365,-8204,1745139202515607507
498976,160,157,85,866,449,-8201,1745139202515607507
499168,165,124,71,769,459,-8216,1745139202515607507
499360,129,87,45,716,310,-8502,1745139202572556257
499552,29,64,7,660,69,-8851,1745139202572556257
499744,-79,53,-18,581,-34,-9022,1745139202572556257
499936,-143,36,-5,524,124,-8972,1745139202572556257
500128,-169,7,19,534,442,-8889,1745139202572556257
500320,-171,-32,19,572,743,-9015,1745139202572556257
500512,-166,-72,-1,575,864,-9097,1745139202572556257
500704,-153,-110,-16,512,853,-8996,1745139202572556257
500896,-123,-140,-10,402,754,-8829,1745139202572556257
501088,-83,-156,5,290,694,-8656,1745139202572556257
501280,-54,-159,17,183,651,-8498,1745139202572556257
501472,-45,-155,20,47,597,-8337,1745139202572556257
501664,-42,-144,19,-104,543,-8177,1745139202632347899
501856,-38,-125,13,-200,475,-8010,1745139202632347899
502048,-37,-104,0,-264,434,-7845,1745139202632347899
502240,-37,-89,-14,-299,420,-7666,1745139202632347899
502432,-39,-79,-23,-250,349,-7587,1745139202632347899
502624,-39,-71,-29,-188,233,-7551,1745139202632347899
502816,-43,-61,-29,-158,157,-7485,1745139202632347899
503008,-51,-57,-18,-95,45,-7438,1745139202632347899
503200,-53,-65,-2,7,-68,-7463,1745139202632347899
503392,-57,-70,11,102,-197,-7531,1745139202632347899
503584,-65,-73,19,206,-291,-7597,1745139202632347899
503776,-75,-79,20,282,-335,-7687,1745139202632347899
503968,-86,-86,18,334,-315,-7792,1745139202689334826
504160,-92,-92,19,354,-236,-7855,1745139202689334826
504352,-93,-106,25,408,-163,-8058,1745139202689334826
504544,-91,-113,30,460,-61,-8229,1745139202689334826
504736,-82,-114,33,513,50,-8401,1745139202689334826
504928,-65,-109,38,585,150,-8548,1745139202689334826
505120,-40,-107,48,689,221,-8718,1745139202689334826
505312,-18,-106,61,810,263,-8865,1745139202689334826
505504,-1,-110,74,940,282,-8954,1745139202689334826
505696,10,-120,82,1022,238,-9017,1745139202689334826
505888,15,-127,84,1060,219,-9056,1745139202689334826
506080,13,-133,86,1051,205,-9075,1745139202689334826
506272,9,-138,89,1009,166,-9024,1745139202747651897
506464,5,-142,93,961,126,-8952,1745139202747651897
506656,0,-144,97,897,37,-8874,1745139202747651897
506848,-7,-142,100,814,-63,-8739,1745139202747651897
507040,-16,-143,103,735,-158,-8612,1745139202747651897
507232,-27,-144,101,682,-257,-8508,1745139202747651897
507424,-39,-141,97,619,-304,-8410,1745139202747651897
507616,-52,-137,92,568,-270,-8281,1745139202747651897
507808,-63,-130,88,524,-248,-8200,1745139202747651897
508000,-68,-125,85,516,-241,-8150,1745139202747651897
508192,-68,-119,82,520,-202,-8115,1745139202747651897
508384,-67,-114,82,536,-138,-8093,1745139202747651897
508576,-72,-111,83,518,-48,-8110,1745139202807566506
508768,-77,-109,77,491,65,-8112,1745139202807566506
508960,-73,-107,74,454,164,-8114,1745139202807566506
509152,-62,-104,72,424,241,-8157,1745139202807566506
509344,-46,-105,73,394,266,-8184,1745139202807566506
509536,-27,-109,73,368,279,-8201,1745139202807566506
509728,-7,-111,74,331,233,-8216,1745139202807566506
509920,11,-112,74,292,185,-8260,1745139202807566506
510112,20,-112,73,228,145,-8294,1745139202807566506
510304,20,-110,72,227,73,-8309,1745139202807566506
510496,16,-110,71,226,0,-8342,1745139202807566506
510688,7,-108,73,225,-50,-8328,1745139202807566506
510880,0,-106,78,240,-78,-8296,1745139202864781296
511072,-6,-101,81,259,-36,-8326,1745139202864781296
511264,-16,-89,80,283,-27,-8343,1745139202864781296
511456,-27,-78,78,230,-26,-8193,1745139202864781296
511648,-29,-85,77,279,-46,-8240,1745139202864781296
511840,-29,-86,75,300,-68,-8204,1745139202864781296
512032,-34,-91,72,334,-71,-8216,1745139202864781296
512224,-40,-89,69,363,-62,-8205,1745139202864781296
512416,-44,-87,66,381,-31,-8206,1745139202864781296
512608,-45,-85,63,382,17,-8194,1745139202864781296
512800,-40,-84,61,362,25,-8170,1745139202864781296
512992,-29,-83,58,365,44,-8133,1745139202864781296
513184,-18,-84,54,354,73,-8098,1745139202924467522
513376,-12,-84,50,335,68,-8095,1745139202924467522
513568,-10,-83,43,312,37,-8112,1745139202924467522
513760,-12,-82,36,281,12,-8133,1745139202924467522
513952,-18,-82,30,268,-19,-8160,1745139202924467522
514144,-24,-80,26,271,-35,-8191,1745139202924467522
514336,-29,-77,25,275,-10,-8197,1745139202924467522
514528,-32,-73,26,273,33,-8195,1745139202924467522
514720,-30,-72,26,287,69,-8230,1745139202924467522
514912,-28,-70,28,291,83,-8233,1745139202924467522
515104,-27,-70,31,295,126,-8209,1745139202924467522
515296,-25,-67,32,298,154,-8197,1745139202924467522
515488,-21,-64,29,292,158,-8164,1745139202983363234
515680,-14,-62,24,291,144,-8155,1745139202983363234
515872,-7,-61,17,287,130,-8156,1745139202983363234
516064,-1,-60,12,281,85,-8143,1745139202983363234
516256,3,-60,6,250,27,-8125,1745139202983363234
516448,3,-60,1,238,-39,-8130,1745139202983363234
516640,0,-60,-3,233,-84,-8137,1745139202983363234
516832,-4,-57,-8,223,-101,-8150,1745139202983363234
517024,-11,-54,-10,217,-98,-8150,1745139202983363234
517216,-16,-53,-9,209,-63,-8139,1745139202983363234
517408,-21,-53,-8,196,-28,-8108,1745139202983363234
517600,-26,-53,-6,183,42,-8112,1745139202983363234
517792,-27,-53,-6,162,108,-8100,1745139203038489761
517984,-25,-52,-6,155,169,-8097,1745139203038489761
518176,-19,-50,-6,158,207,-8108,1745139203038489761
518368,-17,-48,-6,153,206,-8120,1745139203038489761
518560,-15,-48,-7,165,180,-8117,1745139203038489761
518752,-15,-49,-7,180,132,-8104,1745139203038489761
518944,-15,-49,-7,182,71,-8121,1745139203038489761
519136,-15,-50,-8,164,57,-8113,1745139203038489761
519328,-15,-50,-9,154,52,-8111,1745139203038489761
519520,-18,-49,-11,137,23,-8111,1745139203038489761
519712,-21,-46,-14,137,20,-8122,1745139203038489761
519904,-20,-43,-15,129,30,-8105,1745139203038489761
520096,-18,-41,-16,167,31,-8100,1745139203099622067
520288,-18,-41,-16,182,18,-8118,1745139203099622067
520480,-19,-42,-17,195,16,-8113,1745139203099622067
520672,-21,-42,-17,172,15,-8107,1745139203099622067
520864,-23,-41,-17,148,55,-8122,1745139203099622067
521056,-24,-39,-18,140,74,-8125,1745139203099622067
521248,-24,-37,-19,139,92,-8100,1745139203099622067
521440,-23,-37,-21,156,115,-8101,1745139203099622067
521632,-22,-36,-23,143,116,-8101,1745139203099622067
521824,-21,-35,-24,147,109,-8111,1745139203099622067
522016,-23,-35,-29,138,90,-8099,1745139203099622067
522208,-24,-35,-33,142,76,-8095,1745139203099622067
522400,-24,-34,-35,125,57,-8115,1745139203155125935
522592,-23,-32,-34,132,47,-8127,1745139203155125935
522784,-24,-30,-34,138,36,-8154,1745139203155125935
522976,-25,-29,-35,139,9,-8155,1745139203155125935
523168,-28,-28,-36,162,-2,-8167,1745139203155125935
523360,-32,-27,-38,160,35,-8149,1745139203155125935
523552,-34,-26,-40,151,76,-8153,1745139203155125935
523744,-34,-26,-42,137,113,-8143,1745139203155125935
523936,-30,-25,-46,115,143,-8119,1745139203155125935
524128,-25,-24,-50,120,157,-8094,1745139203155125935
524320,-16,-24,-50,97,141,-8078,1745139203155125935
524512,-6,-22,-46,89,113,-8083,1745139203155125935
524704,2,-20,-44,79,101,-8120,1745139203216527822
524896,6,-15,-46,88,83,-8163,1745139203216527822
525088,9,-9,-49,102,66,-8198,1745139203216527822
525280,6,-9,-49,187,-22,-8167,1745139203216527822
525472,-14,-18,-52,306,-241,-8167,1745139203216527822
525664,-55,-74,-56,251,-577,-8072,1745139203216527822
525856,-134,-90,-67,603,-986,-8476,1745139203216527822
526048,-231,-61,-87,231,-631,-8337,1745139203216527822
526240,-344,-60,-79,91,-168,-8177,1745139203216527822
526432,-335,-60,-84,99,16,-8136,1745139203216527822
526624,-336,-66,-97,52,234,-8187,1745139203216527822
526816,-336,-65,-94,38,362,-7998,1745139203216527822
527008,-300,-55,-84,-31,489,-8082,1745139203275451607
527200,-279,-42,-75,-114,579,-8066,1745139203275451607
527392,-257,-25,-69,-156,571,-8034,1745139203275451607
527584,-215,-8,-67,-136,573,-8034,1745139203275451607
527776,-174,8,-65,-106,691,-7980,1745139203275451607
527968,-127,18,-53,25,854,-7966,1745139203275451607
528160,-78,14,-39,260,797,-7982,1745139203275451607
528352,-41,-1,-30,255,586,-7995,1745139203275451607
528544,-18,-2,-23,5,385,-7969,1745139203275451607
528736,3,13,-18,-232,419,-7966,1745139203275451607
528928,24,22,-6,-340,499,-7866,1745139203275451607
529120,49,3,24,-276,440,-7747,1745139203275451607
529312,100,-17,49,107,217,-7994,1745139203333934302
529504,131,34,13,102,282,-7946,1745139203333934302
529696,156,59,-6,29,97,-7812,1745139203333934302
529888,171,50,-2,48,127,-7858,1745139203333934302
530080,161,32,20,206,210,-7875,1745139203333934302
530272,168,12,35,327,216,-8063,1745139203333934302
530464,183,1,34,366,156,-7876,1745139203333934302
530656,177,4,11,398,486,-8726,1745139203333934302
530848,59,12,-7,229,265,-8172,1745139203333934302
531040,54,11,-14,112,97,-8274,1745139203333934302
531232,43,16,-15,52,16,-8328,1745139203333934302
531424,30,25,-7,49,15,-8343,1745139203333934302
643552,-94,46,5,-80,467,-8209,1745139206234478378
643744,-434,126,4,-110,-363,-8230,1745139206234478378
643936,-29,37,-19,119,23,-8342,1745139206234478378
644128,-75,17,-13,190,-61,-8397,1745139206234478378
644320,-109,24,-4,256,101,-8367,1745139206234478378
644512,-99,2,1,287,455,-8251,1745139206234478378
644704,-111,-14,6,300,676,-8210,1745139206234478378
644896,-74,-14,5,193,577,-8191,1745139206234478378
645088,-69,-22,2,58,407,-8177,1745139206234478378
645280,-77,-10,2,-18,399,-8185,1745139206234478378
645472,-58,1,4,-43,460,-8264,1745139206234478378
645664,-58,8,7,-64,565,-8412,1745139206234478378
645856,-38,32,8,-56,682,-8591,1745139206292123633
646048,-7,49,5,-12,741,-8790,1745139206292123633
646240,21,66,4,-69,746,-8928,1745139206292123633
646432,56,100,8,-143,714,-8946,1745139206292123633
646624,79,121,17,-30,687,-8830,1745139206292123633
646816,103,127,33,186,564,-8202,1745139206292123633
647008,103,75,43,199,1085,-9017,1745139206292123633
647200,229,114,65,547,880,-7687,1745139206292123633
647392,205,93,62,440,78,-8246,1745139206292123633
647584,142,91,23,1147,-592,-9419,1745139206292123633
647776,-295,189,-122,1824,-2402,-7439,1745139206292123633
647968,-257,65,-106,-191,-1000,-5660,1745139206292123633
648160,-154,-102,-8,-734,-36,-7154,1745139206350673827
648352,-129,-44,-3,-1024,722,-7706,1745139206350673827
648544,-103,15,-24,-1020,904,-7497,1745139206350673827
648736,-52,38,-66,-524,826,-7987,1745139206350673827
648928,-12,80,-79,-65,635,-8116,1745139206350673827
649120,9,86,-61,268,562,-8239,1745139206350673827
649312,18,69,-36,340,596,-8264,1745139206350673827
649504,23,51,-31,196,597,-8195,1745139206350673827
649696,32,44,-35,26,474,-8149,1745139206350673827
649888,38,47,-42,-56,244,-8106,1745139206350673827
650080,35,50,-45,-40,48,-8088,1745139206350673827
650272,22,54,-42,24,-36,-8085,1745139206350673827
650464,5,56,-39,114,19,-8079,1745139206409454540
650656,-12,53,-44,182,127,-8068,1745139206409454540
650848,-22,49,-56,217,246,-8083,1745139206409454540
651040,-26,43,-64,234,325,-8085,1745139206409454540
651232,-24,37,-68,217,346,-8103,1745139206409454540
651424,-21,34,-68,178,343,-8121,1745139206409454540
651616,-20,32,-64,119,333,-8149,1745139206409454540
651808,-17,31,-62,88,354,-8158,1745139206409454540
652000,-16,34,-62,63,355,-8141,1745139206409454540
652192,-14,38,-61,71,358,-8113,1745139206409454540
652384,-13,40,-61,87,353,-8102,1745139206409454540
652576,-13,43,-60,128,356,-8107,1745139206409454540
652768,-14,44,-59,162,356,-8097,1745139206467676925
652960,-11,43,-58,183,359,-8063,1745139206467676925
653152,-8,41,-59,164,371,-8053,1745139206467676925
653344,-4,38,-63,137,366,-8053,1745139206467676925
653536,-3,36,-68,100,328,-8064,1745139206467676925
653728,-2,35,-73,49,317,-8090,1745139206467676925
653920,-3,39,-78,-5,294,-8129,1745139206467676925
654112,-6,45,-82,-24,320,-8164,1745139206467676925
654304,-10,53,-87,-32,327,-8199,1745139206467676925
654496,-13,62,-89,-15,365,-8245,1745139206467676925
654688,-15,73,-90,2,370,-8273,1745139206467676925
654880,-12,83,-91,41,371,-8280,1745139206467676925
655072,-6,95,-91,63,359,-8320,1745139206526491128
655264,1,107,-94,103,346,-8374,1745139206526491128
655456,10,119,-100,133,284,-8407,1745139206526491128
655648,15,131,-106,136,213,-8439,1745139206526491128
655840,21,146,-114,123,174,-8488,1745139206526491128
656032,22,163,-123,112,154,-8521,1745139206526491128
656224,18,182,-132,99,147,-8547,1745139206526491128
656416,11,200,-143,62,151,-8595,1745139206526491128
656608,0,224,-158,53,160,-8648,1745139206526491128
656800,-12,249,-176,38,137,-8701,1745139206526491128
656992,-21,277,-195,30,115,-8764,1745139206526491128
657184,-24,306,-213,55,44,-8826,1745139206526491128
657376,-10,336,-227,88,-75,-8890,1745139206584771272
657568,13,368,-241,101,-194,-9134,1745139206584771272
657760,27,403,-266,128,-283,-9367,1745139206584771272
657952,33,438,-298,151,-352,-9564,1745139206584771272
658144,40,473,-328,199,-373,-9801,1745139206584771272
658336,55,512,-352,271,-384,-9997,1745139206584771272
658528,75,551,-371,396,-478,-10245,1745139206584771272
658720,102,583,-388,524,-639,-10492,1745139206584771272
658912,139,611,-400,644,-840,-10786,1745139206584771272
659104,189,637,-411,765,-1049,-11131,1745139206584771272
659296,232,659,-423,836,-1237,-11490,1745139206584771272
659488,258,669,-437,942,-1456,-11802,1745139206584771272
659680,274,670,-452,1019,-1750,-11992,1745139206643468132
659872,290,662,-463,1159,-2150,-12156,1745139206643468132
660064,330,641,-444,1336,-2747,-12511,1745139206643468132
660256,376,608,-398,1352,-3518,-12575,1745139206643468132
660448,363,591,-342,1285,-4065,-12740,1745139206643468132
660640,266,598,-305,1142,-4283,-12497,1745139206643468132
660832,117,627,-297,1045,-4207,-11422,1745139206643468132
661024,-23,681,-303,1003,-3885,-11174,1745139206643468132
661216,-169,733,-332,1173,-3599,-10997,1745139206643468132
661408,-330,782,-364,1430,-3215,-11040,1745139206643468132
661600,-481,806,-390,1758,-2854,-11356,1745139206643468132
661792,-584,798,-401,2427,-2564,-12433,1745139206643468132
661984,-632,726,-384,3399,-2323,-13784,1745139206701606611
662176,-610,593,-324,4540,-1769,-15291,1745139206701606611
662368,-499,424,-234,5474,-916,-16678,1745139206701606611
662560,-306,235,-136,6029,-117,-17825,1745139206701606611
662752,-8,21,-60,6080,480,-18709,1745139206701606611
662944,399,-195,-3,5811,901,-19496,1745139206701606611
663136,882,-387,54,5593,1013,-20083,1745139206701606611
663328,1386,-558,144,5520,731,-20438,1745139206701606611
663520,1862,-718,285,5626,141,-20671,1745139206701606611
663712,2273,-861,443,5704,-416,-20657,1745139206701606611
663904,2593,-996,589,5679,-812,-20427,1745139206701606611
664096,2812,-1134,713,5710,-1069,-20085,1745139206701606611
664288,2932,-1278,823,5743,-1260,-19628,1745139206761242837
664480,2966,-1430,935,5797,-1453,-19040,1745139206761242837
664672,2932,-1592,1058,5892,-1690,-18474,1745139206761242837
664864,2842,-1768,1189,6023,-1999,-18039,1745139206761242837
665056,2715,-1958,1324,6170,-2303,-17740,1745139206761242837
665248,2563,-2158,1455,6287,-2611,-17425,1745139206761242837
665440,2400,-2363,1574,6368,-2824,-17212,1745139206761242837
665632,2232,-2565,1677,6395,-2941,-17022,1745139206761242837
665824,2068,-2763,1765,6369,-2889,-16774,1745139206761242837
666016,1912,-2947,1843,6331,-2618,-16464,1745139206761242837
666208,1778,-3118,1914,6309,-2137,-16109,1745139206761242837
666400,1680,-3278,1987,6289,-1591,-15606,1745139206761242837
666592,1617,-3429,2060,6347,-1069,-15092,1745139206817383731
666784,1580,-3574,2132,6389,-500,-14610,1745139206817383731
666976,1565,-3713,2209,6445,47,-14043,1745139206817383731
667168,1578,-3855,2283,6482,468,-13427,1745139206817383731
667360,1611,-4001,2350,6502,772,-12805,1745139206817383731
667552,1649,-4145,2406,6480,992,-12176,1745139206817383731
667744,1681,-4275,2448,6372,1192,-11559,1745139206817383731
667936,1708,-4389,2477,6251,1365,-10869,1745139206817383731
668128,1731,-4489,2497,6045,1545,-10186,1745139206817383731
668320,1743,-4574,2510,5837,1739,-9594,1745139206817383731
668512,1742,-4656,2523,5710,1937,-8919,1745139206817383731
668704,1715,-4739,2544,5653,2060,-8385,1745139206817383731
668896,1660,-4821,2575,5515,2222,-7725,1745139206877546046
669088,1589,-4905,2606,5479,2302,-7446,1745139206877546046
669280,1510,-4954,2618,5349,2416,-6930,1745139206877546046
669472,1434,-4986,2622,5208,2466,-6305,1745139206877546046
669664,1359,-5020,2615,5011,2527,-5592,1745139206877546046
669856,1289,-5068,2603,4903,2685,-4978,1745139206877546046
670048,1220,-5093,2586,4786,2901,-4195,1745139206877546046
670240,1155,-5108,2566,4670,3031,-3533,1745139206877546046
670432,1102,-5118,2544,4512,3088,-2897,1745139206877546046
670624,1064,-5123,2521,4360,3074,-2337,1745139206877546046
670816,1032,-5131,2492,4244,2977,-1838,1745139206877546046
671008,991,-5131,2448,3844,2906,-1484,1745139206877546046
671200,949,-5099,2412,3525,2787,-1257,1745139206936069990
671392,910,-5059,2372,3296,2685,-1021,1745139206936069990
671584,865,-5010,2325,3069,2632,-801,1745139206936069990
671776,805,-4952,2279,2896,2644,-646,1745139206936069990
671968,740,-4891,2234,2811,2659,-164,1745139206936069990
672160,669,-4837,2183,2729,2778,277,1745139206936069990
672352,585,-4777,2121,2554,3015,922,1745139206936069990
672544,503,-4709,2050,2341,3297,1574,1745139206936069990
672736,427,-4647,1972,2084,3494,2360,1745139206936069990
672928,343,-4596,1886,1748,3557,3059,1745139206936069990
673120,244,-4544,1795,1248,3546,3738,1745139206936069990
673312,130,-4484,1698,692,3430,4386,1745139206936069990
673504,3,-4411,1595,112,3201,4822,1745139206994231021
673696,-132,-4326,1481,-536,3032,5143,1745139206994231021
673888,-270,-4220,1357,-1277,2956,5359,1745139206994231021
674080,-378,-4090,1233,-2001,3010,5538,1745139206994231021
674272,-435,-3944,1114,-2703,3117,5758,1745139206994231021
674464,-433,-3784,1000,-3318,3201,5868,1745139206994231021
674656,-389,-3616,899,-3844,3262,5994,1745139206994231021
674848,-320,-3445,814,-4343,3348,6102,1745139206994231021
675040,-241,-3271,746,-4790,3408,6239,1745139206994231021
675232,-152,-3091,689,-5221,3456,6373,1745139206994231021
675424,-46,-2908,647,-5619,3474,6593,1745139206994231021
675616,87,-2722,612,-5975,3453,6664,1745139206994231021
675808,212,-2530,583,-6235,3367,6676,1745139207053144650
676000,315,-2339,558,-6439,3174,6669,1745139207053144650
676192,401,-2150,536,-6549,2913,6703,1745139207053144650
676384,470,-1965,521,-6631,2634,6724,1745139207053144650
676576,518,-1788,504,-6646,2416,6726,1745139207053144650
676768,542,-1623,482,-6635,2249,6655,1745139207053144650
676960,546,-1471,449,-6588,2104,6569,1745139207053144650
677152,536,-1335,411,-6526,1962,6423,1745139207053144650
677344,514,-1213,371,-6510,1805,6179,1745139207053144650
677536,490,-1106,335,-6508,1679,5921,1745139207053144650
677728,468,-1012,305,-6561,1574,5674,1745139207053144650
677920,446,-927,280,-6613,1495,5486,1745139207053144650
678112,423,-844,259,-6703,1422,5288,1745139207115136844
678304,398,-761,240,-6738,1362,5024,1745139207115136844
678496,378,-680,221,-6773,1318,4770,1745139207115136844
678688,370,-609,208,-6780,1218,4533,1745139207115136844
678880,372,-555,193,-6784,1148,4320,1745139207115136844
679072,382,-512,179,-6794,1056,4253,1745139207115136844
679264,393,-470,168,-6853,930,4198,1745139207115136844
679456,398,-431,162,-6911,803,4123,1745139207115136844
679648,395,-397,155,-6941,621,4082,1745139207115136844
679840,383,-367,138,-7023,483,3998,1745139207115136844
680032,364,-345,117,-7106,350,3915,1745139207115136844
680224,337,-326,95,-7183,280,3875,1745139207115136844
680416,297,-307,77,-7283,233,3812,1745139207167789644
680608,249,-287,64,-7351,180,3711,1745139207167789644
680800,205,-272,55,-7396,140,3608,1745139207167789644
680992,163,-266,49,-7462,96,3520,1745139207167789644
681184,116,-263,38,-7610,54,3465,1745139207167789644
681376,64,-255,28,-7766,26,3351,1745139207167789644
681568,8,-237,25,-7926,25,3168,1745139207167789644
681760,-54,-210,30,-8047,20,3046,1745139207167789644
681952,-77,-182,36,-8057,85,2975,1745139207167789644
682144,-81,-157,42,-8055,186,2863,1745139207167789644
682336,-87,-136,50,-8041,281,2818,1745139207167789644
682528,-85,-112,58,-8046,344,2787,1745139207167789644
682720,-78,-87,66,-8066,381,2799,1745139207229675381
682912,-71,-61,73,-8099,386,2763,1745139207229675381
683104,-71,-33,73,-8166,366,2704,1745139207229675381
683296,-74,-6,70,-8201,315,2601,1745139207229675381
683488,-78,22,64,-8195,297,2505,1745139207229675381
683680,-81,50,62,-8157,310,2435,1745139207229675381
683872,-79,76,60,-8049,335,2411,1745139207229675381
684064,-78,99,57,-7980,367,2420,1745139207229675381
684256,-75,119,48,-7965,371,2439,1745139207229675381
684448,-70,138,41,-8007,350,2410,1745139207229675381
684640,-61,159,41,-8080,314,2306,1745139207229675381
684832,-54,181,35,-8158,283,2184,1745139207229675381
685024,-47,202,24,-8188,237,2032,1745139207285435132
685216,-40,217,8,-8212,184,1888,1745139207285435132
685408,-35,237,-8,-8211,159,1770,1745139207285435132
685600,-34,260,-19,-8188,154,1606,1745139207285435132
685792,-34,282,-22,-8121,155,1483,1745139207285435132
685984,-31,299,-26,-8045,112,1335,1745139207285435132
686176,-26,307,-34,-7993,98,1230,1745139207285435132
686368,-20,310,-44,-8015,63,1147,1745139207285435132
686560,-14,312,-52,-8070,55,1043,1745139207285435132
686752,-7,316,-55,-8094,44,923,1745139207285435132
686944,5,321,-55,-8067,39,785,1745139207285435132
687136,20,324,-47,-8012,26,669,1745139207285435132
687328,38,312,-37,-7950,19,562,1745139207345194795
687520,53,298,-37,-7960,-28,465,1745139207345194795
687712,67,287,-37,-7997,-83,398,1745139207345194795
687904,78,277,-32,-8037,-157,358,1745139207345194795
688096,85,262,-23,-8074,-244,337,1745139207345194795
688288,91,243,-9,-8159,-274,365,1745139207345194795
688480,89,222,-4,-8256,-265,360,1745139207345194795
688672,82,207,-6,-8315,-275,335,1745139207345194795
688864,75,198,-9,-8323,-263,278,1745139207345194795
689056,65,194,-8,-8247,-279,218,1745139207345194795
689248,55,190,-1,-8140,-302,142,1745139207345194795
689440,44,180,10,-7981,-327,65,1745139207345194795
689632,30,164,20,-7867,-363,35,1745139207403213379
689824,14,140,27,-7796,-388,-3,1745139207403213379
690016,1,114,34,-7825,-394,-43,1745139207403213379
690208,-9,88,40,-7926,-424,-62,1745139207403213379
690400,-15,61,49,-8033,-428,-39,1745139207403213379
690592,-22,35,58,-8118,-412,10,1745139207403213379
690784,-39,15,57,-8169,-360,92,1745139207403213379
690976,-61,3,54,-8171,-313,142,1745139207403213379
691168,-82,-7,56,-8110,-278,199,1745139207403213379
691360,-105,-21,58,-8044,-231,238,1745139207403213379
691552,-129,-35,63,-7987,-217,313,1745139207403213379
691744,-156,-49,68,-7951,-224,360,1745139207403213379
691936,-185,-60,71,-7986,-269,406,1745139207461890916
692128,-214,-66,69,-8009,-291,433,1745139207461890916
692320,-245,-69,67,-8053,-307,437,1745139207461890916
692512,-275,-71,67,-8094,-270,403,1745139207461890916
692704,-301,-76,68,-8125,-208,405,1745139207461890916
692896,-317,-79,69,-8152,-125,455,1745139207461890916
693088,-325,-81,67,-8204,-1,529,1745139207461890916
693280,-323,-82,62,-8278,112,590,1745139207461890916
693472,-311,-78,57,-8308,192,640,1745139207461890916
693664,-285,-71,51,-8366,259,678,1745139207461890916
693856,-248,-59,46,-8387,311,695,1745139207461890916
694048,-209,-46,42,-8395,329,714,1745139207461890916
694240,-175,-29,34,-8376,308,724,1745139207521336102
694432,-150,-10,21,-8316,258,709,1745139207521336102
694624,-129,8,6,-8296,248,716,1745139207521336102
694816,-105,27,6,-8255,243,684,1745139207521336102
695008,-81,41,11,-8216,226,634,1745139207521336102
695200,-61,55,12,-8200,196,585,1745139207521336102
695392,-44,72,11,-8222,193,562,1745139207521336102
695584,-31,89,9,-8236,187,488,1745139207521336102
695776,-21,106,7,-8243,181,474,1745139207521336102
695968,-15,118,2,-8241,152,473,1745139207521336102
696160,-9,126,-3,-8218,140,440,1745139207521336102
696352,-5,135,-4,-8217,117,374,1745139207521336102
696544,1,142,-1,-8222,90,300,1745139207578477820
696736,11,145,2,-8214,85,245,1745139207578477820
696928,18,144,4,-8192,79,212,1745139207578477820
697120,20,143,3,-8197,84,192,1745139207578477820
697312,18,146,2,-8194,79,158,1745139207578477820
697504,15,152,1,-8205,69,102,1745139207578477820
697696,12,157,2,-8167,20,50,1745139207578477820
697888,16,157,7,-8150,-19,48,1745139207578477820
698080,20,156,12,-8084,-47,4,1745139207578477820
698272,18,153,12,-8023,-57,-20,1745139207578477820
698464,13,147,9,-7994,-30,-32,1745139207578477820
698656,12,137,7,-7962,14,-48,1745139207578477820
698848,17,125,6,-7978,63,-56,1745139207637960089
699040,26,113,7,-8010,83,-75,1745139207637960089
699232,35,102,5,-8048,97,-68,1745139207637960089
699424,44,92,4,-8090,84,-68,1745139207637960089
699616,52,83,4,-8130,67,-21,1745139207637960089
699808,59,73,4,-8145,26,4,1745139207637960089
700000,60,66,3,-8199,-28,-3,1745139207637960089
700192,55,62,3,-8231,-87,-10,1745139207637960089
700384,46,59,6,-8248,-142,23,1745139207637960089
700576,33,58,9,-8328,-134,37,1745139207637960089
700768,17,67,15,-8249,-97,67,1745139207637960089
700960,-4,54,10,-8015,-98,92,1745139207637960089
701152,-22,46,4,-8102,-16,146,1745139207695578260
701344,-32,34,13,-8014,16,170,1745139207695578260
701536,-38,20,14,-8137,58,218,1745139207695578260
701728,-36,16,16,-8235,40,242,1745139207695578260
701920,-29,30,4,-8340,-25,264,1745139207695578260
702112,-26,39,-16,-8249,-60,253,1745139207695578260
702304,-25,36,-20,-8146,-63,220,1745139207695578260
702496,-26,36,-9,-8100,-40,238,1745139207695578260
702688,-27,28,-1,-8054,-24,231,1745139207695578260
702880,-30,18,0,-8146,17,228,1745139207695578260
703072,-31,13,2,-8259,36,258,1745139207695578260
703264,-31,22,7,-8374,56,260,1745139207695578260
703456,-33,37,5,-8391,26,256,1745139207754172413
703648,-42,43,-13,-8299,-15,208,1745139207754172413
703840,-48,51,-17,-8371,-5,216,1745139207754172413
704032,-45,62,4,-8377,47,201,1745139207754172413
704224,-35,69,22,-8308,89,161,1745139207754172413
704416,-25,70,24,-8240,101,165,1745139207754172413
704608,-18,70,12,-8190,72,174,1745139207754172413
704800,-10,71,-1,-8174,65,172,1745139207754172413
704992,-7,70,-8,-8144,40,191,1745139207754172413
705184,-8,68,-10,-8137,25,225,1745139207754172413
705376,-14,65,-12,-8183,46,223,1745139207754172413
705568,-17,66,-12,-8204,77,205,1745139207754172413
705760,-16,70,-13,-8233,123,164,1745139207812192716
705952,-11,77,-14,-8222,142,143,1745139207812192716
706144,-4,84,-16,-8180,155,123,1745139207812192716
706336,1,89,-18,-8108,152,90,1745139207812192716
706528,5,91,-20,-8042,106,67,1745139207812192716
706720,9,88,-22,-8004,60,41,1745139207812192716
706912,14,84,-23,-8006,36,69,1745139207812192716
707104,24,79,-21,-8057,23,77,1745139207812192716
707296,34,74,-22,-8106,24,65,1745139207812192716
707488,41,73,-26,-8146,2,61,1745139207812192716
707680,49,72,-30,-8134,9,72,1745139207812192716
707872,56,70,-29,-8140,-9,71,1745139207812192716
708064,59,67,-31,-8098,-73,68,1745139207871009158
708256,55,59,-35,-8133,-91,90,1745139207871009158
708448,45,53,-37,-8158,-141,77,1745139207871009158
708640,30,48,-36,-8198,-115,60,1745139207871009158
708832,16,48,-29,-8233,-103,54,1745139207871009158
709024,7,46,-23,-8208,-65,80,1745139207871009158
709216,2,45,-20,-8167,-25,96,1745139207871009158
709408,-1,45,-16,-8146,-7,114,1745139207871009158
709600,-4,49,-13,-8118,-11,83,1745139207871009158
709792,-8,50,-10,-8081,-22,56,1745139207871009158
709984,-9,47,-8,-8037,-38,45,1745139207871009158
710176,-10,40,-5,-8060,-58,60,1745139207871009158
710368,-12,31,-4,-8121,-52,93,1745139207929875651
710560,-16,25,-7,-8215,-39,118,1745139207929875651
710752,-22,24,-10,-8295,-17,117,1745139207929875651
710944,-27,28,-12,-8351,27,112,1745139207929875651
711136,-25,34,-10,-8351,66,123,1745139207929875651
711328,-16,38,-8,-8306,123,117,1745139207929875651
711520,-4,45,-8,-8245,127,109,1745139207929875651
711712,6,49,-12,-8163,105,99,1745139207929875651
711904,17,50,-15,-8115,49,91,1745139207929875651
712096,26,48,-15,-8087,25,105,1745139207929875651
712288,31,44,-14,-8093,-7,91,1745139207929875651
712480,30,43,-17,-8118,-10,100,1745139207929875651
712672,29,43,-20,-8140,-21,123,1745139207997377483
712864,29,44,-21,-8154,-22,131,1745139207997377483
713056,30,45,-22,-8173,-2,128,1745139207997377483
713248,31,45,-21,-8194,6,118,1745139207997377483
713440,29,46,-22,-8186,-21,115,1745139207997377483
713632,24,49,-20,-8170,-25,99,1745139207997377483
713824,21,50,-17,-8166,-31,84,1745139207997377483
714016,21,50,-15,-8160,-19,82,1745139207997377483
714208,22,49,-11,-8128,-25,70,1745139207997377483
714400,26,49,-8,-8121,-46,70,1745139207997377483
714592,30,50,-6,-8126,-63,57,1745139207997377483
714784,32,51,-4,-8126,-65,43,1745139207997377483
714976,28,49,-2,-8093,-61,38,1745139208046892343
715168,23,49,0,-8088,-54,70,1745139208046892343
715360,17,48,2,-8082,-48,86,1745139208046892343
715552,11,45,4,-8088,-51,98,1745139208046892343
715744,5,42,5,-8106,-34,90,1745139208046892343
715936,1,39,6,-8127,-3,71,1745139208046892343
716128,3,39,9,-8170,16,50,1745139208046892343
716320,11,38,11,-8142,28,37,1745139208046892343
716512,19,38,12,-8139,17,26,1745139208046892343
716704,23,34,11,-8106,-15,35,1745139208046892343
716896,21,30,10,-8104,-19,61,1745139208046892343
717088,15,27,10,-8113,-40,51,1745139208046892343
717280,8,26,11,-8112,-27,54,1745139208109704790
717472,-2,27,12,-8096,-22,54,1745139208109704790
717664,-13,28,12,-8061,15,48,1745139208109704790
717856,-23,26,12,-8016,15,41,1745139208109704790
718048,-28,22,10,-8024,18,73,1745139208109704790
718240,-28,17,8,-8063,16,110,1745139208109704790
718432,-26,13,7,-8091,3,118,1745139208109704790
718624,-26,14,6,-8139,-6,123,1745139208109704790
718816,-24,16,3,-8201,-13,131,1745139208109704790
719008,-19,19,4,-8232,-6,132,1745139208109704790
719200,-16,24,4,-8261,-2,168,1745139208109704790
719392,-15,30,5,-8248,13,158,1745139208109704790
719584,-14,38,7,-8217,39,138,1745139208169314558
719776,-12,43,9,-8176,35,132,1745139208169314558
719968,-9,44,10,-8125,21,128,1745139208169314558
720160,-8,44,10,-8100,-13,133,1745139208169314558
720352,-8,45,10,-8106,-20,136,1745139208169314558
720544,-13,44,9,-8080,-35,122,1745139208169314558
720736,-19,42,9,-8102,-39,139,1745139208169314558
720928,-24,38,9,-8137,-33,148,1745139208169314558
721120,-27,36,7,-8181,-8,144,1745139208169314558
721312,-29,37,7,-8211,16,136,1745139208169314558
721504,-27,40,9,-8223,42,164,1745139208169314558
721696,-24,44,11,-8236,47,183,1745139208169314558
721888,-20,49,11,-8233,48,164,1745139208222707299
722080,-20,55,9,-8218,59,161,1745139208222707299
722272,-20,61,6,-8204,49,159,1745139208222707299
722464,-20,66,5,-8194,37,168,1745139208222707299
722656,-21,69,4,-8195,35,155,1745139208222707299
722848,-22,73,3,-8225,29,132,1745139208222707299
723040,-23,78,1,-8233,33,108,1745139208222707299
723232,-24,83,-1,-8241,36,118,1745139208222707299
723424,-23,87,-1,-8208,73,114,1745139208222707299
723616,-19,90,-3,-8179,90,75,1745139208222707299
723808,-11,89,-4,-8182,110,44,1745139208222707299
724000,0,85,-5,-8199,140,27,1745139208222707299
724192,14,82,-6,-8228,134,6,1745139208285137198
724384,27,80,-6,-8258,127,-2,1745139208285137198
724576,38,77,-7,-8294,119,3,1745139208285137198
724768,47,75,-8,-8328,102,-18,1745139208285137198
724960,50,75,-9,-8337,70,-35,1745139208285137198
725152,49,78,-7,-8309,63,-72,1745139208285137198
725344,45,82,-7,-8259,34,-94,1745139208285137198
725536,38,83,-6,-8197,18,-94,1745139208285137198
725728,29,81,-4,-8132,25,-109,1745139208285137198
725920,21,75,-4,-8101,31,-109,1745139208285137198
726112,15,67,-4,-8118,17,-123,1745139208285137198
726304,10,61,-6,-8155,34,-133,1745139208285137198
726496,7,57,-5,-8205,36,-138,1745139208343153334
726688,5,57,-6,-8270,21,-170,1745139208343153334
726880,3,57,-8,-8191,-7,-197,1745139208343153334
727072,-1,48,-12,-8098,-44,-194,1745139208343153334
727264,-10,36,-12,-8104,-36,-166,1745139208343153334
727456,-22,28,-8,-8086,-21,-160,1745139208343153334
727648,-32,18,-6,-8125,-19,-136,1745139208343153334
727840,-39,14,-8,-8164,-5,-144,1745139208343153334
728032,-46,13,-12,-8178,21,-154,1745139208343153334
728224,-51,14,-14,-8169,37,-169,1745139208343153334
728416,-52,12,-15,-8172,63,-163,1745139208343153334
728608,-50,11,-15,-8187,77,-157,1745139208343153334
728800,-45,9,-17,-8208,68,-168,1745139208400003180
728992,-42,10,-19,-8239,23,-155,1745139208400003180
729184,-37,11,-21,-8273,-8,-128,1745139208400003180
729376,-34,13,-18,-8287,-15,-114,1745139208400003180
729568,-34,17,-16,-8279,-12,-103,1745139208400003180
729760,-36,20,-15,-8266,-14,-88,1745139208400003180
729952,-38,24,-14,-8240,-9,-76,1745139208400003180
730144,-39,27,-13,-8256,-7,-74,1745139208400003180
730336,-40,28,-12,-8252,-16,-93,1745139208400003180
730528,-40,27,-9,-8251,-2,-75,1745139208400003180
730720,-41,26,-6,-8268,-11,-83,1745139208400003180
730912,-40,28,-4,-8288,5,-93,1745139208400003180
731104,-37,31,-2,-8286,25,-92,1745139208460294608
731296,-33,36,-2,-8245,51,-97,1745139208460294608
731488,-27,39,-4,-8198,103,-110,1745139208460294608
731680,-19,42,-5,-8155,112,-117,1745139208460294608
731872,-7,40,-5,-8136,106,-91,1745139208460294608
732064,9,39,-6,-8138,102,-132,1745139208460294608
732256,21,39,-10,-8161,88,-156,1745139208460294608
732448,28,39,-14,-8145,68,-159,1745139208460294608
732640,31,38,-16,-8155,41,-149,1745139208460294608
732832,32,35,-17,-8183,5,-158,1745139208460294608
733024,29,34,-19,-8213,-21,-154,1745139208460294608
733216,26,34,-20,-8249,-30,-125,1745139208460294608
733408,22,36,-21,-8256,-16,-106,1745139208517623876
733600,17,39,-20,-8249,7,-98,1745139208517623876
733792,14,42,-20,-8206,30,-95,1745139208517623876
733984,13,46,-19,-8161,58,-111,1745139208517623876
734176,16,47,-18,-8099,79,-116,1745139208517623876
734368,23,48,-19,-8035,76,-147,1745139208517623876
734560,33,46,-19,-7988,54,-152,1745139208517623876
734752,40,43,-20,-7964,52,-157,1745139208517623876
734944,44,39,-23,-7970,10,-173,1745139208517623876
735136,46,36,-24,-8004,-20,-165,1745139208517623876
735328,44,32,-28,-8042,-22,-178,1745139208517623876
735520,38,28,-31,-8060,-13,-156,1745139208517623876
735712,30,25,-33,-8094,-10,-159,1745139208578218323
735904,25,23,-33,-8116,5,-127,1745139208578218323
736096,22,22,-32,-8148,4,-101,1745139208578218323
736288,16,23,-33,-8154,-27,-83,1745139208578218323
736480,10,24,-34,-8163,-67,-55,1745139208578218323
736672,3,27,-34,-8163,-107,-61,1745139208578218323
736864,-6,31,-33,-8151,-124,-72,1745139208578218323
737056,-17,35,-30,-8116,-110,-46,1745139208578218323
737248,-27,37,-27,-8090,-103,-41,1745139208578218323
737440,-33,40,-22,-8067,-86,-13,1745139208578218323
737632,-36,40,-20,-8060,-89,20,1745139208578218323
737824,-37,39,-19,-8072,-71,19,1745139208578218323
738016,-35,40,-18,-8117,-86,22,1745139208636514405
738208,-36,42,-17,-8154,-97,1,1745139208636514405
738400,-38,45,-18,-8191,-60,-25,1745139208636514405
738592,-37,47,-17,-8191,-58,-27,1745139208636514405
738784,-32,49,-15,-8198,-42,-33,1745139208636514405
738976,-25,50,-13,-8192,-32,-19,1745139208636514405
739168,-16,52,-13,-8172,-26,4,1745139208636514405
739360,-7,55,-13,-8180,-16,19,1745139208636514405
739552,2,59,-11,-8171,-15,4,1745139208636514405
739744,10,64,-9,-8160,-31,-8,1745139208636514405
739936,14,69,-8,-8119,-59,-29,1745139208636514405
740128,16,72,-7,-8064,-72,-56,1745139208636514405
740320,15,72,-7,-8050,-106,-79,1745139208694648821
740512,16,67,-6,-8047,-107,-90,1745139208694648821
740704,17,63,-4,-8096,-95,-90,1745139208694648821
740896,20,59,-3,-8142,-84,-112,1745139208694648821
741088,20,59,-2,-8175,-74,-122,1745139208694648821
741280,20,59,-1,-8187,-85,-117,1745139208694648821
741472,21,59,0,-8195,-83,-118,1745139208694648821
741664,18,60,1,-8179,-102,-130,1745139208694648821
741856,8,60,1,-8142,-125,-137,1745139208694648821
742048,-4,62,2,-8112,-130,-121,1745139208694648821
742240,-18,63,4,-8089,-116,-120,1745139208694648821
742432,-31,62,4,-8077,-82,-118,1745139208694648821
742624,-41,61,6,-8080,-59,-132,1745139208753185891
742816,-45,61,6,-8110,-53,-110,1745139208753185891
743008,-42,62,6,-8139,-29,-93,1745139208753185891
743200,-37,63,6,-8166,-14,-94,1745139208753185891
743392,-30,65,5,-8194,-3,-106,1745139208753185891
743584,-21,71,3,-8185,5,-115,1745139208753185891
743776,-12,76,3,-8182,-2,-125,1745139208753185891
743968,-7,78,2,-8166,9,-147,1745139208753185891
744160,2,78,2,-8159,14,-174,1745139208753185891
744352,12,77,4,-8163,28,-166,1745139208753185891
744544,22,76,6,-8150,32,-207,1745139208753185891
744736,33,75,7,-8129,14,-204,1745139208753185891
744928,45,75,7,-8098,6,-188,1745139208809384596
745120,56,72,7,-8075,-29,-156,1745139208809384596
745312,61,70,6,-8056,-53,-121,1745139208809384596
745504,60,67,4,-8045,-80,-99,1745139208809384596
745696,52,66,2,-8049,-113,-97,1745139208809384596
745888,41,66,3,-8029,-113,-103,1745139208809384596
746080,26,65,3,-8008,-95,-86,1745139208809384596
746272,11,62,5,-7989,-113,-35,1745139208809384596
746464,0,56,4,-8032,-113,37,1745139208809384596
746656,-15,54,0,-8097,-126,88,1745139208809384596
746848,-34,54,-2,-8203,-109,133,1745139208809384596
747040,-54,60,-3,-8273,-100,187,1745139208809384596
747232,-69,70,-5,-8299,-45,251,1745139208870941846
747424,-80,82,-4,-8289,10,295,1745139208870941846
747616,-82,95,-5,-8272,104,337,1745139208870941846
747808,-74,108,-6,-8230,193,348,1745139208870941846
748000,-60,120,-9,-8193,244,368,1745139208870941846
748192,-41,132,-13,-8218,216,395,1745139208870941846
748384,-19,144,-20,-8235,209,413,1745139208870941846
748576,1,155,-26,-8293,192,451,1745139208870941846
748768,18,169,-33,-8329,190,491,1745139208870941846
748960,30,183,-39,-8339,211,506,1745139208870941846
749152,40,199,-45,-8337,219,481,1745139208870941846
749344,48,211,-51,-8327,216,496,1745139208870941846
749536,54,220,-58,-8321,225,502,1745139208927402789
749728,55,225,-67,-8320,237,531,1745139208927402789
749920,51,230,-77,-8339,231,566,1745139208927402789
750112,43,233,-87,-8325,228,598,1745139208927402789
750304,33,236,-97,-8354,233,652,1745139208927402789
750496,20,239,-106,-8316,243,724,1745139208927402789
750688,5,240,-114,-8282,241,812,1745139208927402789
750880,-14,239,-121,-8201,281,931,1745139208927402789
751072,-38,238,-129,-8086,320,1092,1745139208927402789
751264,-66,236,-136,-7968,359,1302,1745139208927402789
751456,-94,233,-144,-7822,422,1539,1745139208927402789
751648,-128,232,-152,-7691,478,1871,1745139208927402789
751840,-169,234,-160,-7654,523,2248,1745139208986572821
752032,-223,247,-172,-7685,554,2467,1745139208986572821
752224,-287,271,-190,-7775,572,2606,1745139208986572821
752416,-353,307,-208,-7873,637,2681,1745139208986572821
752608,-413,354,-223,-7905,701,2761,1745139208986572821
752800,-461,408,-233,-7842,776,2860,1745139208986572821
752992,-498,466,-246,-7723,862,2937,1745139208986572821
753184,-524,524,-261,-7573,919,2965,1745139208986572821
753376,-538,582,-280,-7405,959,2993,1745139208986572821
753568,-540,635,-300,-7229,1017,3002,1745139208986572821
753760,-530,684,-323,-7082,1115,3028,1745139208986572821
753952,-510,728,-345,-6934,1197,3037,1745139208986572821
754144,-481,769,-367,-6795,1268,3036,1745139209044833487
754336,-448,805,-387,-6645,1278,2983,1745139209044833487
754528,-416,838,-403,-6455,1236,2932,1745139209044833487
754720,-393,866,-415,-6229,1144,2914,1745139209044833487
754912,-386,891,-423,-5983,1002,2865,1745139209044833487
755104,-402,912,-429,-5736,842,2877,1745139209044833487
755296,-442,928,-436,-5518,681,2946,1745139209044833487
755488,-509,939,-444,-5346,600,3004,1745139209044833487
755680,-599,948,-453,-5234,571,3052,1745139209044833487
755872,-705,962,-463,-5218,583,3137,1745139209044833487
756064,-821,985,-472,-5219,624,3196,1745139209044833487
756256,-934,1018,-478,-5233,675,3282,1745139209044833487
756448,-1041,1065,-481,-5221,717,3343,1745139209103484826
756640,-1138,1126,-482,-5165,833,3349,1745139209103484826
756832,-1226,1195,-482,-5069,978,3362,1745139209103484826
757024,-1302,1272,-481,-4924,1125,3323,1745139209103484826
757216,-1363,1355,-482,-4777,1286,3204,1745139209103484826
757408,-1405,1440,-484,-4573,1445,3114,1745139209103484826
757600,-1429,1523,-488,-4387,1580,3019,1745139209103484826
757792,-1436,1603,-496,-4198,1672,2902,1745139209103484826
757984,-1433,1678,-506,-4049,1689,2790,1745139209103484826
758176,-1423,1752,-517,-3945,1688,2678,1745139209103484826
758368,-1408,1825,-525,-3863,1641,2545,1745139209103484826
758560,-1395,1898,-533,-3806,1619,2409,1745139209103484826
758752,-1387,1974,-541,-3739,1621,2345,1745139209161541536
758944,-1388,2053,-551,-3630,1647,2315,1745139209161541536
759136,-1395,2136,-562,-3516,1726,2292,1745139209161541536
759328,-1405,2228,-573,-3430,1833,2284,1745139209161541536
759520,-1418,2328,-587,-3290,1980,2237,1745139209161541536
759712,-1433,2433,-602,-3168,2068,2189,1745139209161541536
759904,-1448,2538,-617,-3040,2086,2095,1745139209161541536
760096,-1453,2644,-625,-2920,2091,1927,1745139209161541536
760288,-1450,2748,-627,-2820,2115,1713,1745139209161541536
760480,-1446,2853,-626,-2688,2164,1476,1745139209161541536
760672,-1445,2960,-624,-2535,2162,1214,1745139209161541536
760864,-1449,3067,-622,-2369,2172,921,1745139209161541536
761056,-1452,3168,-616,-2203,2154,661,1745139209220194229
761248,-1450,3268,-606,-2037,2182,367,1745139209220194229
761440,-1438,3366,-594,-1876,2279,-3,1745139209220194229
761632,-1426,3465,-586,-1723,2392,-289,1745139209220194229
761824,-1416,3563,-582,-1585,2457,-574,1745139209220194229
762016,-1401,3656,-577,-1441,2519,-844,1745139209220194229
762208,-1374,3741,-567,-1356,2573,-1114,1745139209220194229
762400,-1345,3827,-553,-1264,2645,-1462,1745139209220194229
762592,-1317,3917,-545,-1174,2759,-1804,1745139209220194229
762784,-1287,4002,-541,-1072,2822,-2052,1745139209220194229
762976,-1249,4081,-540,-971,2846,-2339,1745139209220194229
763168,-1200,4156,-542,-871,2837,-2882,1745139209220194229
763360,-1133,4232,-545,-743,2793,-3441,1745139209278624112
763552,-1053,4301,-554,-607,2764,-4018,1745139209278624112
763744,-971,4362,-563,-460,2775,-4630,1745139209278624112
763936,-887,4415,-572,-300,2837,-5391,1745139209278624112
764128,-788,4466,-582,-137,2949,-6159,1745139209278624112
764320,-669,4512,-588,73,2999,-6927,1745139209278624112
764512,-530,4543,-593,352,2978,-7647,1745139209278624112
764704,-381,4558,-598,618,2931,-8377,1745139209278624112
764896,-233,4551,-598,910,2805,-9061,1745139209278624112
765088,-101,4523,-606,1224,2603,-9828,1745139209278624112
765280,16,4478,-629,1461,2364,-10589,1745139209278624112
765472,120,4419,-662,1620,2067,-11170,1745139209278624112
765664,201,4293,-694,1867,1576,-11996,1745139209336786081
765856,241,4221,-726,2069,903,-12307,1745139209336786081
766048,230,4152,-752,2209,233,-13124,1745139209336786081
766240,187,4039,-777,2351,-220,-13850,1745139209336786081
766432,132,3905,-801,2560,-627,-14277,1745139209336786081
766624,72,3740,-844,2655,-947,-14621,1745139209336786081
766816,7,3594,-884,2603,-1098,-14998,1745139209336786081
767008,-68,3448,-911,2598,-1179,-15258,1745139209336786081
767200,-125,3284,-923,2519,-1253,-15426,1745139209336786081
767392,-172,3095,-909,2534,-1422,-15908,1745139209336786081
767584,-244,2940,-897,2537,-1680,-16308,1745139209336786081
767776,-311,2801,-882,2423,-1923,-16432,1745139209336786081
767968,-365,2661,-864,2334,-2221,-16683,1745139209395586273
768160,-420,2530,-837,2055,-2496,-16681,1745139209395586273
768352,-467,2393,-784,1826,-2810,-16792,1745139209395586273
768544,-517,2267,-723,1680,-3052,-16743,1745139209395586273
768736,-559,2074,-673,2591,-3510,-16984,1745139209395586273
768928,-636,1880,-772,2607,-3837,-17287,1745139209395586273
769120,-733,1818,-865,1527,-3604,-17075,1745139209395586273
769312,-778,1737,-793,905,-3323,-16998,1745139209395586273
769504,-768,1667,-627,451,-2982,-16699,1745139209395586273
769696,-738,1559,-454,502,-2811,-16375,1745139209395586273
769888,-716,1504,-375,420,-2711,-15971,1745139209395586273
770080,-710,1464,-361,492,-2601,-15543,1745139209395586273
770272,-704,1402,-354,676,-2560,-15187,1745139209453627930
770464,-694,1308,-330,829,-2534,-14796,1745139209453627930
770656,-680,1203,-297,868,-2519,-14377,1745139209453627930
770848,-672,1092,-272,922,-2485,-14003,1745139209453627930
771040,-675,978,-261,849,-2407,-13688,1745139209453627930
771232,-681,867,-257,678,-2299,-13370,1745139209453627930
771424,-683,775,-254,465,-2129,-13021,1745139209453627930
771616,-681,700,-244,279,-1903,-12738,1745139209453627930
771808,-674,640,-227,182,-1636,-12490,1745139209453627930
772000,-660,587,-206,79,-1421,-12291,1745139209453627930
772192,-629,542,-177,-4,-1292,-12068,1745139209453627930
772384,-584,505,-139,-74,-1214,-11822,1745139209453627930
772576,-530,479,-97,-136,-1143,-11550,1745139209512487965
772768,-479,463,-51,-133,-1122,-11283,1745139209512487965
772960,-438,444,-14,-55,-1170,-11108,1745139209512487965
773152,-407,417,7,101,-1243,-11018,1745139209512487965
773344,-382,379,14,239,-1243,-10964,1745139209512487965
773536,-358,347,29,190,-1199,-10848,1745139209512487965
773728,-336,326,53,95,-1133,-10798,1745139209512487965
773920,-319,316,78,28,-1075,-10680,1745139209512487965
774112,-311,311,98,8,-1022,-10528,1745139209512487965
774304,-309,310,114,4,-988,-10330,1745139209512487965
774496,-309,316,129,-49,-962,-10074,1745139209512487965
774688,-308,325,144,-88,-874,-9855,1745139209512487965
774880,-311,326,153,-37,-793,-9631,1745139209570390457
775072,-321,325,157,6,-703,-9386,1745139209570390457
775264,-332,321,162,71,-586,-9170,1745139209570390457
775456,-336,306,171,151,-505,-8998,1745139209570390457
775648,-330,280,173,166,-457,-8852,1745139209570390457
775840,-319,252,171,117,-439,-8718,1745139209570390457
776032,-307,232,175,44,-378,-8547,1745139209570390457
776224,-296,219,185,-40,-303,-8352,1745139209570390457
776416,-286,213,192,-153,-242,-8158,1745139209570390457
776608,-279,214,196,-269,-144,-8044,1745139209570390457
776800,-268,232,198,-306,4,-7808,1745139209570390457
776992,-254,247,196,-325,111,-7700,1745139209570390457
777184,-211,253,198,-232,401,-7885,1745139209629273877
777376,-138,243,217,-10,780,-8004,1745139209629273877
777568,-38,211,235,147,1038,-8087,1745139209629273877
777760,65,179,232,169,983,-7926,1745139209629273877
777952,140,158,225,179,610,-7995,1745139209629273877
778144,158,125,206,329,325,-8684,1745139209629273877
778336,49,90,123,546,290,-9605,1745139209629273877
778528,-153,61,12,638,380,-9973,1745139209629273877
778720,-336,-4,-22,791,725,-10159,1745139209629273877
778912,-368,-128,8,969,1383,-10338,1745139209629273877
779104,-307,-250,44,1140,2021,-10477,1745139209629273877
779296,-252,-335,33,1066,2344,-10352,1745139209629273877
779488,-195,-401,-2,748,2180,-9972,1745139209687570220
779680,-107,-435,-15,232,1699,-9669,1745139209687570220
779872,-15,-425,15,-234,1222,-9395,1745139209687570220
780064,34,-378,68,-566,800,-9067,1745139209687570220
780256,52,-324,110,-758,522,-8687,1745139209687570220
780448,58,-269,126,-806,341,-8337,1745139209687570220
780640,48,-215,117,-759,190,-8102,1745139209687570220
780832,24,-168,93,-568,44,-7995,1745139209687570220
781024,-16,-138,59,-339,-31,-7915,1745139209687570220
781216,-63,-125,25,-149,-61,-7882,1745139209687570220
781408,-107,-125,5,-29,-2,-7851,1745139209687570220
781600,-132,-133,-8,42,52,-7948,1745139209687570220
781792,-136,-143,-28,39,135,-8065,1745139209745810677
781984,-123,-148,-45,1,216,-8185,1745139209745810677
782176,-96,-149,-62,-57,246,-8339,1745139209745810677
782368,-58,-145,-79,-111,229,-8549,1745139209745810677
782560,-22,-134,-97,-145,176,-8714,1745139209745810677
782752,8,-122,-109,-128,50,-8865,1745139209745810677
782944,26,-99,-115,-208,14,-8913,1745139209745810677
783136,40,-79,-98,-117,-86,-8916,1745139209745810677
783328,45,-70,-90,21,-259,-8894,1745139209745810677
783520,34,-63,-102,110,-366,-8826,1745139209745810677
783712,5,-53,-113,135,-389,-8741,1745139209745810677
783904,-35,-45,-115,130,-310,-8635,1745139209745810677
784096,-78,-42,-112,161,-273,-8568,1745139209804679619
784288,-123,-37,-121,33,-33,-8295,1745139209804679619
784480,-157,-54,-114,-80,219,-8052,1745139209804679619
784672,-171,-79,-98,-134,473,-8057,1745139209804679619
784864,-171,-83,-91,-208,758,-8029,1745139209804679619
785056,-154,-80,-87,-278,951,-8022,1745139209804679619
785248,-125,-72,-86,-312,1084,-8001,1745139209804679619
785440,-88,-62,-82,-311,1140,-7971,1745139209804679619
785632,-55,-47,-76,-303,1166,-7992,1745139209804679619
785824,-28,-30,-72,-267,1114,-8014,1745139209804679619
786016,-3,-18,-66,-244,1029,-8059,1745139209804679619
786208,19,-10,-57,-177,919,-8094,1745139209804679619
786400,33,-6,-49,-126,801,-8117,1745139209862571955
786592,40,-5,-42,-61,674,-8137,1745139209862571955
786784,38,-8,-38,-28,539,-8135,1745139209862571955
786976,30,-17,-34,-3,450,-8091,1745139209862571955
787168,16,-28,-26,-10,402,-8056,1745139209862571955
787360,-3,-38,-18,-46,403,-8045,1745139209862571955
787552,-24,-48,-13,-65,426,-8088,1745139209862571955
787744,-38,-56,-13,-111,461,-8090,1745139209862571955
787936,-45,-62,-11,-140,526,-8081,1745139209862571955
788128,-45,-67,-9,-135,585,-8073,1745139209862571955
788320,-41,-83,-11,163,587,-8045,1745139209862571955
788512,-38,-147,-23,458,647,-8107,1745139209862571955
788704,-34,-186,-15,108,769,-8212,1745139209921330428
788896,-21,-147,-6,-628,728,-8125,1745139209921330428
789088,-7,-78,-23,-1060,646,-8059,1745139209921330428
789280,-1,-30,-37,-1144,558,-8079,1745139209921330428
789472,0,6,-25,-929,488,-8076,1745139209921330428
789664,-1,37,8,-585,454,-8096,1745139209921330428
789856,-6,50,45,-206,501,-8135,1745139209921330428
790048,-16,28,64,168,481,-8127,1745139209921330428
790240,-29,-24,57,400,473,-8129,1745139209921330428
790432,-45,-80,39,411,438,-8122,1745139209921330428
790624,-63,-120,24,189,404,-8091,1745139209921330428
790816,-80,-146,23,-123,479,-8039,1745139209921330428
791008,-92,-150,36,-422,608,-8017,1745139209979322711
791200,-90,-142,56,-596,739,-8005,1745139209979322711
791392,-77,-126,69,-650,820,-8000,1745139209979322711
791584,-58,-105,70,-599,842,-8042,1745139209979322711
791776,-39,-83,65,-475,792,-8095,1745139209979322711
791968,-22,-69,57,-366,747,-8123,1745139209979322711
792160,-5,-62,52,-289,718,-8139,1745139209979322711
792352,11,-61,52,-242,660,-8159,1745139209979322711
792544,24,-67,49,-195,593,-8157,1745139209979322711
792736,30,-78,46,-176,521,-8175,1745139209979322711
792928,29,-87,44,-180,422,-8190,1745139209979322711
793120,20,-96,44,-194,353,-8170,1745139209979322711
793312,4,-108,44,-239,285,-8163,1745139210038061654
793504,-19,-117,47,-278,250,-8147,1745139210038061654
793696,-43,-125,49,-309,247,-8113,1745139210038061654
793888,-67,-131,52,-343,299,-8090,1745139210038061654
794080,-88,-134,53,-356,376,-8053,1745139210038061654
794272,-102,-136,50,-391,521,-8038,1745139210038061654
794464,-105,-132,48,-437,720,-7991,1745139210038061654
794656,-96,-127,46,-466,867,-7995,1745139210038061654
794848,-75,-121,43,-487,930,-8016,1745139210038061654
795040,-48,-116,38,-463,930,-8049,1745139210038061654
795232,-18,-111,35,-450,871,-8067,1745139210038061654
795424,9,-106,32,-450,781,-8092,1745139210038061654
795616,26,-103,30,-440,679,-8111,1745139210097347987
795808,35,-100,28,-417,581,-8105,1745139210097347987
796000,36,-98,28,-425,528,-8118,1745139210097347987
796192,32,-96,28,-416,470,-8131,1745139210097347987
796384,25,-95,25,-415,415,-8123,1745139210097347987
796576,15,-95,22,-413,372,-8137,1745139210097347987
796768,0,-96,23,-409,339,-8130,1745139210097347987
796960,-17,-97,25,-425,332,-8139,1745139210097347987
797152,-36,-98,28,-420,369,-8156,1745139210097347987
797344,-53,-99,30,-412,404,-8169,1745139210097347987
797536,-70,-100,29,-408,457,-8168,1745139210097347987
797728,-82,-102,32,-434,503,-8139,1745139210097347987
797920,-84,-105,39,-440,605,-8059,1745139210157451657
798112,-83,-105,47,-456,754,-8003,1745139210157451657
798304,-77,-105,51,-503,882,-8008,1745139210157451657
798496,-64,-103,49,-543,980,-8009,1745139210157451657
798688,-43,-98,44,-577,987,-8047,1745139210157451657
798880,-15,-89,38,-581,904,-8075,1745139210157451657
799072,9,-80,34,-588,815,-8121,1745139210157451657
799264,23,-68,33,-558,708,-8136,1745139210157451657
799456,34,-55,35,-525,581,-8166,1745139210157451657
799648,42,-47,33,-473,495,-8166,1745139210157451657
799840,42,-44,34,-456,415,-8156,1745139210157451657
800032,33,-43,35,-440,359,-8133,1745139210157451657
800224,20,-44,36,-435,331,-8104,1745139210209298527
800224,20,-44,36,-435,331,-8104,1745139210209298527
800416,3,-49,37,-446,330,-8108,1745139210209298527
800608,-14,-51,39,-500,366,-8082,1745139210209298527
800800,-30,-51,41,-533,427,-8063,1745139210209298527
800992,-41,-48,41,-570,503,-8043,1745139210209298527
801184,-49,-43,39,-577,604,-8049,1745139210209298527
801376,-51,-38,37,-614,681,-8056,1745139210209298527
801568,-48,-32,37,-611,747,-8066,1745139210209298527
801760,-40,-23,35,-577,775,-8109,1745139210209298527
801952,-28,-14,29,-571,785,-8126,1745139210209298527
802144,-18,-7,24,-560,761,-8153,1745139210209298527
802336,-2,-2,22,-554,755,-8124,1745139210269534539
802528,13,4,23,-553,716,-8108,1745139210269534539
802720,25,8,24,-534,650,-8096,1745139210269534539
802912,28,10,21,-530,557,-8081,1745139210269534539
803104,24,11,18,-525,493,-8088,1745139210269534539
803296,16,12,15,-538,455,-8088,1745139210269534539
803488,6,13,13,-516,445,-8084,1745139210269534539
803680,-4,13,11,-519,480,-8098,1745139210269534539
803872,-12,14,13,-506,537,-8101,1745139210269534539
804064,-15,15,14,-521,564,-8089,1745139210269534539
804256,-16,15,14,-503,597,-8075,1745139210269534539
804448,-17,14,12,-503,593,-8080,1745139210269534539
804640,-19,13,11,-497,569,-8067,1745139210328050098
804832,-22,13,11,-505,581,-8055,1745139210328050098
805024,-25,14,13,-516,605,-8035,1745139210328050098
805216,-26,15,15,-516,634,-8057,1745139210328050098
805408,-26,17,14,-520,687,-8077,1745139210328050098
805600,-23,20,12,-524,684,-8093,1745139210328050098
805792,-17,23,9,-525,667,-8103,1745139210328050098
805984,-11,27,6,-515,619,-8094,1745139210328050098
806176,-7,29,4,-503,588,-8079,1745139210328050098
806368,-5,30,2,-500,562,-8093,1745139210328050098
806560,-4,32,1,-500,553,-8086,1745139210328050098
806752,-2,33,1,-517,565,-8087,1745139210328050098
806944,0,33,2,-510,589,-8107,1745139210386412326
807136,0,34,0,-478,583,-8115,1745139210386412326
807328,-3,23,-2,-358,579,-8083,1745139210386412326
807520,-8,5,-7,-296,524,-8099,1745139210386412326
807712,-18,-5,-24,-375,504,-8115,1745139210386412326
807904,-27,2,-36,-584,580,-8090,1745139210386412326
808096,-29,16,-27,-748,648,-8050,1745139210386412326
808288,-24,34,-5,-808,698,-8021,1745139210386412326
808480,-17,47,11,-753,719,-8038,1745139210386412326
808672,-12,58,9,-651,709,-8055,1745139210386412326
808864,-10,65,-1,-517,666,-8064,1745139210386412326
809056,-9,66,-9,-399,657,-8088,1745139210386412326
809248,-8,58,-9,-351,638,-8093,1745139210445180435
809440,-8,45,-6,-307,625,-8087,1745139210445180435
809632,-8,31,-7,-321,609,-8075,1745139210445180435
809824,-8,21,-7,-368,585,-8050,1745139210445180435
810016,-12,15,-6,-427,544,-8059,1745139210445180435
810208,-16,12,-8,-504,526,-8062,1745139210445180435
810400,-22,15,-7,-539,521,-8045,1745139210445180435
810592,-27,18,-5,-548,539,-8037,1745139210445180435
810784,-30,23,-2,-540,577,-8032,1745139210445180435
810976,-32,27,-1,-502,631,-8026,1745139210445180435
811168,-30,28,-1,-478,700,-8028,1745139210445180435
811360,-24,28,-4,-449,721,-8053,1745139210445180435
811552,-19,26,-5,-421,710,-8067,1745139210502503036
811744,-14,21,-5,-422,690,-8070,1745139210502503036
811936,-11,17,-3,-426,646,-8065,1745139210502503036
812128,-11,14,-1,-433,610,-8073,1745139210502503036
812320,-13,12,0,-454,594,-8085,1745139210502503036
812512,-16,12,1,-462,604,-8089,1745139210502503036
812704,-18,12,1,-466,627,-8072,1745139210502503036
812896,-18,12,3,-468,633,-8069,1745139210502503036
813088,-18,12,5,-471,630,-8079,1745139210502503036
813280,-18,11,5,-469,627,-8074,1745139210502503036
813472,-19,10,5,-455,614,-8057,1745139210502503036
813664,-20,9,5,-473,608,-8062,1745139210502503036
813856,-22,8,6,-467,607,-8063,1745139210558863146
814048,-23,6,7,-464,614,-8051,1745139210558863146
814240,-22,4,9,-455,622,-8057,1745139210558863146
814432,-24,1,10,-449,615,-8047,1745139210558863146
814624,-26,-3,10,-446,598,-8056,1745139210558863146
814816,-31,-6,12,-428,604,-8038,1745139210558863146
815008,-33,-9,13,-435,628,-8030,1745139210558863146
815200,-35,-12,15,-444,629,-8023,1745139210558863146
815392,-36,-16,16,-461,668,-8029,1745139210558863146
815584,-35,-17,16,-479,729,-8036,1745139210558863146
815776,-31,-15,17,-483,748,-8046,1745139210558863146
815968,-22,-15,17,-503,795,-8053,1745139210558863146
816160,-12,-13,16,-496,780,-8075,1745139210620440552
816352,-4,-12,15,-477,747,-8081,1745139210620440552
816544,1,-11,14,-472,682,-8093,1745139210620440552
816736,2,-11,14,-467,628,-8087,1745139210620440552
816928,0,-13,16,-448,570,-8088,1745139210620440552
817120,-6,-14,18,-443,530,-8092,1745139210620440552
817312,-12,-16,21,-447,514,-8091,1745139210620440552
817504,-20,-19,22,-455,513,-8088,1745139210620440552
817696,-28,-20,23,-454,550,-8078,1745139210620440552
817888,-34,-22,24,-472,612,-8049,1745139210620440552
818080,-39,-23,22,-495,662,-8057,1745139210620440552
818272,-40,-23,19,-499,712,-8067,1745139210620440552
818464,-38,-23,15,-505,738,-8072,1745139210678498355
818656,-33,-22,12,-521,763,-8079,1745139210678498355
818848,-24,-18,10,-526,765,-8080,1745139210678498355
819040,-17,-15,9,-527,737,-8059,1745139210678498355
819232,-11,-12,7,-517,711,-8072,1745139210678498355
819424,-6,-8,6,-526,673,-8078,1745139210678498355
819616,0,-4,4,-521,620,-8079,1745139210678498355
819808,3,-3,2,-499,590,-8088,1745139210678498355
820000,2,-1,0,-490,569,-8095,1745139210678498355
820192,0,-1,-2,-482,547,-8087,1745139210678498355
820384,-5,-3,-4,-475,554,-8091,1745139210678498355
820576,-8,-4,-7,-469,563,-8094,1745139210678498355
820768,-11,-4,-8,-493,591,-8099,1745139210737231777
820960,-13,-5,-8,-501,602,-8084,1745139210737231777
821152,-17,-5,-10,-507,627,-8079,1745139210737231777
821344,-19,-3,-9,-533,642,-8061,1745139210737231777
821536,-20,-1,-10,-536,662,-8055,1745139210737231777
821728,-19,0,-9,-544,686,-8069,1745139210737231777
821920,-19,4,-9,-531,707,-8060,1745139210737231777
822112,-19,6,-9,-515,729,-8062,1745139210737231777
822304,-17,7,-8,-487,734,-8068,1745139210737231777
822496,-14,9,-7,-483,764,-8094,1745139210737231777
822688,-11,8,-5,-490,744,-8114,1745139210737231777
822880,-6,6,-4,-481,728,-8098,1745139210737231777
823072,-1,4,-2,-478,688,-8088,1745139210795483328
823264,2,3,-1,-499,657,-8072,1745139210795483328
823456,0,3,-1,-501,619,-8074,1745139210795483328
823648,-3,2,-3,-494,579,-8059,1745139210795483328
823840,-7,-1,-2,-466,561,-8071,1745139210795483328
824032,-11,-5,-5,-460,571,-8062,1745139210795483328
824224,-17,-7,-8,-473,592,-8058,1745139210795483328
824416,-20,-6,-9,-510,647,-8055,1745139210795483328
824608,-22,-3,-7,-545,698,-8070,1745139210795483328
824800,-20,-1,-7,-558,720,-8067,1745139210795483328
824992,-16,2,-5,-579,731,-8063,1745139210795483328
825184,-12,6,-4,-562,742,-8041,1745139210795483328
825376,-7,10,-4,-543,739,-8055,1745139210854173521
825568,-1,12,-6,-506,734,-8068,1745139210854173521
825760,5,12,-7,-473,714,-8082,1745139210854173521
825952,9,10,-9,-453,657,-8073,1745139210854173521
826144,9,9,-10,-439,623,-8074,1745139210854173521
826336,6,7,-10,-444,598,-8088,1745139210854173521
826528,0,4,-9,-458,576,-8086,1745139210854173521
826720,-5,3,-8,-481,575,-8086,1745139210854173521
826912,-9,3,-5,-487,587,-8090,1745139210854173521
827104,-13,4,-3,-513,614,-8093,1745139210854173521
827296,-16,5,-2,-531,640,-8074,1745139210854173521
827488,-17,7,1,-525,688,-8058,1745139210854173521
827680,-18,9,1,-552,713,-8065,1745139210913606885
827872,-17,11,-1,-537,728,-8076,1745139210913606885
828064,-15,14,-1,-537,736,-8072,1745139210913606885
828256,-10,17,0,-538,745,-8089,1745139210913606885
828448,-5,21,2,-523,722,-8090,1745139210913606885
828640,0,23,3,-492,689,-8086,1745139210913606885
828832,2,24,2,-491,668,-8082,1745139210913606885
829024,3,24,2,-493,642,-8081,1745139210913606885
829216,3,24,2,-501,617,-8078,1745139210913606885
829408,3,24,3,-512,608,-8064,1745139210913606885
829600,-1,25,4,-516,593,-8065,1745139210913606885
829792,-4,27,6,-532,602,-8100,1745139210913606885
829984,-8,30,5,-531,626,-8112,1745139210969461895
830176,-13,34,6,-527,629,-8107,1745139210969461895
830368,-19,38,6,-502,663,-8131,1745139210969461895
830560,-19,42,8,-504,719,-8112,1745139210969461895
830752,-14,46,11,-510,759,-8110,1745139210969461895
830944,-9,50,12,-505,785,-8091,1745139210969461895
831136,-2,52,14,-501,786,-8077,1745139210969461895
831328,7,55,17,-502,799,-8063,1745139210969461895
831520,16,58,19,-504,798,-8057,1745139210969461895
831712,23,62,18,-485,761,-8041,1745139210969461895
831904,28,65,14,-462,730,-8066,1745139210969461895
832096,32,68,11,-464,681,-8083,1745139210969461895
832288,34,70,9,-470,668,-8079,1745139211028047454
832480,37,73,9,-451,654,-8063,1745139211028047454
832672,41,74,9,-454,635,-8080,1745139211028047454
832864,42,75,8,-451,600,-8087,1745139211028047454
833056,38,76,6,-447,547,-8077,1745139211028047454
833248,34,76,3,-452,505,-8088,1745139211028047454
833440,28,78,3,-452,493,-8083,1745139211028047454
833632,22,79,4,-441,529,-8062,1745139211028047454
833824,15,78,4,-432,548,-8070,1745139211028047454
834016,10,76,3,-430,573,-8073,1745139211028047454
834208,6,75,2,-419,593,-8068,1745139211028047454
834400,1,73,1,-423,619,-8048,1745139211028047454
834592,0,70,0,-418,653,-8051,1745139211088540339
834784,1,69,0,-415,686,-8068,1745139211088540339
834976,5,69,1,-414,715,-8085,1745139211088540339
835168,11,70,1,-398,745,-8074,1745139211088540339
835360,17,68,2,-371,743,-8058,1745139211088540339
835552,25,66,2,-375,717,-8059,1745139211088540339
835744,29,63,4,-355,690,-8052,1745139211088540339
835936,30,60,6,-351,652,-8062,1745139211088540339
836128,29,58,8,-354,610,-8082,1745139211088540339
836320,26,55,8,-357,590,-8085,1745139211088540339
836512,23,52,10,-357,586,-8081,1745139211088540339
836704,18,48,10,-350,577,-8064,1745139211088540339
836896,16,45,11,-356,576,-8037,1745139211144081290
837088,13,44,11,-361,573,-8029,1745139211144081290
837280,9,44,11,-359,587,-8031,1745139211144081290
837472,6,43,12,-355,593,-8048,1745139211144081290
837664,4,42,14,-339,630,-8057,1745139211144081290
837856,4,43,17,-335,642,-8085,1745139211144081290
838048,7,43,18,-344,664,-8096,1745139211144081290
838240,12,42,19,-367,676,-8105,1745139211144081290
838432,18,41,20,-375,675,-8100,1745139211144081290
838624,23,40,22,-385,656,-8097,1745139211144081290
838816,28,40,22,-396,656,-8084,1745139211144081290
839008,32,40,22,-422,654,-8091,1745139211144081290
839200,33,43,23,-430,637,-8094,1745139211205442031
839392,33,45,24,-429,590,-8085,1745139211205442031
839584,30,47,26,-400,562,-8090,1745139211205442031
839776,24,49,28,-407,551,-8092,1745139211205442031
839968,18,50,30,-384,558,-8108,1745139211205442031
840160,13,49,33,-374,568,-8106,1745139211205442031
840352,11,48,36,-344,589,-8125,1745139211205442031
840544,12,46,41,-337,585,-8112,1745139211205442031
840736,14,46,45,-318,600,-8138,1745139211205442031
840928,15,46,47,-313,632,-8142,1745139211205442031
841120,17,44,47,-319,630,-8138,1745139211205442031
841312,20,43,47,-331,640,-8113,1745139211205442031
841504,22,42,50,-318,630,-8085,1745139211264077798
841696,21,41,54,-296,603,-8080,1745139211264077798
841888,18,39,58,-296,566,-8035,1745139211264077798
842080,12,37,61,-275,565,-8021,1745139211264077798
842272,9,34,64,-265,545,-8019,1745139211264077798
842464,4,32,64,-274,553,-8017,1745139211264077798
842656,-3,30,62,-270,566,-8019,1745139211264077798
842848,-10,28,60,-277,583,-8032,1745139211264077798
843040,-13,26,60,-285,601,-8063,1745139211264077798
843232,-10,24,63,-289,601,-8071,1745139211264077798
843424,-5,22,65,-284,602,-8066,1745139211264077798
843616,-3,22,67,-286,588,-8069,1745139211264077798
843808,-4,21,65,-276,562,-8070,1745139211317602100
844000,-5,19,64,-267,534,-8087,1745139211317602100
844192,-9,19,63,-288,505,-8082,1745139211317602100
844384,-15,17,63,-276,491,-8092,1745139211317602100
844576,-24,15,64,-266,496,-8078,1745139211317602100
844768,-32,11,63,-247,523,-8048,1745139211317602100
844960,-39,7,60,-267,557,-8016,1745139211317602100
845152,-44,3,57,-276,608,-8006,1745139211317602100
845344,-44,-1,56,-297,649,-8017,1745139211317602100
845536,-37,-3,55,-314,672,-8024,1745139211317602100
845728,-29,-3,50,-326,683,-8062,1745139211317602100
845920,-21,-1,41,-328,668,-8079,1745139211317602100
846112,-12,5,33,-324,649,-8081,1745139211380817512
846304,-5,12,27,-305,623,-8076,1745139211380817512
846496,4,17,21,-268,600,-8077,1745139211380817512
846688,15,18,16,-247,581,-8057,1745139211380817512
846880,22,18,13,-237,571,-8056,1745139211380817512
847072,25,13,9,-236,551,-8040,1745139211380817512
847264,26,11,5,-252,532,-8057,1745139211380817512
847456,26,8,-1,-266,524,-8053,1745139211380817512
847648,22,4,-8,-286,490,-8066,1745139211380817512
847840,18,1,-14,-316,480,-8070,1745139211380817512
848032,12,-1,-19,-346,480,-8086,1745139211380817512
848224,6,-3,-23,-374,486,-8096,1745139211380817512
848416,5,-4,-24,-395,503,-8107,1745139211439686766
848608,4,-2,-25,-395,529,-8103,1745139211439686766
848800,3,3,-27,-408,555,-8102,1745139211439686766
848992,3,9,-30,-391,595,-8102,1745139211439686766
849184,3,14,-32,-368,608,-8084,1745139211439686766
849376,3,19,-33,-338,606,-8105,1745139211439686766
849568,2,20,-32,-323,617,-8123,1745139211439686766
849760,0,19,-29,-320,638,-8125,1745139211439686766
849952,-1,17,-29,-301,640,-8144,1745139211439686766
850144,-1,11,-28,-297,635,-8145,1745139211439686766
850336,0,4,-28,-303,634,-8143,1745139211439686766
850528,1,-4,-27,-342,618,-8121,1745139211439686766
850720,2,-11,-27,-391,583,-8098,1745139211497434260
850912,-1,-17,-28,-464,553,-8077,1745139211497434260
851104,-7,-20,-31,-486,528,-8072,1745139211497434260
851296,-16,-20,-31,-505,527,-8061,1745139211497434260
851488,-26,-17,-30,-498,520,-8076,1745139211497434260
851680,-35,-13,-28,-455,554,-8085,1745139211497434260
851872,-40,-8,-24,-385,599,-8074,1745139211497434260
852064,-41,-6,-20,-337,661,-8063,1745139211497434260
852256,-38,-5,-17,-270,698,-8071,1745139211497434260
852448,-34,-9,-14,-217,721,-8039,1745139211497434260
852640,-31,-15,-11,-193,718,-8036,1745139211497434260
852832,-27,-24,-7,-191,706,-8035,1745139211497434260
853024,-22,-32,-4,-212,699,-8030,1745139211556344451
853216,-18,-40,-3,-252,653,-8019,1745139211556344451
853408,-17,-46,-4,-261,610,-8021,1745139211556344451
853600,-19,-50,-6,-286,568,-8013,1745139211556344451
853792,-23,-52,-9,-292,534,-8008,1745139211556344451
853984,-27,-55,-10,-304,522,-8014,1745139211556344451
854176,-33,-57,-11,-294,510,-8025,1745139211556344451
854368,-38,-58,-11,-277,511,-8023,1745139211556344451
854560,-42,-59,-12,-268,541,-8042,1745139211556344451
854752,-44,-61,-14,-282,592,-8062,1745139211556344451
854944,-43,-62,-16,-261,634,-8078,1745139211556344451
855136,-43,-63,-18,-290,664,-8096,1745139211556344451
855328,-41,-64,-21,-295,673,-8113,1745139211614967196
855520,-37,-66,-23,-317,656,-8110,1745139211614967196
855712,-32,-67,-24,-328,633,-8096,1745139211614967196
855904,-27,-68,-25,-361,613,-8096,1745139211614967196
856096,-24,-68,-26,-381,590,-8087,1745139211614967196
856288,-22,-69,-28,-403,553,-8082,1745139211614967196
856480,-23,-68,-30,-413,529,-8096,1745139211614967196
856672,-26,-66,-33,-419,541,-8078,1745139211614967196
856864,-29,-65,-37,-429,539,-8093,1745139211614967196
857056,-33,-63,-40,-434,549,-8098,1745139211614967196
857248,-36,-63,-43,-429,565,-8107,1745139211614967196
857440,-37,-62,-45,-422,582,-8095,1745139211614967196
857632,-40,-62,-46,-417,606,-8071,1745139211673168279
857824,-41,-61,-47,-420,639,-8093,1745139211673168279
858016,-55,-59,-52,-412,-3,-8132,1745139211673168279
858208,-340,-48,-89,-393,-2557,-9156,1745139211673168279
858400,-818,-43,-145,-405,-3727,-7796,1745139211673168279
858592,-817,-46,-144,-503,-1184,-8339,1745139211673168279
858784,-796,-18,-102,-887,1155,-7957,1745139211673168279
858976,-714,31,-77,-1038,2331,-7874,1745139211673168279
859168,-611,57,-99,-789,2560,-7899,1745139211673168279
859360,-503,66,-140,-489,2261,-7913,1745139211673168279
859552,-397,75,-161,-384,1818,-7947,1745139211673168279
859744,-310,88,-153,-417,1557,-8007,1745139211673168279
859936,-251,96,-124,-489,1560,-7978,1745139211732726798
860128,-208,101,-97,-558,1604,-7933,1745139211732726798
860320,-173,108,-88,-580,1624,-7918,1745139211732726798
860512,-137,119,-92,-563,1621,-7908,1745139211732726798
860704,-99,128,-95,-493,1538,-7941,1745139211732726798
860896,-62,128,-91,-366,1442,-7963,1745139211732726798
861088,-27,123,-79,-323,1364,-7980,1745139211732726798
861280,4,115,-65,-335,1240,-7979,1745139211732726798
861472,25,110,-55,-391,1069,-8022,1745139211732726798
861664,32,112,-52,-436,939,-8037,1745139211732726798
861856,33,118,-53,-456,871,-8050,1745139211732726798
862048,28,125,-57,-447,805,-8083,1745139211732726798
862240,18,126,-60,-354,758,-8095,1745139211788678005
862432,2,120,-63,-192,741,-8114,1745139211788678005
862624,-14,105,-64,-51,783,-8121,1745139211788678005
862816,-23,82,-63,59,889,-8129,1745139211788678005
863008,-21,51,-55,115,1030,-8117,1745139211788678005
863200,-12,14,-45,165,1116,-8113,1745139211788678005
863392,2,-29,-37,154,1179,-8081,1745139211788678005
863584,21,-68,-32,54,1210,-8055,1745139211788678005
863776,41,-98,-28,-121,1232,-8004,1745139211788678005
863968,63,-120,-24,-236,1204,-7983,1745139211788678005
864160,76,-138,-20,-268,1035,-7981,1745139211788678005
864352,77,-152,-18,-287,890,-7962,1745139211788678005
864544,74,-161,-15,-327,874,-7979,1745139211848508188
864736,73,-162,-11,-404,895,-7999,1745139211848508188
864928,70,-157,-9,-492,895,-8021,1745139211848508188
865120,67,-148,-6,-577,923,-8025,1745139211848508188
865312,71,-128,-5,-698,1008,-7964,1745139211848508188
865504,88,-103,1,-776,1157,-7894,1745139211848508188
865696,111,-76,9,-812,1214,-7838,1745139211848508188
865888,152,-66,30,-1075,1369,-7390,1745139211848508188
866080,267,-117,98,-688,964,-7465,1745139211848508188
866272,351,-80,79,-229,979,-8660,1745139211848508188
866464,291,-25,40,-286,616,-7494,1745139211848508188
866656,364,-52,41,-327,766,-7828,1745139211848508188
