timestamp,gyr_x,gyr_y,gyr_z,acc_x,acc_y,acc_z,pkt_time_ns
145505,70,-26,153,2465,216,-7328,1745226069061236683
145697,-179,-13,127,3011,456,-7822,1745226069061236683
145889,-205,-31,120,2906,744,-7771,1745226069061236683
146081,-209,-16,134,2675,785,-8081,1745226069061236683
146273,-178,-36,142,2557,799,-8133,1745226069061236683
146465,-172,-49,140,2804,732,-8048,1745226069061236683
146657,-139,-80,138,2908,720,-7713,1745226069061236683
146849,-109,-90,167,2710,795,-7538,1745226069061236683
147041,-79,-76,192,2428,1043,-7579,1745226069061236683
147233,-25,-49,198,2429,1155,-7794,1745226069061236683
147425,30,-32,182,2610,1145,-7965,1745226069061236683
147617,78,-15,156,2657,904,-8000,1745226069061236683
147809,103,7,158,2601,761,-8301,1745226069114229741
148001,118,28,171,2485,1048,-8737,1745226069114229741
148193,161,47,180,2284,1056,-8977,1745226069114229741
148385,226,64,180,2408,834,-8792,1745226069114229741
148577,291,84,157,2097,308,-7984,1745226069114229741
148769,327,179,142,2651,625,-8771,1745226069114229741
148961,382,185,148,2434,821,-7680,1745226069114229741
149153,404,246,163,2477,726,-7335,1745226069114229741
149345,443,209,150,2987,212,-7235,1745226069114229741
149537,395,267,99,1688,-2349,-6888,1745226069114229741
149729,119,389,59,3381,-3025,-6202,1745226069114229741
149921,-61,241,62,4462,-730,-6355,1745226069114229741
150113,-163,249,88,3795,1194,-6970,1745226069181269128
150305,-129,198,82,3136,2179,-7311,1745226069181269128
150497,-4,119,31,3040,2292,-7733,1745226069181269128
150689,84,89,20,2512,1723,-7806,1745226069181269128
150881,91,103,73,2071,1030,-7932,1745226069181269128
151073,94,109,112,1941,612,-7851,1745226069181269128
151265,121,127,126,2489,328,-7550,1745226069181269128
151457,158,99,102,3301,373,-7578,1745226069181269128
151649,173,81,79,2813,558,-7561,1745226069181269128
151841,139,114,91,2077,897,-7571,1745226069181269128
152033,117,125,74,2291,1413,-7969,1745226069181269128
152225,164,124,44,2772,1493,-7712,1745226069181269128
152417,233,101,35,3533,781,-8392,1745226069231285859
152609,157,-39,106,2849,-1138,-9095,1745226069231285859
152801,-40,-10,276,1925,-1825,-6570,1745226069231285859
152993,-56,53,222,2716,-225,-8135,1745226069231285859
153185,-47,55,59,2082,1344,-7761,1745226069231285859
153377,-4,111,67,2676,1636,-7683,1745226069231285859
153569,150,84,62,3212,1618,-7474,1745226069231285859
153761,267,80,27,2862,1195,-7373,1745226069231285859
153953,295,101,19,2542,629,-7640,1745226069231285859
154145,290,91,8,2662,343,-7912,1745226069231285859
154337,300,97,18,2713,29,-7743,1745226069231285859
154529,311,114,37,2790,-270,-7701,1745226069231285859
154721,296,106,27,2776,-103,-7720,1745226069290231050
154913,261,107,15,2652,315,-7420,1745226069290231050
155105,234,112,3,2893,715,-7504,1745226069290231050
155297,240,92,-8,3085,977,-7470,1745226069290231050
155489,258,81,-9,3026,869,-7575,1745226069290231050
155681,263,71,0,2847,479,-7509,1745226069290231050
155873,256,70,9,3032,96,-7384,1745226069290231050
156065,251,60,0,3606,-53,-6939,1745226069290231050
156257,254,28,-31,4270,137,-6842,1745226069290231050
156449,256,-4,-39,4025,531,-6793,1745226069290231050
156641,214,-19,-15,3414,710,-6893,1745226069290231050
156833,172,-19,25,3175,673,-6656,1745226069290231050
157025,167,-9,53,3474,488,-6498,1745226069349966910
157217,180,4,72,3733,355,-6421,1745226069349966910
157409,176,20,99,3572,433,-6612,1745226069349966910
157601,142,18,115,3222,867,-7120,1745226069349966910
157793,103,-10,121,2885,1415,-7675,1745226069349966910
157985,98,-39,138,2654,1580,-8114,1745226069349966910
158177,137,-51,157,2564,1346,-8176,1745226069349966910
158369,190,-38,163,2650,952,-7924,1745226069349966910
158561,217,-32,146,2967,785,-8146,1745226069349966910
158753,211,-46,130,3078,916,-8257,1745226069349966910
158945,197,-62,122,3034,980,-8363,1745226069349966910
159137,201,-78,118,3023,809,-8249,1745226069349966910
159329,237,-95,102,3099,472,-7953,1745226069407356959
159521,274,-98,82,3147,23,-7712,1745226069407356959
159713,270,-96,70,2907,-296,-7466,1745226069407356959
159905,235,-66,75,2872,-413,-7176,1745226069407356959
160097,207,-31,71,3168,-306,-6897,1745226069407356959
160289,194,-6,58,3385,-164,-6952,1745226069407356959
160481,178,11,55,3393,51,-7149,1745226069407356959
160673,164,16,50,3413,349,-7566,1745226069407356959
160865,166,35,54,3213,385,-7448,1745226069407356959
161057,168,22,53,2812,-65,-7637,1745226069407356959
161249,183,33,47,2774,-477,-7536,1745226069407356959
161441,180,30,40,2941,-708,-7461,1745226069407356959
161633,157,18,31,3094,-778,-7601,1745226069465208774
161825,124,3,28,3023,-574,-7718,1745226069465208774
162017,94,12,23,3000,-352,-7774,1745226069465208774
162209,80,15,12,3224,-214,-7774,1745226069465208774
162401,88,29,10,3343,-294,-7648,1745226069465208774
162593,74,44,11,3514,-335,-7678,1745226069465208774
162785,48,60,13,3580,-146,-7705,1745226069465208774
162977,21,78,13,3462,85,-7730,1745226069465208774
163169,10,109,14,3403,179,-7941,1745226069465208774
163361,27,135,14,3334,121,-7842,1745226069465208774
163553,45,161,9,3440,-56,-7971,1745226069465208774
163745,43,175,2,3162,-48,-8013,1745226069465208774
163937,21,203,3,2512,-115,-8140,1745226069523408972
164129,1,233,-11,2453,-104,-8043,1745226069523408972
164321,11,261,-47,2962,103,-7922,1745226069523408972
164513,32,259,-87,3397,390,-8023,1745226069523408972
164705,45,251,-116,3077,440,-8182,1745226069523408972
164897,43,256,-125,2691,63,-8372,1745226069523408972
165089,63,295,-134,2926,-246,-8129,1745226069523408972
165281,99,328,-166,3624,-322,-7951,1745226069523408972
165473,109,330,-197,3961,-305,-7806,1745226069523408972
165665,83,328,-195,3352,-431,-7922,1745226069523408972
165857,45,365,-174,2800,-391,-8137,1745226069523408972
166049,21,409,-189,2881,92,-8230,1745226069523408972
166241,38,446,-219,3526,811,-7738,1745226069588391503
166433,79,447,-251,3802,1088,-7810,1745226069588391503
166625,104,440,-240,3024,813,-7803,1745226069588391503
166817,93,466,-214,2613,462,-7923,1745226069588391503
167009,98,487,-214,2978,443,-7605,1745226069588391503
167201,123,488,-235,3854,492,-7492,1745226069588391503
167393,144,466,-243,3610,326,-7607,1745226069588391503
167585,118,501,-211,2723,5,-8280,1745226069588391503
167777,83,547,-196,2517,172,-8477,1745226069588391503
167969,95,586,-220,3320,674,-8277,1745226069588391503
168161,149,584,-243,4292,1012,-8195,1745226069588391503
168353,201,545,-245,4083,995,-8762,1745226069588391503
168545,211,490,-244,4159,1007,-11063,1745226069640716181
168737,181,296,-334,3507,1999,-13877,1745226069640716181
168929,135,217,-438,664,3857,-14036,1745226069640716181
169121,158,380,-475,-1350,5225,-11533,1745226069640716181
169313,366,635,-469,-316,5099,-7445,1745226069640716181
169505,689,857,-426,2766,3018,-5322,1745226069640716181
169697,959,951,-297,5482,-128,-4792,1745226069640716181
169889,1089,971,-103,6377,-2830,-4454,1745226069640716181
170081,1085,1028,52,5737,-4377,-4274,1745226069640716181
170273,1011,1150,112,4773,-4859,-4422,1745226069640716181
170465,947,1296,88,4558,-4459,-5071,1745226069640716181
170657,914,1397,23,5108,-3266,-5983,1745226069640716181
170849,898,1446,-44,5589,-1612,-6542,1745226069700370636
171041,928,1455,-113,5633,57,-6838,1745226069700370636
171233,999,1419,-151,5247,1117,-7569,1745226069700370636
171425,1093,1366,-141,4652,1413,-8172,1745226069700370636
171617,1233,1298,-109,4384,1111,-8313,1745226069700370636
171809,1385,1218,-85,4460,593,-8294,1745226069700370636
172001,1536,1136,-63,4299,286,-8207,1745226069700370636
172193,1715,1101,-50,3875,320,-8185,1745226069700370636
172385,1829,1091,-61,3446,504,-8307,1745226069700370636
172577,1882,1091,-109,3279,708,-8134,1745226069700370636
172769,1948,1099,-173,3479,745,-7638,1745226069700370636
172961,2011,1101,-202,3980,412,-7071,1745226069700370636
173153,2048,1091,-198,4330,-192,-6481,1745226069757628759
173345,2103,1119,-187,4178,-522,-5798,1745226069757628759
173537,2178,1161,-182,4043,-940,-5267,1745226069757628759
173729,2257,1134,-196,4478,-1593,-4531,1745226069757628759
173921,2306,1015,-233,5163,-2412,-3843,1745226069757628759
174113,2291,855,-284,5547,-3016,-3150,1745226069757628759
174305,2161,699,-361,5504,-3423,-3007,1745226069757628759
174497,1926,557,-442,5086,-3604,-3231,1745226069757628759
174689,1691,496,-501,4245,-3239,-3545,1745226069757628759
174881,1508,468,-549,3731,-2848,-2481,1745226069757628759
175073,1186,324,-576,4040,-2922,-2416,1745226069757628759
175265,712,107,-545,4876,-3405,-2749,1745226069757628759
175457,344,-103,-454,5545,-3486,-2581,1745226069820341155
175649,127,-285,-376,5770,-2970,-2361,1745226069820341155
175841,-92,-465,-360,5727,-2472,-2134,1745226069820341155
176033,-377,-651,-376,5585,-2278,-2055,1745226069820341155
176225,-697,-839,-347,5541,-2451,-1927,1745226069820341155
176417,-1008,-1005,-266,5536,-2589,-2125,1745226069820341155
176609,-1313,-1133,-175,5532,-2748,-2741,1745226069820341155
176801,-1622,-1230,-119,5289,-2728,-3501,1745226069820341155
176993,-1885,-1276,-78,4691,-2461,-4097,1745226069820341155
177185,-2065,-1281,-45,3999,-2010,-4630,1745226069820341155
177377,-2142,-1283,-36,3752,-1507,-5475,1745226069820341155
177569,-2120,-1300,-43,3794,-1027,-6239,1745226069820341155
177761,-2015,-1326,-48,4116,-697,-7055,1745226069873861708
177953,-1854,-1342,-49,4467,-418,-8010,1745226069873861708
178145,-1689,-1301,-45,4486,-205,-9035,1745226069873861708
178337,-1515,-1195,-17,4026,131,-9967,1745226069873861708
178529,-1328,-1046,35,3405,411,-10873,1745226069873861708
178721,-1127,-842,82,2923,643,-11712,1745226069873861708
178913,-938,-619,88,2583,722,-12156,1745226069873861708
179105,-757,-418,71,2462,536,-12288,1745226069873861708
179297,-584,-231,68,2763,10,-12033,1745226069873861708
179489,-463,-73,75,3278,-689,-11595,1745226069873861708
179681,-390,80,65,3570,-1264,-10827,1745226069873861708
179873,-334,222,18,3661,-1456,-10288,1745226069873861708
180065,-326,340,-73,3591,-1192,-9902,1745226069932879346
180257,-381,442,-177,3555,-710,-9659,1745226069932879346
180449,-464,531,-271,3513,-139,-9189,1745226069932879346
180641,-533,598,-328,3575,337,-8379,1745226069932879346
180833,-558,663,-405,3541,1302,-7885,1745226069932879346
181025,-617,746,-584,3534,2179,-7404,1745226069932879346
181217,-627,716,-579,4304,1929,-6631,1745226069932879346
181409,-506,552,-380,5569,896,-6316,1745226069932879346
181601,-421,338,-167,6389,-496,-6314,1745226069932879346
181793,-438,158,-9,6401,-1517,-6582,1745226069932879346
181985,-540,67,5,5363,-1513,-6792,1745226069932879346
182177,-730,22,-106,4030,-957,-6764,1745226069932879346
182369,-933,-6,-197,3157,-423,-6431,1745226069999217438
182561,-1117,-20,-267,2814,227,-6363,1745226069999217438
182753,-1287,-22,-308,2885,997,-6347,1745226069999217438
182945,-1428,-25,-317,3214,1661,-6115,1745226069999217438
183137,-1517,-49,-301,3645,2098,-5722,1745226069999217438
183329,-1534,-100,-266,3953,2488,-5203,1745226069999217438
183521,-1485,-152,-249,3974,2952,-4662,1745226069999217438
183713,-1380,-203,-253,3906,3256,-4293,1745226069999217438
183905,-1199,-256,-260,3880,3301,-3883,1745226069999217438
184097,-961,-324,-263,3955,3078,-3374,1745226069999217438
184289,-706,-400,-260,4083,2578,-2900,1745226069999217438
184481,-449,-483,-245,4208,1808,-2504,1745226069999217438
184673,-190,-545,-217,4126,933,-2259,1745226070049131357
184865,68,-591,-158,3985,-48,-2078,1745226070049131357
185057,325,-622,-57,3905,-1135,-1873,1745226070049131357
185249,588,-662,89,3932,-2297,-1634,1745226070049131357
185441,850,-708,260,3937,-3477,-1442,1745226070049131357
185633,1097,-753,460,4026,-4753,-1448,1745226070049131357
185825,1275,-813,644,4162,-5805,-1835,1745226070049131357
186017,1296,-873,699,4076,-6192,-2906,1745226070049131357
186209,1104,-907,592,3796,-5826,-4212,1745226070049131357
186401,794,-941,428,3724,-4950,-5494,1745226070049131357
186593,517,-1013,340,4533,-4004,-7231,1745226070049131357
186785,268,-1238,378,6017,-3396,-9265,1745226070049131357
186977,72,-1599,507,7614,-2463,-9468,1745226070108948310
187169,-80,-2041,553,8172,-1977,-9231,1745226070108948310
187361,-229,-2279,563,5382,-1322,-6729,1745226070108948310
187553,-428,-2049,577,3927,-551,-10170,1745226070108948310
187745,-649,-2214,528,3417,80,-10538,1745226070108948310
187937,-692,-2240,504,2140,271,-10959,1745226070108948310
188129,-779,-2038,597,426,248,-11255,1745226070108948310
188321,-894,-1721,719,-392,83,-11505,1745226070108948310
188513,-928,-1447,839,157,163,-11570,1745226070108948310
188705,-867,-1214,930,1696,1134,-11174,1745226070108948310
188897,-762,-1070,938,2425,2314,-10200,1745226070108948310
189089,-625,-903,906,2223,2934,-8674,1745226070108948310
189281,-471,-751,840,2449,2647,-8100,1745226070169173489
189473,-274,-658,720,2822,2128,-8874,1745226070169173489
189665,-57,-579,574,2930,2203,-9737,1745226070169173489
189857,141,-499,408,2399,2502,-9998,1745226070169173489
190049,293,-388,289,1779,2127,-9884,1745226070169173489
190241,394,-274,234,1931,1083,-9899,1745226070169173489
190433,462,-198,210,2400,71,-10365,1745226070169173489
190625,487,-142,213,2321,-743,-10082,1745226070169173489
190817,438,-78,221,2440,-1439,-9042,1745226070169173489
191009,306,-38,211,2995,-1668,-8361,1745226070169173489
191201,154,-21,204,3044,-1229,-8277,1745226070169173489
191393,53,8,188,3093,-281,-8436,1745226070169173489
191585,41,23,145,3043,607,-8507,1745226070224775169
191777,110,54,116,2964,808,-8248,1745226070224775169
191969,190,82,87,2865,262,-7749,1745226070224775169
192161,223,106,70,2910,-301,-7239,1745226070224775169
192353,198,119,57,3077,-491,-7180,1745226070224775169
192545,143,109,50,3245,-117,-7200,1745226070224775169
192737,96,87,46,3201,219,-7450,1745226070224775169
192929,98,75,49,3109,240,-7394,1745226070224775169
193121,126,72,50,3120,38,-7063,1745226070224775169
193313,160,81,45,3208,-86,-6869,1745226070224775169
193505,172,73,32,3299,-19,-6758,1745226070224775169
193697,168,54,22,3303,118,-6959,1745226070224775169
193889,149,31,26,3183,138,-7266,1745226070283545882
194081,112,-1,38,3038,91,-7364,1745226070283545882
194273,87,-25,48,3063,-121,-7474,1745226070283545882
194465,72,-53,51,2963,-313,-7290,1745226070283545882
194657,54,-69,55,3074,-389,-7274,1745226070283545882
194849,59,-79,66,3212,-493,-7339,1745226070283545882
195041,63,-96,76,3083,-821,-7234,1745226070283545882
195233,30,-87,97,3192,-1127,-7107,1745226070283545882
195425,-29,-72,125,3412,-913,-6793,1745226070283545882
195617,-74,-71,130,3502,-448,-7016,1745226070283545882
195809,-84,-79,124,3420,88,-7546,1745226070283545882
196001,-72,-78,114,3073,334,-8126,1745226070283545882
196193,-44,-60,100,2866,261,-8390,1745226070340854213
196385,-7,-46,67,2865,10,-8281,1745226070340854213
196577,13,-43,32,2874,-129,-8166,1745226070340854213
196769,3,-44,8,2822,-71,-8134,1745226070340854213
196961,-20,-47,-11,2765,79,-8273,1745226070340854213
197153,-29,-50,-28,2686,156,-8371,1745226070340854213
197345,-27,-51,-41,2631,65,-8292,1745226070340854213
197537,-24,-62,-58,2491,-83,-8042,1745226070340854213
197729,-26,-74,-73,2377,-88,-7949,1745226070340854213
197921,-42,-90,-89,2345,122,-7949,1745226070340854213
198113,-37,-93,-94,2286,162,-7668,1745226070340854213
198305,-9,-78,-101,2536,-121,-7232,1745226070340854213
198497,10,-64,-106,2745,-540,-6689,1745226070413243499
198689,9,-51,-98,3214,-722,-6688,1745226070413243499
198881,0,-60,-83,3234,-664,-6814,1745226070413243499
199073,-20,-67,-61,3208,-573,-7040,1745226070413243499
199265,-45,-74,-42,3208,-378,-7014,1745226070413243499
199457,-76,-74,-22,3103,-252,-7198,1745226070413243499
199649,-89,-72,-3,3156,-91,-7553,1745226070413243499
199841,-80,-80,3,3182,70,-7693,1745226070413243499
200033,-69,-86,2,3143,112,-7821,1745226070413243499
200225,-66,-92,7,3092,27,-7828,1745226070413243499
200417,-67,-93,13,3004,-120,-7799,1745226070413243499
200609,-81,-91,16,2767,-249,-7865,1745226070413243499
200801,-92,-90,25,2814,-262,-7927,1745226070457769342
200993,-93,-98,8,2816,-1,-7814,1745226070457769342
201185,-125,-109,-7,2308,223,-7876,1745226070457769342
201377,-154,-106,-18,2613,604,-8174,1745226070457769342
201569,-133,-117,-39,2788,1076,-8431,1745226070457769342
201761,-64,-112,-57,2332,788,-8261,1745226070457769342
201953,-25,-89,-81,2390,95,-7642,1745226070457769342
202145,-31,-71,-96,2669,-360,-7139,1745226070457769342
202337,-59,-68,-102,2877,-146,-7448,1745226070457769342
202529,-66,-83,-110,2813,339,-7774,1745226070457769342
202721,-51,-96,-115,2805,500,-7959,1745226070457769342
202913,-27,-104,-116,2964,343,-7853,1745226070457769342
203105,-18,-118,-114,3055,203,-7683,1745226070518426757
203297,-21,-127,-111,2889,239,-7732,1745226070518426757
203489,-33,-135,-111,2760,494,-7932,1745226070518426757
203681,-34,-140,-119,2743,852,-8049,1745226070518426757
203873,-17,-139,-125,2438,967,-8021,1745226070518426757
204065,-2,-119,-126,2002,707,-7957,1745226070518426757
204257,30,-61,-113,1413,130,-6789,1745226070518426757
204449,92,24,-91,2437,-899,-7729,1745226070518426757
204641,182,35,-105,2405,-815,-6699,1745226070518426757
204833,173,77,-105,2393,-1029,-7337,1745226070518426757
205025,194,126,-76,3151,-1072,-7616,1745226070518426757
205217,163,89,-82,3326,-725,-7750,1745226070518426757
205409,154,102,-75,3322,-132,-8400,1745226070574672129
205601,133,84,-86,3343,453,-8128,1745226070574672129
205793,124,68,-92,2617,379,-8223,1745226070574672129
205985,122,89,-89,2567,352,-8563,1745226070574672129
206177,137,79,-92,2073,191,-8300,1745226070574672129
206369,168,103,-93,2316,-82,-8534,1745226070574672129
206561,214,99,-89,2245,-469,-7899,1745226070574672129
206753,227,114,-93,2602,-846,-7587,1745226070574672129
206945,211,113,-102,2816,-841,-7357,1745226070574672129
207137,188,121,-101,2878,-718,-7271,1745226070574672129
207329,187,141,-96,2897,-667,-7041,1745226070574672129
207521,188,168,-98,3088,-601,-6749,1745226070574672129
207713,178,197,-95,3007,-553,-6623,1745226070634793350
207905,156,229,-78,3015,-426,-6716,1745226070634793350
208097,138,243,-65,3131,-278,-7105,1745226070634793350
208289,146,246,-43,3117,-291,-7397,1745226070634793350
208481,173,248,-20,3238,-628,-7390,1745226070634793350
208673,176,239,-5,3173,-1071,-7095,1745226070634793350
208865,132,232,4,3108,-1303,-7007,1745226070634793350
209057,64,215,15,3008,-1226,-7179,1745226070634793350
209249,10,193,25,3062,-911,-7337,1745226070634793350
209441,-21,168,27,3103,-598,-7420,1745226070634793350
209633,-40,135,30,3050,-404,-7645,1745226070634793350
209825,-51,105,42,2817,-313,-7914,1745226070634793350
210017,-60,86,49,2634,-246,-7808,1745226070691492260
210209,-78,76,44,2641,-169,-7780,1745226070691492260
210401,-89,64,36,2725,-48,-7627,1745226070691492260
210593,-92,54,28,2787,6,-7488,1745226070691492260
210785,-77,39,21,2840,-48,-7444,1745226070691492260
210977,-55,23,17,2832,-120,-7690,1745226070691492260
211169,-42,14,15,2595,-170,-7854,1745226070691492260
211361,-43,18,23,2413,-247,-7915,1745226070691492260
211553,-50,24,37,2384,-364,-7684,1745226070691492260
211745,-55,38,49,2493,-563,-7503,1745226070691492260
211937,-57,53,58,2657,-683,-7440,1745226070691492260
212129,-61,63,62,2730,-716,-7508,1745226070691492260
212321,-67,73,70,2666,-744,-7632,1745226070750056047
212513,-78,86,84,2694,-788,-7762,1745226070750056047
212705,-90,105,98,2648,-840,-7728,1745226070750056047
212897,-106,124,106,2632,-850,-7705,1745226070750056047
213089,-124,137,110,2671,-838,-7653,1745226070750056047
213281,-136,150,109,2768,-850,-7593,1745226070750056047
213473,-145,152,103,2791,-886,-7493,1745226070750056047
213665,-154,150,95,2886,-879,-7586,1745226070750056047
213857,-156,143,88,2835,-795,-7689,1745226070750056047
214049,-156,134,78,2744,-672,-7828,1745226070750056047
214241,-161,122,62,2613,-607,-7836,1745226070750056047
214433,-169,116,51,2583,-515,-7839,1745226070750056047
214625,-179,111,47,2530,-434,-7786,1745226070816379869
214817,-185,112,48,2562,-338,-7821,1745226070816379869
215009,-182,117,53,2602,-235,-7784,1745226070816379869
215201,-177,114,51,2672,-153,-7917,1745226070816379869
215393,-175,103,48,2682,-90,-7936,1745226070816379869
215585,-176,92,45,2625,-121,-8056,1745226070816379869
215777,-174,95,53,2622,-98,-7804,1745226070816379869
215969,-178,92,66,2773,-206,-7683,1745226070816379869
216161,-178,86,69,2791,-280,-7540,1745226070816379869
216353,-189,85,67,2693,-354,-7458,1745226070816379869
216545,-210,90,73,2677,-416,-7366,1745226070816379869
216737,-235,92,76,2760,-406,-7380,1745226070816379869
216929,-263,83,73,2826,-320,-7457,1745226070866493734
217121,-291,67,66,2924,-111,-7681,1745226070866493734
217313,-313,36,60,2958,128,-7706,1745226070866493734
217505,-317,-5,51,2958,294,-7809,1745226070866493734
217697,-301,-21,52,2929,494,-7490,1745226070866493734
217889,-287,-42,58,2942,489,-7328,1745226070866493734
218081,-259,-65,66,2935,383,-7234,1745226070866493734
218273,-226,-80,76,2959,201,-7197,1745226070866493734
218465,-202,-96,76,2939,15,-7163,1745226070866493734
218657,-195,-110,74,2955,-109,-7311,1745226070866493734
218849,-202,-121,83,2958,-115,-7309,1745226070866493734
219041,-215,-121,97,2876,-41,-7415,1745226070866493734
219233,-220,-124,115,2789,55,-7524,1745226070925019710
219425,-196,-108,126,2831,228,-7352,1745226070925019710
219617,-164,-98,115,2874,340,-7283,1745226070925019710
219809,-145,-100,96,2869,362,-7359,1745226070925019710
220001,-119,-99,89,2784,372,-7417,1745226070925019710
220193,-88,-97,83,2757,365,-7737,1745226070925019710
220385,-50,-103,73,2670,322,-7819,1745226070925019710
220577,-19,-101,57,2607,149,-7783,1745226070925019710
220769,-6,-112,42,2602,-76,-7763,1745226070925019710
220961,-6,-115,35,2603,-273,-7564,1745226070925019710
221153,-18,-118,32,2614,-444,-7545,1745226070925019710
221345,-34,-129,29,2704,-559,-7511,1745226070925019710
221537,-50,-134,25,2699,-669,-7321,1745226070985265618
221729,-72,-135,21,2721,-761,-7212,1745226070985265618
221921,-99,-134,20,2701,-741,-7175,1745226070985265618
222113,-130,-130,18,2730,-569,-7381,1745226070985265618
222305,-148,-143,11,2726,-317,-7657,1745226070985265618
222497,-149,-151,2,2691,-113,-7714,1745226070985265618
222689,-145,-158,-3,2649,-77,-7654,1745226070985265618
222881,-134,-140,2,2589,-146,-7436,1745226070985265618
223073,-134,-114,5,2541,-188,-7620,1745226070985265618
223265,-127,-92,3,2547,-78,-7887,1745226070985265618
223457,-100,-74,-5,2476,0,-7999,1745226070985265618
223649,-68,-45,-9,2372,-179,-7950,1745226070985265618
223841,-50,-10,-5,2341,-498,-7803,1745226071041771612
224033,-54,14,-10,2514,-722,-7972,1745226071041771612
224225,-49,21,-24,2665,-699,-8094,1745226071041771612
224417,-39,27,-45,2493,-562,-7910,1745226071041771612
224609,-43,37,-60,2405,-505,-7734,1745226071041771612
224801,-45,54,-64,2468,-479,-7581,1745226071041771612
224993,-42,64,-65,2652,-383,-7800,1745226071041771612
225185,-26,62,-70,2880,-77,-7928,1745226071041771612
225377,-14,49,-79,2885,340,-7885,1745226071041771612
225569,-20,42,-72,2825,707,-7929,1745226071041771612
225761,-20,43,-49,2840,1022,-7982,1745226071041771612
225953,-1,52,-34,2887,1301,-8115,1745226071041771612
226145,39,52,-31,2951,1401,-8284,1745226071102218039
226337,96,61,-31,2954,1258,-8136,1745226071102218039
226529,128,74,-30,2759,861,-8039,1745226071102218039
226721,126,88,-15,2599,433,-8146,1745226071102218039
226913,120,95,6,2511,298,-8370,1745226071102218039
227105,122,105,19,2403,317,-8237,1745226071102218039
227297,118,119,29,2401,241,-8027,1745226071102218039
227489,110,138,44,2426,169,-7773,1745226071102218039
227681,104,155,58,2491,177,-7658,1745226071102218039
227873,102,166,60,2680,314,-7297,1745226071102218039
228065,102,165,48,2935,617,-7316,1745226071102218039
228257,116,161,37,2986,882,-7616,1745226071102218039
228449,153,160,35,2910,984,-7855,1745226071158758408
228641,205,164,34,2792,685,-7976,1745226071158758408
228833,250,167,42,2737,200,-7630,1745226071158758408
229025,257,165,44,2946,-226,-7268,1745226071158758408
229217,224,143,42,3098,-326,-7273,1745226071158758408
229409,178,109,48,3046,-158,-7488,1745226071158758408
229601,152,82,60,3043,72,-7752,1745226071158758408
229793,165,67,68,2953,97,-7763,1745226071158758408
229985,194,70,73,2906,-122,-7495,1745226071158758408
230177,213,78,68,3058,-418,-7160,1745226071158758408
230369,214,79,58,3244,-492,-7295,1745226071158758408
230561,209,71,50,3243,-374,-7643,1745226071158758408
230753,206,60,49,3155,-330,-7951,1745226071226531330
230945,203,57,53,3193,-412,-7663,1745226071226531330
231137,180,58,53,3350,-480,-7396,1745226071226531330
231329,145,55,58,3305,-300,-7261,1745226071226531330
231521,109,47,55,3299,125,-7617,1745226071226531330
231713,101,35,48,3233,463,-7829,1745226071226531330
231905,110,23,34,3405,457,-7761,1745226071226531330
232097,112,10,14,3618,341,-7538,1745226071226531330
232289,93,-5,-2,3639,518,-7513,1745226071226531330
232481,60,-23,-21,3639,920,-7594,1745226071226531330
232673,49,-41,-40,3554,1167,-7836,1745226071226531330
232865,55,-55,-53,3351,1058,-7849,1745226071226531330
233057,49,-65,-64,3321,833,-7629,1745226071276558009
233249,26,-68,-72,3357,870,-7483,1745226071276558009
233441,4,-69,-84,3215,1150,-7518,1745226071276558009
233633,-1,-70,-99,3118,1284,-7775,1745226071276558009
233825,20,-64,-110,3136,1090,-7865,1745226071276558009
234017,46,-60,-117,3060,728,-7923,1745226071276558009
234209,53,-56,-125,2969,484,-8036,1745226071276558009
234401,56,-55,-118,2848,200,-7910,1745226071276558009
234593,62,-39,-106,2888,-98,-7476,1745226071276558009
234785,53,-28,-97,2834,-356,-7341,1745226071276558009
234977,65,-22,-65,2549,-672,-7354,1745226071276558009
235169,64,-22,-51,2618,-907,-7406,1745226071276558009
235361,47,-39,-39,2815,-827,-7321,1745226071334137795
235553,20,-55,-33,2978,-387,-7548,1745226071334137795
235745,11,-68,-23,2809,73,-7639,1745226071334137795
235937,53,-63,-6,2912,-108,-7441,1745226071334137795
236129,126,-56,13,3045,-956,-7329,1745226071334137795
236321,156,-50,38,2847,-1664,-7267,1745226071334137795
236513,116,-44,68,2665,-1827,-7191,1745226071334137795
236705,74,-45,100,3133,-1486,-6966,1745226071334137795
236897,75,-42,106,3530,-1101,-6853,1745226071334137795
237089,73,-53,113,3106,-683,-7388,1745226071334137795
237281,65,-33,141,2824,-292,-7320,1745226071334137795
237473,90,-20,155,2981,-235,-7256,1745226071334137795
237665,123,-6,146,2831,-239,-7298,1745226071394332610
237857,118,-1,136,2430,-210,-7319,1745226071394332610
238049,84,-6,118,2780,-64,-7598,1745226071394332610
238241,85,-28,90,2925,167,-7954,1745226071394332610
238433,97,-51,59,2544,306,-8173,1745226071394332610
238625,88,-63,34,2455,284,-8067,1745226071394332610
238817,82,-74,16,2807,18,-7609,1745226071394332610
239009,57,-118,-13,2787,-168,-10127,1745226071394332610
239201,-36,-236,-42,1471,726,-9374,1745226071394332610
239393,-29,-186,-51,2521,924,-7060,1745226071394332610
239585,69,-167,-88,3314,0,-6575,1745226071394332610
239777,138,-107,-69,2235,-1140,-6977,1745226071394332610
239969,113,-67,-71,3178,-1367,-7541,1745226071451889845
240161,80,-73,-82,2490,-1634,-6643,1745226071451889845
240353,163,56,65,2973,-2738,-6827,1745226071451889845
240545,61,28,29,3574,-2556,-6688,1745226071451889845
240737,-47,52,12,2699,-562,-8240,1745226071451889845
240929,-159,28,13,2807,1135,-8426,1745226071451889845
241121,11,35,67,2573,842,-9052,1745226071451889845
241313,200,71,75,2408,-1194,-8363,1745226071451889845
241505,224,78,78,2111,-2455,-7282,1745226071451889845
241697,78,129,59,2497,-2137,-6627,1745226071451889845
241889,-38,104,38,2830,-889,-7416,1745226071451889845
242081,-68,56,-4,3006,462,-8188,1745226071451889845
242273,-40,-24,-55,2960,1069,-8446,1745226071516458057
242465,5,-60,-64,2438,988,-8082,1745226071516458057
242657,-8,-76,-66,2336,819,-7960,1745226071516458057
242849,-64,-81,-108,2402,1338,-7526,1745226071516458057
243041,-59,-78,-119,2699,1575,-7885,1745226071516458057
243233,16,-82,-125,2917,1174,-8113,1745226071516458057
243425,75,-100,-143,2979,332,-8152,1745226071516458057
243617,91,-99,-118,2713,-516,-8074,1745226071516458057
243809,55,-81,-90,3007,-810,-7356,1745226071516458057
244001,11,-54,-89,2995,-673,-6966,1745226071516458057
244193,4,-9,-47,2981,-572,-7388,1745226071516458057
244385,23,24,-25,3040,-662,-7383,1745226071516458057
244577,60,53,-17,3181,-1125,-7321,1745226071572929312
244769,66,59,-6,3164,-1461,-7119,1745226071572929312
244961,8,60,-13,3055,-1255,-6976,1745226071572929312
245153,-32,56,-4,2880,-855,-7432,1745226071572929312
245345,-40,49,-8,3107,-573,-7616,1745226071572929312
245537,-6,32,-18,3211,-551,-7705,1745226071572929312
245729,5,16,-27,3308,-505,-7457,1745226071572929312
245921,-35,-4,-39,2948,-181,-7381,1745226071572929312
246113,-64,6,-14,2552,130,-7554,1745226071572929312
246305,-50,15,-7,2901,76,-7658,1745226071572929312
246497,13,11,-22,3265,-302,-7458,1745226071572929312
246689,41,1,-36,3464,-691,-7151,1745226071572929312
246881,-20,-12,-35,3160,-626,-6841,1745226071640318227
247073,-97,3,6,2907,-325,-6917,1745226071640318227
247265,-120,24,36,3270,-21,-6872,1745226071640318227
247457,-71,34,34,3586,-11,-7205,1745226071640318227
247649,-36,24,27,3160,-19,-7627,1745226071640318227
247841,-67,30,38,2768,120,-7537,1745226071640318227
248033,-108,36,49,2793,240,-7707,1745226071640318227
248225,-101,42,55,2936,233,-7805,1745226071640318227
248417,-57,42,37,3159,21,-7739,1745226071640318227
248609,-33,28,13,2973,-270,-7777,1745226071640318227
248801,-67,27,17,2708,-370,-7641,1745226071640318227
248993,-114,33,26,2784,-295,-7675,1745226071640318227
249185,-125,32,17,2918,-54,-7698,1745226071690854068
249377,-93,42,5,2961,34,-7624,1745226071690854068
249569,-50,48,0,2785,-251,-7560,1745226071690854068
249761,-48,59,1,2716,-516,-7489,1745226071690854068
249953,-83,63,2,2700,-454,-7531,1745226071690854068
250145,-110,69,6,2733,-162,-7691,1745226071690854068
250337,-110,65,5,2796,67,-7680,1745226071690854068
250529,-88,66,-3,2990,71,-7623,1745226071690854068
250721,-71,55,-8,2895,-64,-7652,1745226071690854068
250913,-74,52,-3,2778,-241,-7638,1745226071690854068
251105,-79,48,8,2817,-509,-7656,1745226071690854068
251297,-83,41,14,2805,-814,-7661,1745226071690854068
251489,-107,38,19,2771,-992,-7488,1745226071750143318
251681,-145,37,21,2867,-962,-7343,1745226071750143318
251873,-174,40,16,2884,-640,-7444,1745226071750143318
252065,-181,46,6,2765,-181,-7716,1745226071750143318
252257,-148,59,-4,2692,83,-8061,1745226071750143318
252449,-93,67,-17,2579,45,-8083,1745226071750143318
252641,-53,80,-27,2598,-125,-8148,1745226071750143318
252833,-43,81,-36,2460,-260,-7992,1745226071750143318
253025,-56,83,-46,2460,-310,-7957,1745226071750143318
253217,-72,71,-60,2520,-246,-7782,1745226071750143318
253409,-72,56,-69,2711,-163,-7629,1745226071750143318
253601,-64,39,-74,2896,-184,-7362,1745226071750143318
253793,-67,26,-82,3027,-60,-7350,1745226071806739988
253985,-80,12,-80,2959,170,-7435,1745226071806739988
254177,-83,15,-64,2918,357,-7556,1745226071806739988
254369,-72,15,-56,2945,442,-7524,1745226071806739988
254561,-53,28,-47,3040,267,-7654,1745226071806739988
254753,-76,21,-26,2750,-78,-7846,1745226071806739988
254945,-142,37,19,2810,-542,-7897,1745226071806739988
255137,-124,29,62,3008,-544,-7466,1745226071806739988
255329,-105,39,35,2739,-189,-7699,1745226071806739988
255521,-142,30,12,2576,463,-7499,1745226071806739988
255713,-129,40,18,2967,960,-7739,1745226071806739988
255905,-65,22,6,3009,858,-7582,1745226071806739988
256097,-8,16,10,2968,299,-7380,1745226071866958970
256289,15,14,35,2967,-463,-7153,1745226071866958970
256481,8,13,60,2964,-1049,-6876,1745226071866958970
256673,-27,10,64,3027,-1180,-6957,1745226071866958970
256865,-85,-12,40,3015,-668,-7155,1745226071866958970
257057,-129,-27,18,2870,222,-7499,1745226071866958970
257249,-125,-37,2,2790,963,-7686,1745226071866958970
257441,-63,-38,-7,2689,1019,-7832,1745226071866958970
257633,19,-27,2,2592,285,-7940,1745226071866958970
257825,62,-14,11,2524,-627,-7897,1745226071866958970
258017,58,-7,12,2606,-1136,-7603,1745226071866958970
258209,26,-6,9,2792,-1203,-7492,1745226071866958970
258401,-4,-18,4,2775,-933,-7501,1745226071924515319
258593,-12,-16,-1,2787,-647,-7277,1745226071924515319
258785,8,-20,-3,2785,-633,-7147,1745226071924515319
258977,38,-12,-4,2720,-763,-7365,1745226071924515319
259169,54,-7,-4,2612,-882,-7379,1745226071924515319
259361,60,2,7,2674,-941,-7477,1745226071924515319
259553,46,1,13,2752,-828,-7291,1745226071924515319
259745,31,12,15,2833,-670,-7271,1745226071924515319
259937,27,1,21,2924,-576,-7389,1745226071924515319
260129,25,-1,16,2626,-533,-7387,1745226071924515319
260321,16,2,18,2675,-466,-7744,1745226071924515319
260513,18,1,12,2548,-267,-7907,1745226071924515319
260705,37,8,15,2568,-80,-8306,1745226071981861878
260897,64,10,12,2514,35,-8205,1745226071981861878
261089,92,24,15,2477,-157,-8179,1745226071981861878
261281,109,40,16,2561,-472,-7763,1745226071981861878
261473,105,42,6,2798,-636,-7591,1745226071981861878
261665,113,40,7,2624,-361,-6973,1745226071981861878
261857,97,59,7,2360,-670,-7512,1745226071981861878
262049,67,86,0,3330,-346,-7254,1745226071981861878
262241,142,90,46,2610,36,-7424,1745226071981861878
262433,169,133,62,2576,-418,-7124,1745226071981861878
262625,159,141,51,3332,-544,-7304,1745226071981861878
262817,139,142,56,3415,-331,-7641,1745226071981861878
263009,117,136,57,2992,4,-8045,1745226072047247166
263201,98,128,53,2926,115,-8062,1745226072047247166
263393,95,123,53,2984,15,-8181,1745226072047247166
263585,103,122,60,3015,-97,-7781,1745226072047247166
263777,102,112,44,3201,-15,-7875,1745226072047247166
263969,88,100,29,2912,86,-7851,1745226072047247166
264161,67,106,25,2953,-70,-7797,1745226072047247166
264353,58,114,15,3195,-246,-7413,1745226072047247166
264545,52,119,13,3337,-400,-7077,1745226072047247166
264737,22,123,12,3602,-372,-6920,1745226072047247166
264929,-39,108,3,3439,-136,-7158,1745226072047247166
265121,-95,106,15,3169,24,-7307,1745226072047247166
265697,-136,112,17,2993,-75,-7955,1745226074852092586
373793,-350,-3,87,2529,-425,-7374,1745226074852092586
373985,-476,27,87,3188,-158,-7523,1745226074852092586
374177,-504,48,66,2947,253,-7430,1745226074852092586
374369,-519,40,77,2854,383,-7520,1745226074852092586
374561,-544,0,77,2791,474,-7840,1745226074852092586
374753,-538,8,72,2690,847,-7965,1745226074852092586
374945,-478,-6,51,2382,1076,-8079,1745226074852092586
375137,-411,-28,38,2384,1221,-7875,1745226074852092586
375329,-329,-39,38,2371,1157,-7769,1745226074852092586
375521,-234,-40,46,2028,1086,-7721,1745226074852092586
375713,-156,-18,48,2064,384,-7774,1745226074852092586
375905,-126,-15,26,2434,-278,-7672,1745226074915157270
376097,-123,-21,11,2606,-176,-7502,1745226074915157270
376289,-149,-16,10,2582,103,-7362,1745226074915157270
376481,-192,-17,4,2477,346,-7566,1745226074915157270
376673,-209,-13,2,2350,613,-8071,1745226074915157270
376865,-176,9,-9,2298,673,-8288,1745226074915157270
377057,-113,20,-15,2204,699,-8538,1745226074915157270
377249,-2,38,-1,2125,1115,-8453,1745226074915157270
377441,141,63,14,2064,1568,-8651,1745226074915157270
377633,307,83,34,1970,1699,-8856,1745226074915157270
377825,481,108,40,2004,1434,-8853,1745226074915157270
378017,530,111,8,2016,172,-8431,1745226074915157270
378209,579,118,-7,2678,1603,-8128,1745226074968393398
378401,739,146,0,1551,795,-7621,1745226074968393398
378593,777,189,-35,1235,562,-7898,1745226074968393398
378785,879,413,-55,-308,1770,-8550,1745226074968393398
378977,947,327,-104,4622,-403,-7929,1745226074968393398
379169,842,130,-146,3777,-3767,-6592,1745226074968393398
379361,530,184,24,2890,-5083,-6429,1745226074968393398
379553,234,127,66,2850,-4362,-6666,1745226074968393398
379745,21,82,7,3182,-2678,-6829,1745226074968393398
379937,-78,73,-28,3062,-1082,-6853,1745226074968393398
380129,-87,82,-29,2741,-112,-6926,1745226074968393398
380321,-62,81,-31,2794,366,-7202,1745226074968393398
380513,-3,77,-40,2887,523,-7455,1745226075026469326
380705,64,69,-55,2875,461,-7741,1745226075026469326
380897,110,47,-66,2626,236,-7765,1745226075026469326
381089,122,34,-72,2557,-112,-7915,1745226075026469326
381281,105,11,-79,2459,-372,-7769,1745226075026469326
381473,73,-6,-88,2540,-497,-7769,1745226075026469326
381665,44,-38,-102,2534,-441,-7742,1745226075026469326
381857,32,-53,-111,2422,-146,-7707,1745226075026469326
382049,37,-68,-114,2344,46,-7825,1745226075026469326
382241,63,-73,-123,2563,83,-7719,1745226075026469326
382433,99,-80,-134,2833,-5,-7528,1745226075026469326
382625,118,-88,-141,2890,-12,-7467,1745226075026469326
382817,112,-91,-140,2747,140,-7660,1745226075084923740
383009,101,-90,-131,2594,264,-8075,1745226075084923740
383201,112,-81,-110,2546,244,-8376,1745226075084923740
383393,129,-75,-97,2702,48,-8159,1745226075084923740
383585,127,-81,-99,2811,-28,-8154,1745226075084923740
383777,96,-87,-97,2655,266,-8177,1745226075084923740
383969,74,-88,-91,2569,608,-8289,1745226075084923740
384161,100,-91,-95,2506,627,-8280,1745226075084923740
384353,148,-83,-99,2488,237,-7913,1745226075084923740
384545,174,-67,-101,2773,-101,-7413,1745226075084923740
384737,153,-66,-109,3019,-108,-7262,1745226075084923740
384929,123,-66,-109,3081,310,-7497,1745226075084923740
385121,120,-60,-98,3077,564,-7558,1745226075143889712
385313,135,-57,-96,3333,499,-7691,1745226075143889712
385505,157,-50,-82,3275,269,-7231,1745226075143889712
385697,145,-46,-65,3405,83,-7237,1745226075143889712
385889,115,-36,-41,3254,206,-7195,1745226075143889712
386081,76,-27,-15,3240,317,-7446,1745226075143889712
386273,63,-16,-7,3208,440,-7299,1745226075143889712
386465,61,-11,-9,3279,379,-7611,1745226075143889712
386657,72,-12,-11,3063,237,-7586,1745226075143889712
386849,73,-22,-18,2921,75,-7771,1745226075143889712
387041,71,-34,-21,2681,-43,-7844,1745226075143889712
387233,65,-40,-22,2557,-107,-8005,1745226075143889712
387425,58,-39,-25,2627,-67,-7989,1745226075202696362
387617,56,-48,-41,2578,-18,-8094,1745226075202696362
387809,69,-47,-58,2623,175,-8327,1745226075202696362
388001,83,-48,-69,2466,342,-8441,1745226075202696362
388193,109,-37,-73,2466,256,-8452,1745226075202696362
388385,140,-22,-75,2538,-49,-8086,1745226075202696362
388577,144,-10,-77,2892,-232,-7968,1745226075202696362
388769,143,-1,-70,2891,-108,-7777,1745226075202696362
388961,133,-1,-62,2913,108,-8023,1745226075202696362
389153,139,3,-46,2731,193,-7933,1745226075202696362
389345,147,15,-29,2773,17,-7687,1745226075202696362
389537,141,21,-24,2906,-9,-7636,1745226075202696362
389729,140,33,-9,2916,114,-7485,1745226075261031767
389921,146,28,-7,3000,19,-7765,1745226075261031767
390113,150,19,7,2825,-125,-7679,1745226075261031767
390305,133,13,24,2961,-290,-7227,1745226075261031767
390497,120,18,40,2920,-239,-6834,1745226075261031767
390689,101,15,48,2925,-9,-6836,1745226075261031767
390881,115,25,53,2887,63,-6948,1745226075261031767
391073,141,29,50,3043,-152,-7145,1745226075261031767
391265,163,40,53,2938,-523,-7134,1745226075261031767
391457,156,51,63,3176,-802,-7175,1745226075261031767
391649,146,59,74,3125,-847,-7037,1745226075261031767
391841,133,74,87,3199,-761,-7258,1745226075261031767
392033,118,76,90,3181,-547,-7193,1745226075324237648
392225,106,83,94,3268,-357,-7321,1745226075324237648
392417,98,80,92,3297,-186,-7276,1745226075324237648
392609,102,87,94,3235,-205,-7447,1745226075324237648
392801,101,85,95,3242,-423,-7370,1745226075324237648
392993,97,86,100,3191,-800,-7429,1745226075324237648
393185,63,76,106,3096,-1059,-7262,1745226075324237648
393377,14,68,113,3034,-1046,-7092,1745226075324237648
393569,-36,54,109,3029,-752,-6892,1745226075324237648
393761,-70,40,98,2950,-304,-7077,1745226075324237648
393953,-81,24,86,2876,89,-7319,1745226075324237648
394145,-60,14,70,2954,104,-7636,1745226075324237648
394337,-41,4,57,2790,-13,-7821,1745226075377158310
394529,-54,2,49,2719,-36,-7698,1745226075377158310
394721,-70,6,39,2939,-12,-7645,1745226075377158310
394913,-62,9,26,3056,0,-7545,1745226075377158310
395105,-63,9,14,3061,91,-7892,1745226075377158310
395297,-72,6,5,2939,243,-7842,1745226075377158310
395489,-71,19,1,2886,168,-7878,1745226075377158310
395681,-56,40,7,2980,-157,-7801,1745226075377158310
395873,-37,46,3,3213,-491,-7669,1745226075377158310
396065,-28,59,2,3166,-685,-7879,1745226075377158310
396257,-69,41,0,3028,-478,-8007,1745226075377158310
396449,-108,45,3,2827,-75,-7781,1745226075377158310
396641,-113,41,3,2619,92,-7844,1745226075437780256
396833,-101,48,-1,2588,190,-7690,1745226075437780256
397025,-70,53,-15,2936,35,-7476,1745226075437780256
397217,-29,44,-24,3004,-167,-7658,1745226075437780256
397409,-35,46,-24,2508,-237,-7509,1745226075437780256
397601,-74,53,-8,2480,-144,-7786,1745226075437780256
397793,-86,63,-1,2689,-103,-7622,1745226075437780256
397985,-50,68,-3,3181,-139,-7826,1745226075437780256
398177,-14,53,-18,3021,-55,-7741,1745226075437780256
398369,-36,43,-16,2524,150,-8097,1745226075437780256
398561,-86,22,-3,2486,516,-8810,1745226075437780256
398753,-88,-12,-7,2284,822,-9295,1745226075437780256
398945,-56,-70,-42,2794,1263,-10722,1745226075495555406
399137,-16,-177,-91,1125,1853,-10220,1745226075495555406
399329,-32,-126,-96,705,2020,-8154,1745226075495555406
399521,25,-52,-118,2637,1089,-6961,1745226075495555406
399713,258,52,-118,3452,-407,-4812,1745226075495555406
399905,436,189,-106,4659,-2288,-3982,1745226075495555406
400097,476,215,-84,4915,-3676,-4600,1745226075495555406
400289,306,214,-16,4290,-3647,-5656,1745226075495555406
400481,32,188,74,3985,-2491,-6101,1745226075495555406
400673,-141,168,133,4365,-1055,-6078,1745226075495555406
400865,-182,131,126,4366,221,-6215,1745226075495555406
401057,-177,96,99,3665,1286,-6596,1745226075495555406
401249,-168,80,74,3519,1793,-6966,1745226075558071345
401441,-117,52,51,3737,1608,-7246,1745226075558071345
401633,-45,21,54,3759,762,-7498,1745226075558071345
401825,-18,-12,68,3479,-295,-7519,1745226075558071345
402017,-63,-35,76,3260,-1028,-7776,1745226075558071345
402209,-160,-56,86,3022,-1079,-7774,1745226075558071345
402401,-252,-58,90,2863,-616,-7815,1745226075558071345
402593,-290,-55,79,2642,32,-7998,1745226075558071345
402785,-274,-45,60,2525,507,-8288,1745226075558071345
402977,-209,-26,41,2428,479,-8357,1745226075558071345
403169,-128,2,29,2198,1,-8338,1745226075558071345
403361,-81,33,33,1967,-643,-8208,1745226075558071345
403553,-71,71,45,2013,-1087,-7929,1745226075610912894
403745,-91,89,46,2114,-1205,-7990,1745226075610912894
403937,-113,91,45,2262,-972,-8126,1745226075610912894
404129,-104,80,43,2350,-759,-8312,1745226075610912894
404321,-80,72,36,2419,-710,-7984,1745226075610912894
404513,-69,63,26,2576,-798,-7817,1745226075610912894
404705,-70,61,25,2648,-804,-7657,1745226075610912894
404897,-77,52,25,2776,-799,-7734,1745226075610912894
405089,-78,45,28,2818,-889,-7572,1745226075610912894
405281,-93,42,34,2831,-1002,-7301,1745226075610912894
405473,-129,45,41,2912,-1027,-7044,1745226075610912894
405665,-163,51,41,3091,-840,-6907,1745226075610912894
405857,-176,48,30,3140,-560,-7035,1745226075672147074
406049,-170,43,22,3075,-314,-7305,1745226075672147074
406241,-158,35,21,2988,-235,-7351,1745226075672147074
406433,-148,39,23,2994,-393,-7235,1745226075672147074
406625,-153,42,25,3068,-578,-6934,1745226075672147074
406817,-181,46,22,3223,-563,-6906,1745226075672147074
407009,-217,35,18,3275,-291,-7046,1745226075672147074
407201,-229,28,21,3250,-39,-7160,1745226075672147074
407393,-221,20,24,3157,-63,-7178,1745226075672147074
407585,-213,23,30,3235,-206,-7103,1745226075672147074
407777,-217,22,33,3365,-320,-7072,1745226075672147074
407969,-224,22,41,3351,-324,-7017,1745226075672147074
408161,-242,25,46,3350,-354,-7066,1745226075732171994
408353,-260,25,54,3385,-359,-7022,1745226075732171994
408545,-271,31,64,3489,-391,-7119,1745226075732171994
408737,-279,32,72,3387,-373,-7132,1745226075732171994
408929,-296,37,79,3301,-348,-7163,1745226075732171994
409121,-322,40,85,3241,-249,-7137,1745226075732171994
409313,-350,42,89,3293,-78,-7185,1745226075732171994
409505,-363,36,91,3224,70,-7303,1745226075732171994
409697,-360,36,94,3091,235,-7383,1745226075732171994
409889,-353,32,89,3069,375,-7427,1745226075732171994
410081,-347,27,82,3099,525,-7468,1745226075732171994
410273,-338,23,78,3035,611,-7592,1745226075732171994
410465,-328,20,80,2936,672,-7710,1745226075786793526
410657,-319,16,78,2918,711,-7845,1745226075786793526
410849,-300,15,75,2892,704,-7855,1745226075786793526
411041,-284,13,72,2840,641,-7877,1745226075786793526
411233,-273,13,71,2754,544,-7893,1745226075786793526
411425,-259,17,74,2685,429,-7963,1745226075786793526
411617,-246,23,75,2602,276,-7937,1745226075786793526
411809,-235,33,74,2616,128,-7980,1745226075786793526
412001,-234,31,69,2579,92,-7972,1745226075786793526
412193,-238,29,61,2578,156,-8080,1745226075786793526
412385,-233,19,55,2521,281,-8133,1745226075786793526
412577,-215,18,51,2379,380,-8093,1745226075786793526
412769,-196,12,45,2325,412,-8185,1745226075847696824
412961,-168,9,40,2348,430,-8183,1745226075847696824
413153,-143,1,30,2364,410,-8154,1745226075847696824
413345,-134,-11,19,2427,422,-8126,1745226075847696824
413537,-139,-32,10,2464,510,-8233,1745226075847696824
413729,-139,-51,8,2315,653,-8267,1745226075847696824
413921,-128,-63,9,2249,697,-8425,1745226075847696824
414113,-97,-68,12,2130,627,-8337,1745226075847696824
414305,-67,-63,12,2108,499,-8289,1745226075847696824
414497,-44,-60,13,2155,348,-8174,1745226075847696824
414689,-34,-51,18,2205,262,-8059,1745226075847696824
414881,-37,-55,20,2332,309,-8089,1745226075847696824
415073,-38,-55,23,2390,534,-8077,1745226075904300318
415265,-29,-53,26,2297,720,-7976,1745226075904300318
415457,-10,-46,28,2364,781,-7906,1745226075904300318
415649,27,-40,30,2403,647,-7831,1745226075904300318
415841,62,-29,33,2466,479,-7785,1745226075904300318
416033,84,-26,32,2583,272,-7720,1745226075904300318
416225,83,-20,34,2706,152,-7469,1745226075904300318
416417,65,-26,39,2823,103,-7594,1745226075904300318
416609,57,-26,52,2764,120,-7502,1745226075904300318
416801,67,-15,66,2826,37,-7550,1745226075904300318
416993,87,-12,76,2881,-183,-7363,1745226075904300318
417185,98,-1,86,2981,-415,-7310,1745226075904300318
417377,83,-5,99,2949,-553,-7313,1745226075970908459
417569,56,2,119,2915,-578,-7310,1745226075970908459
417761,30,4,137,2893,-561,-7378,1745226075970908459
417953,7,7,142,3015,-435,-7408,1745226075970908459
418145,-9,-9,134,2962,-232,-7591,1745226075970908459
418337,-23,-12,127,2708,39,-7476,1745226075970908459
418529,-34,-13,121,2576,127,-7363,1745226075970908459
418721,-31,-8,117,2650,111,-7431,1745226075970908459
418913,-7,-3,114,2751,108,-7579,1745226075970908459
419105,22,0,102,2719,68,-7542,1745226075970908459
419297,32,1,93,2659,-129,-7428,1745226075970908459
419489,25,8,97,2670,-346,-7208,1745226075970908459
419681,14,17,106,2670,-517,-7338,1745226076021174146
419873,22,23,114,2605,-601,-7363,1745226076021174146
420065,28,32,103,2738,-639,-7372,1745226076021174146
420257,20,21,85,2699,-603,-7437,1745226076021174146
420449,-4,20,83,2632,-394,-7417,1745226076021174146
420641,-22,17,79,2553,-171,-7826,1745226076021174146
420833,0,15,81,2412,-89,-8133,1745226076021174146
421025,54,24,75,2412,-349,-8086,1745226076021174146
421217,88,35,52,2513,-670,-7877,1745226076021174146
421409,74,31,43,2320,-734,-7797,1745226076021174146
421601,30,39,34,2373,-351,-7808,1745226076021174146
421793,25,33,19,2303,116,-8199,1745226076021174146
421985,83,40,8,2242,322,-8263,1745226076080709071
422177,147,44,-29,2531,283,-8164,1745226076080709071
422369,186,36,-63,2639,384,-8228,1745226076080709071
422561,207,35,-66,2518,576,-8454,1745226076080709071
422753,227,38,-61,2493,636,-8647,1745226076080709071
422945,266,43,-49,2595,378,-8716,1745226076080709071
423137,302,46,-32,2712,-35,-8461,1745226076080709071
423329,306,59,-26,2981,-123,-8008,1745226076080709071
423521,276,46,-21,2805,135,-8117,1745226076080709071
423713,250,45,-1,2543,571,-8261,1745226076080709071
423905,262,51,5,2615,698,-8186,1745226076080709071
424097,315,65,14,2499,294,-7852,1745226076080709071
424289,350,86,22,2451,-233,-7248,1745226076141343361
424481,324,93,7,2668,-187,-7150,1745226076141343361
424673,272,67,-8,2597,461,-7790,1745226076141343361
424865,264,38,-9,2199,999,-8289,1745226076141343361
425057,292,25,-28,2340,1075,-8370,1745226076141343361
425249,334,7,-53,2534,855,-8135,1745226076141343361
425441,378,2,-60,2725,631,-7859,1745226076141343361
425633,399,-11,-75,3041,633,-7644,1745226076141343361
425825,389,-39,-89,3388,859,-7669,1745226076141343361
426017,381,-64,-86,3524,960,-7627,1745226076141343361
426209,375,-88,-82,3704,803,-7914,1745226076141343361
426401,381,-105,-64,3589,643,-7814,1745226076141343361
426593,377,-99,-36,3409,116,-7533,1745226076198159300
426785,346,-106,-23,3377,-336,-7468,1745226076198159300
426977,298,-105,3,3279,-564,-7503,1745226076198159300
427169,248,-107,30,2970,-635,-7598,1745226076198159300
427361,199,-107,46,2854,-400,-7453,1745226076198159300
427553,162,-99,43,3020,42,-7366,1745226076198159300
427745,163,-94,33,3067,537,-7486,1745226076198159300
427937,190,-91,17,3006,832,-7835,1745226076198159300
428129,234,-94,10,2889,621,-8082,1745226076198159300
428321,277,-92,10,2873,-65,-8032,1745226076198159300
428513,284,-90,7,2865,-639,-7728,1745226076198159300
428705,249,-89,5,2922,-701,-7526,1745226076198159300
428897,195,-99,-2,2979,-298,-7657,1745226076253699053
429089,172,-108,-12,3046,175,-7842,1745226076253699053
429281,202,-118,-18,2808,136,-8083,1745226076253699053
429473,236,-117,-17,2511,-304,-8059,1745226076253699053
429665,241,-108,-21,2547,-766,-7792,1745226076253699053
429857,223,-97,-26,2693,-931,-7519,1745226076253699053
430049,203,-91,-32,2841,-817,-7589,1745226076253699053
430241,197,-98,-38,2865,-664,-7684,1745226076253699053
430433,210,-95,-39,2804,-731,-7467,1745226076253699053
430625,208,-88,-48,3088,-748,-7356,1745226076253699053
430817,209,-80,-44,3037,-716,-7149,1745226076253699053
431009,209,-69,-43,3068,-744,-7382,1745226076253699053
431201,196,-69,-36,2970,-712,-7464,1745226076314213656
431393,183,-60,-20,2968,-810,-7162,1745226076314213656
431585,167,-49,-18,3138,-850,-7090,1745226076314213656
431777,154,-45,-14,3138,-690,-7003,1745226076314213656
431969,159,-36,-12,3234,-701,-7172,1745226076314213656
432161,158,-37,-9,3186,-814,-7113,1745226076314213656
432353,134,-36,1,3158,-988,-6902,1745226076314213656
432545,100,-31,5,3286,-1005,-6906,1745226076314213656
432737,71,-30,6,3310,-807,-6724,1745226076314213656
432929,57,-25,-1,3370,-653,-6926,1745226076314213656
433121,47,-29,-7,3435,-588,-6937,1745226076314213656
433313,47,-29,-6,3356,-719,-6922,1745226076314213656
433505,34,-25,-1,3287,-915,-6795,1745226076371245844
433697,11,-22,2,3395,-1019,-6696,1745226076371245844
433889,-4,-13,7,3480,-1071,-6699,1745226076371245844
434081,-23,-15,11,3482,-905,-6695,1745226076371245844
434273,-51,-15,15,3689,-596,-6770,1745226076371245844
434465,-67,-20,19,3843,-319,-6818,1745226076371245844
434657,-74,-29,24,3711,-29,-7031,1745226076371245844
434849,-90,-40,36,3486,220,-7242,1745226076371245844
435041,-93,-41,50,3538,119,-7202,1745226076371245844
435233,-81,-38,62,3471,-286,-7087,1745226076371245844
435425,-96,-34,74,3308,-480,-7031,1745226076371245844
435617,-144,-38,81,3087,-341,-7076,1745226076371245844
435809,-190,-20,92,3085,-34,-6813,1745226076432726532
436001,-203,-10,76,3493,195,-6914,1745226076432726532
436193,-169,-9,64,3415,378,-7429,1745226076432726532
436385,-146,-12,53,3122,375,-7761,1745226076432726532
436577,-154,-11,41,3289,235,-7632,1745226076432726532
436769,-167,-15,35,3372,174,-7773,1745226076432726532
436961,-173,-17,37,3105,288,-7950,1745226076432726532
437153,-173,-17,32,3113,284,-8032,1745226076432726532
437345,-166,-19,28,3145,-27,-8101,1745226076432726532
437537,-155,-13,33,3156,-332,-7987,1745226076432726532
437729,-149,-5,29,3101,-434,-7810,1745226076432726532
437921,-142,25,39,2986,-493,-7499,1745226076432726532
438113,-146,51,46,3175,-660,-7398,1745226076489809240
438305,-147,78,56,3188,-665,-7411,1745226076489809240
438497,-170,82,68,2907,-423,-7601,1745226076489809240
438689,-214,80,75,2776,3,-7766,1745226076489809240
438881,-239,72,78,2568,322,-7942,1745226076489809240
439073,-242,66,75,2375,487,-8228,1745226076489809240
439265,-215,59,58,2501,439,-8243,1745226076489809240
439457,-158,55,36,2529,94,-8128,1745226076489809240
439649,-127,56,20,2491,-237,-7984,1745226076489809240
439841,-142,50,4,2535,-312,-7878,1745226076489809240
440033,-155,50,3,2389,-268,-8036,1745226076489809240
440225,-161,48,-4,2461,-221,-8236,1745226076489809240
440417,-144,41,-15,2420,-283,-8151,1745226076554182662
440609,-128,47,-23,2324,-424,-7900,1745226076554182662
440801,-143,48,-37,2362,-379,-7609,1745226076554182662
440993,-153,50,-46,2456,-218,-7601,1745226076554182662
441185,-131,58,-50,2578,-34,-7633,1745226076554182662
441377,-86,59,-59,2780,-170,-7607,1745226076554182662
441569,-36,63,-60,2901,-589,-7417,1745226076554182662
441761,-25,67,-52,3068,-876,-7039,1745226076554182662
441953,-64,61,-49,3166,-777,-6970,1745226076554182662
442145,-107,55,-32,3096,-427,-7055,1745226076554182662
442337,-122,47,-13,3252,-270,-7230,1745226076554182662
442529,-108,41,-6,3360,-367,-7129,1745226076554182662
442721,-100,38,9,3218,-547,-6993,1745226076605960887
442913,-127,42,25,3264,-588,-6813,1745226076605960887
443105,-158,45,32,3413,-479,-6812,1745226076605960887
443297,-161,49,41,3262,-414,-6908,1745226076605960887
443489,-151,63,54,3271,-561,-6906,1745226076605960887
443681,-140,81,59,3411,-965,-6722,1745226076605960887
443873,-151,97,69,3366,-1243,-6580,1745226076605960887
444065,-189,115,84,3329,-1225,-6647,1745226076605960887
444257,-239,124,91,3514,-950,-6632,1745226076605960887
444449,-270,122,95,3483,-661,-6885,1745226076605960887
444641,-280,120,103,3340,-455,-6984,1745226076605960887
444833,-281,125,108,3342,-519,-6839,1745226076605960887
445025,-286,131,105,3522,-621,-6735,1745226076665218262
445217,-306,126,103,3534,-484,-6943,1745226076665218262
445409,-328,106,108,3348,-203,-7320,1745226076665218262
445601,-336,99,116,3252,-125,-7294,1745226076665218262
445793,-335,101,126,3189,-339,-7020,1745226076665218262
445985,-349,116,132,3266,-479,-6851,1745226076665218262
446177,-370,121,131,3291,-340,-6964,1745226076665218262
446369,-378,124,130,3244,-48,-7185,1745226076665218262
446561,-379,123,129,3196,99,-7340,1745226076665218262
446753,-377,122,134,3130,41,-7437,1745226076665218262
446945,-378,121,140,3057,-83,-7579,1745226076665218262
447137,-374,119,142,2911,-175,-7664,1745226076665218262
447329,-368,127,141,2805,-285,-7594,1745226076722431959
447521,-374,131,136,2850,-380,-7599,1745226076722431959
447713,-392,129,132,2853,-293,-7681,1745226076722431959
447905,-407,121,131,2785,-80,-7954,1745226076722431959
448097,-402,112,127,2729,103,-8066,1745226076722431959
448289,-386,105,117,2676,189,-8127,1745226076722431959
448481,-374,99,107,2668,251,-8178,1745226076722431959
448673,-364,93,99,2563,315,-8253,1745226076722431959
448865,-354,88,90,2464,364,-8369,1745226076722431959
449057,-348,79,77,2413,421,-8392,1745226076722431959
449249,-351,71,65,2446,517,-8414,1745226076722431959
449441,-357,58,53,2364,713,-8352,1745226076722431959
449633,-358,47,41,2249,897,-8513,1745226076787323866
449825,-343,37,31,2172,1036,-8583,1745226076787323866
450017,-317,33,18,2105,1021,-8667,1745226076787323866
450209,-286,29,8,2046,920,-8653,1745226076787323866
450401,-257,32,1,2015,792,-8595,1745226076787323866
450593,-239,33,-8,2004,706,-8471,1745226076787323866
450785,-230,37,-17,1972,689,-8482,1745226076787323866
450977,-219,38,-23,2043,773,-8533,1745226076787323866
451169,-198,40,-30,2144,828,-8554,1745226076787323866
451361,-165,33,-39,2155,837,-8548,1745226076787323866
451553,-128,31,-41,2167,760,-8535,1745226076787323866
451745,-103,22,-44,2231,655,-8432,1745226076787323866
451937,-80,18,-42,2246,594,-8288,1745226076838892041
452129,-61,10,-37,2209,485,-8284,1745226076838892041
452321,-41,7,-28,2215,360,-8157,1745226076838892041
452513,-18,2,-20,2285,180,-8087,1745226076838892041
452705,-1,-3,-14,2343,31,-7934,1745226076838892041
452897,-1,-9,-11,2482,-6,-7772,1745226076838892041
453089,-8,-14,-6,2614,62,-7622,1745226076838892041
453281,-8,-26,-4,2643,219,-7645,1745226076838892041
453473,8,-32,0,2601,374,-7695,1745226076838892041
453665,32,-31,3,2623,381,-7585,1745226076838892041
453857,57,-32,4,2655,222,-7510,1745226076838892041
454049,72,-28,9,2802,56,-7370,1745226076838892041
454241,78,-33,12,2860,-73,-7304,1745226076896906771
454433,70,-38,15,2941,-42,-7322,1745226076896906771
454625,52,-52,15,3103,119,-7422,1745226076896906771
454817,43,-70,15,3064,328,-7433,1745226076896906771
455009,35,-79,12,3121,531,-7439,1745226076896906771
455201,35,-95,8,3063,613,-7470,1745226076896906771
455393,46,-99,7,3000,597,-7509,1745226076896906771
455585,63,-105,3,2943,464,-7599,1745226076896906771
455777,79,-106,1,2866,248,-7454,1745226076896906771
455969,82,-103,-1,2865,18,-7480,1745226076896906771
456161,72,-101,3,2805,-105,-7432,1745226076896906771
456353,57,-87,9,2771,-141,-7370,1745226076896906771
456545,50,-80,15,2784,-217,-7437,1745226076961533576
456737,49,-69,15,2982,-207,-7432,1745226076961533576
456929,48,-70,12,2987,-160,-7498,1745226076961533576
457121,38,-64,17,2915,-25,-7386,1745226076961533576
457313,23,-58,24,2852,80,-7439,1745226076961533576
457505,24,-49,34,2902,113,-7588,1745226076961533576
457697,44,-42,36,3021,60,-7734,1745226076961533576
457889,68,-41,31,3091,-2,-7636,1745226076961533576
458081,74,-33,37,2917,-208,-7464,1745226076961533576
458273,45,-21,50,2759,-288,-7309,1745226076961533576
458465,12,-8,65,2734,-210,-7559,1745226076961533576
458657,15,0,76,2786,-81,-7824,1745226076961533576
458849,37,8,68,2883,-54,-7666,1745226077015511052
459041,34,5,61,2825,-98,-7510,1745226077015511052
459233,-9,14,65,2757,106,-7319,1745226077015511052
459425,-45,15,69,2672,516,-7710,1745226077015511052
459617,-19,20,68,2810,793,-7988,1745226077015511052
459809,43,22,45,3058,788,-7832,1745226077015511052
460001,92,18,34,2854,407,-7634,1745226077015511052
460193,95,36,49,2696,31,-7366,1745226077015511052
460385,67,49,63,2677,-210,-7550,1745226077015511052
460577,60,67,81,2920,-308,-7708,1745226077015511052
460769,84,79,91,3042,-531,-7444,1745226077015511052
460961,80,88,91,3191,-704,-6998,1745226077015511052
461153,15,86,101,3082,-525,-6930,1745226077074228797
461345,-65,75,114,2976,144,-7316,1745226077074228797
461537,-79,62,109,2970,841,-7881,1745226077074228797
461729,-11,52,94,2986,998,-7812,1745226077074228797
461921,59,46,73,3064,558,-7556,1745226077074228797
462113,71,35,61,2919,173,-7452,1745226077074228797
462305,32,27,59,2832,174,-7588,1745226077074228797
462497,8,18,56,2848,325,-7801,1745226077074228797
462689,24,18,52,2933,289,-7762,1745226077074228797
462881,55,18,48,2860,-27,-7651,1745226077074228797
463073,57,30,50,2812,-204,-7497,1745226077074228797
463265,26,45,54,2827,-61,-7578,1745226077074228797
463457,2,55,52,2764,226,-7668,1745226077134139187
463649,6,63,42,2830,482,-7789,1745226077134139187
463841,37,64,32,2814,492,-7788,1745226077134139187
464033,68,70,22,2836,338,-7650,1745226077134139187
464225,77,63,0,2847,232,-7708,1745226077134139187
464417,76,55,-10,2883,304,-7765,1745226077134139187
464609,76,38,-20,2819,335,-7894,1745226077134139187
464801,82,25,-27,2767,335,-7946,1745226077134139187
464993,83,12,-37,2800,250,-7967,1745226077134139187
465185,86,5,-37,2745,119,-7851,1745226077134139187
465377,80,3,-41,2791,74,-7733,1745226077134139187
465569,66,-5,-52,2890,208,-7696,1745226077134139187
465761,57,-22,-67,2857,480,-7917,1745226077190148519
465953,64,-43,-80,2644,678,-8087,1745226077190148519
466145,88,-50,-87,2481,592,-7964,1745226077190148519
466337,119,-54,-93,2434,258,-7800,1745226077190148519
466529,139,-55,-97,2458,0,-7707,1745226077190148519
466721,140,-65,-99,2607,-17,-7815,1745226077190148519
466913,128,-84,-107,2647,158,-7996,1745226077190148519
467105,122,-100,-109,2678,327,-8216,1745226077190148519
467297,127,-104,-106,2793,450,-8104,1745226077190148519
467489,140,-102,-107,2829,482,-8054,1745226077190148519
467681,166,-91,-101,2888,551,-7912,1745226077190148519
467873,185,-79,-99,3037,560,-7791,1745226077190148519
468065,202,-68,-87,3139,517,-7695,1745226077248911993
468257,217,-50,-72,3306,436,-7557,1745226077248911993
468449,224,-45,-61,3328,404,-7535,1745226077248911993
468641,217,-43,-51,3441,550,-7482,1745226077248911993
468833,213,-45,-37,3417,585,-7563,1745226077248911993
469025,210,-49,-22,3353,512,-7537,1745226077248911993
469217,203,-52,-7,3297,317,-7452,1745226077248911993
469409,193,-48,11,3285,156,-7077,1745226077248911993
469601,170,-42,21,3376,140,-6923,1745226077248911993
469793,141,-45,29,3348,289,-7009,1745226077248911993
469985,128,-49,36,3343,366,-7284,1745226077248911993
470177,125,-62,41,3203,218,-7407,1745226077248911993
470369,119,-66,48,3202,-23,-7204,1745226077305976836
470561,105,-67,52,3195,-197,-7026,1745226077305976836
470753,87,-63,55,3190,-170,-6908,1745226077305976836
470945,70,-62,55,3311,-88,-7092,1745226077305976836
471137,68,-65,62,3227,-174,-7233,1745226077305976836
471329,69,-68,67,3106,-387,-7424,1745226077305976836
471521,59,-71,70,2984,-557,-7351,1745226077305976836
471713,45,-60,70,3016,-666,-7166,1745226077305976836
471905,26,-52,64,3147,-616,-7230,1745226077305976836
472097,17,-48,64,3086,-517,-7413,1745226077305976836
472289,9,-51,59,3033,-512,-7622,1745226077305976836
472481,-4,-52,57,2929,-581,-7576,1745226077305976836
472673,-17,-50,53,2867,-709,-7489,1745226077370163177
472865,-24,-39,45,2846,-677,-7212,1745226077370163177
473057,-35,-34,31,2928,-537,-7403,1745226077370163177
473249,-38,-35,30,2821,-417,-7551,1745226077370163177
473441,-36,-38,26,2713,-495,-7645,1745226077370163177
473633,-44,-40,20,2772,-512,-7532,1745226077370163177
473825,-57,-41,10,2821,-358,-7458,1745226077370163177
474017,-65,-46,-5,2818,-66,-7639,1745226077370163177
474209,-61,-49,-15,2756,74,-7627,1745226077370163177
474401,-49,-52,-22,2728,-53,-7886,1745226077370163177
474593,-50,-53,-25,2687,-26,-7640,1745226077370163177
474785,-60,-55,-35,2754,34,-7698,1745226077370163177
474977,-61,-59,-42,2716,186,-7638,1745226077422905456
475169,-49,-60,-53,2845,245,-7746,1745226077422905456
475361,-35,-63,-59,2823,211,-7749,1745226077422905456
475553,-35,-68,-64,2869,167,-7801,1745226077422905456
475745,-34,-71,-65,2826,228,-7754,1745226077422905456
475937,-38,-73,-69,2800,344,-7685,1745226077422905456
476129,-41,-73,-72,2854,452,-7713,1745226077422905456
476321,-31,-73,-73,2891,470,-7697,1745226077422905456
476513,-13,-75,-78,2979,405,-7849,1745226077422905456
476705,1,-83,-77,2923,341,-7792,1745226077422905456
476897,-2,-84,-73,2727,202,-7704,1745226077422905456
477089,-19,-81,-66,2673,57,-7559,1745226077422905456
477281,-23,-67,-61,2950,-75,-7470,1745226077483459434
477473,-11,-69,-63,3044,-160,-7552,1745226077483459434
477665,-6,-73,-65,3079,-65,-7556,1745226077483459434
477857,-27,-83,-65,3006,187,-7553,1745226077483459434
478049,-58,-89,-62,2916,456,-7650,1745226077483459434
478241,-47,-82,-63,2907,513,-7635,1745226077483459434
478433,-14,-78,-75,2958,350,-7711,1745226077483459434
478625,2,-78,-78,2894,109,-7694,1745226077483459434
478817,-4,-80,-76,2904,-105,-7575,1745226077483459434
479009,-30,-83,-79,2903,-10,-7641,1745226077483459434
479201,-55,-82,-71,2673,291,-7709,1745226077483459434
479393,-54,-73,-71,2795,421,-7571,1745226077483459434
479585,-27,-71,-79,2928,296,-7749,1745226077542084419
479777,-4,-72,-73,2891,165,-7542,1745226077542084419
479969,-9,-69,-74,2960,63,-7462,1745226077542084419
480161,-49,-76,-74,2824,258,-7582,1745226077542084419
480353,-77,-73,-67,2745,465,-7742,1745226077542084419
480545,-59,-66,-73,2989,376,-7820,1745226077542084419
480737,-28,-66,-84,2951,151,-7794,1745226077542084419
480929,-20,-62,-79,2739,-112,-7758,1745226077542084419
481121,-44,-51,-76,2927,-256,-7457,1745226077542084419
481313,-78,-42,-75,2810,-197,-7392,1745226077542084419
481505,-98,-26,-66,2644,4,-7468,1745226077542084419
481697,-91,-10,-67,2769,-17,-7489,1745226077542084419
481889,-63,2,-67,2798,-250,-7587,1745226077600133732
482081,-44,18,-64,2747,-456,-7249,1745226077600133732
482273,-69,20,-71,2787,-398,-7300,1745226077600133732
482465,-125,13,-76,2685,160,-7689,1745226077600133732
482657,-136,3,-73,2580,481,-8100,1745226077600133732
482849,-89,2,-83,2731,305,-7850,1745226077600133732
483041,-47,1,-95,2668,-97,-7736,1745226077600133732
483233,-48,2,-90,2558,-296,-7653,1745226077600133732
483425,-65,6,-87,2710,-332,-7459,1745226077600133732
483617,-94,0,-90,2818,-132,-7575,1745226077600133732
483809,-109,-7,-81,2619,107,-7859,1745226077600133732
484001,-96,-5,-75,2655,127,-7795,1745226077600133732
484193,-73,0,-79,2782,-11,-7527,1745226077659517825
484385,-63,6,-74,2634,-156,-7472,1745226077659517825
484577,-68,18,-62,2714,-214,-7183,1745226077659517825
484769,-90,21,-62,2983,-117,-7155,1745226077659517825
484961,-112,10,-53,2860,107,-7593,1745226077659517825
485153,-104,8,-35,2608,119,-7721,1745226077659517825
485345,-86,19,-30,2766,-227,-7354,1745226077659517825
485537,-94,30,-31,2928,-411,-7228,1745226077659517825
485729,-120,30,-23,2737,-178,-7537,1745226077659517825
485921,-138,25,-16,2788,123,-7685,1745226077659517825
486113,-141,18,-19,2896,244,-7780,1745226077659517825
486305,-137,3,-16,2683,375,-7938,1745226077659517825
486497,-125,4,-9,2410,439,-7922,1745226077715856634
486689,-105,13,-10,2452,209,-7672,1745226077715856634
486881,-100,27,-16,2656,58,-7549,1745226077715856634
487073,-108,25,-18,2568,177,-7857,1745226077715856634
487265,-113,18,-22,2557,458,-8106,1745226077715856634
487457,-97,17,-21,2503,407,-8054,1745226077715856634
487649,-78,31,-19,2570,181,-7654,1745226077715856634
487841,-77,47,-19,2668,114,-7599,1745226077715856634
488033,-79,56,-16,2697,243,-7757,1745226077715856634
488225,-69,64,-10,2687,282,-7804,1745226077715856634
488417,-62,70,-2,2682,115,-7740,1745226077715856634
488609,-70,75,12,2664,-43,-7733,1745226077715856634
488801,-87,71,22,2637,-16,-7960,1745226077780873852
488993,-89,72,28,2642,78,-7824,1745226077780873852
489185,-86,79,30,2625,1,-7545,1745226077780873852
489377,-102,83,32,2787,3,-7444,1745226077780873852
489569,-118,81,37,2746,180,-7620,1745226077780873852
489761,-118,75,37,2646,352,-7842,1745226077780873852
489953,-105,73,33,2558,322,-7724,1745226077780873852
490145,-103,72,30,2586,164,-7715,1745226077780873852
490337,-112,69,28,2595,165,-7624,1745226077780873852
490529,-124,65,21,2495,229,-7705,1745226077780873852
490721,-133,58,9,2623,352,-7750,1745226077780873852
490913,-127,46,0,2673,348,-7926,1745226077780873852
491105,-110,36,-4,2560,256,-7869,1745226077832222550
491297,-103,33,-9,2699,123,-7670,1745226077832222550
491489,-114,27,-16,2815,74,-7577,1745226077832222550
491681,-129,24,-16,2908,246,-7583,1745226077832222550
491873,-134,16,-19,2824,418,-7753,1745226077832222550
492065,-129,9,-19,2853,446,-7834,1745226077832222550
492257,-118,12,-13,2886,322,-7637,1745226077832222550
492449,-123,13,-7,3024,247,-7456,1745226077832222550
492641,-139,15,-1,3041,355,-7459,1745226077832222550
492833,-156,15,6,3053,554,-7502,1745226077832222550
493025,-164,19,11,3118,650,-7473,1745226077832222550
493217,-177,20,18,3157,626,-7535,1745226077832222550
493409,-192,27,32,3182,565,-7505,1745226077892888506
493601,-210,34,47,3305,529,-7546,1745226077892888506
493793,-219,43,63,3378,564,-7395,1745226077892888506
493985,-222,60,81,3497,567,-7211,1745226077892888506
494177,-227,72,96,3555,515,-7125,1745226077892888506
494369,-233,78,101,3534,539,-7129,1745226077892888506
494561,-239,78,101,3498,587,-7170,1745226077892888506
494753,-257,78,103,3493,629,-7209,1745226077892888506
494945,-267,86,103,3410,688,-7165,1745226077892888506
495137,-265,94,96,3275,697,-7147,1745226077892888506
495329,-243,108,85,3127,580,-7118,1745226077892888506
495521,-209,121,70,3102,370,-7190,1745226077892888506
495713,-177,131,48,3039,129,-7115,1745226077951018183
495905,-170,135,26,2982,1,-7077,1745226077951018183
496097,-187,134,11,2928,35,-7053,1745226077951018183
496289,-203,138,12,2867,173,-7032,1745226077951018183
496481,-205,136,16,2889,260,-7130,1745226077951018183
496673,-198,125,12,2945,275,-7118,1745226077951018183
496865,-195,106,7,2879,217,-7104,1745226077951018183
497057,-213,95,7,2792,238,-7040,1745226077951018183
497249,-248,78,13,2724,351,-7161,1745226077951018183
497441,-269,62,25,2682,543,-7405,1745226077951018183
497633,-261,52,35,2748,700,-7510,1745226077951018183
497825,-241,40,29,2764,751,-7459,1745226077951018183
498017,-239,29,25,2672,684,-7359,1745226078008387451
498209,-258,15,31,2622,652,-7433,1745226078008387451
498401,-266,3,42,2498,733,-7711,1745226078008387451
498593,-242,-7,49,2512,843,-7914,1745226078008387451
498785,-207,-7,41,2592,848,-7664,1745226078008387451
498977,-198,-12,33,2642,663,-7541,1745226078008387451
499169,-211,-18,43,2646,579,-7471,1745226078008387451
499361,-223,-20,56,2564,666,-7740,1745226078008387451
499553,-203,-28,61,2564,823,-8094,1745226078008387451
499745,-160,-28,54,2673,880,-8051,1745226078008387451
499937,-133,-32,44,2631,677,-7975,1745226078008387451
500129,-137,-26,53,2485,424,-7756,1745226078008387451
500321,-160,-15,65,2368,310,-7864,1745226078066122184
500513,-166,-13,70,2341,425,-8275,1745226078066122184
500705,-139,-6,62,2390,620,-8400,1745226078066122184
500897,-103,-3,49,2317,535,-8192,1745226078066122184
501089,-100,8,45,2287,325,-7694,1745226078066122184
501281,-138,6,46,2319,303,-7890,1745226078066122184
501473,-157,-5,47,2272,787,-8350,1745226078066122184
501665,-126,-13,30,2154,1269,-8596,1745226078066122184
501857,-67,-15,8,2010,1279,-8439,1745226078066122184
502049,-25,-7,-3,1850,863,-8157,1745226078066122184
502241,-21,-7,-9,1872,551,-8444,1745226078066122184
502433,-7,-10,-10,1816,656,-8670,1745226078066122184
502625,31,-9,-22,1800,734,-8696,1745226078126246010
502817,69,-5,-32,1781,591,-8358,1745226078126246010
503009,83,10,-23,1714,244,-8112,1745226078126246010
503201,79,28,-8,1902,190,-8010,1745226078126246010
503393,89,41,-6,1971,387,-8134,1745226078126246010
503585,122,47,-15,2047,691,-8315,1745226078126246010
503777,163,49,-30,2075,875,-8338,1745226078126246010
503969,208,51,-40,1997,876,-8307,1745226078126246010
504161,253,66,-46,1971,765,-8195,1745226078126246010
504353,295,70,-58,2047,626,-8283,1745226078126246010
504545,341,76,-68,2309,559,-8182,1745226078126246010
504737,377,76,-80,2494,509,-7968,1745226078126246010
504929,395,72,-80,2533,468,-7835,1745226078189593816
505121,392,71,-69,2527,460,-7725,1745226078189593816
505313,390,71,-55,2516,431,-7762,1745226078189593816
505505,400,72,-48,2661,444,-7837,1745226078189593816
505697,412,56,-53,2737,532,-7929,1745226078189593816
505889,410,41,-61,2754,744,-7920,1745226078189593816
506081,393,25,-62,2628,859,-8022,1745226078189593816
506273,384,14,-58,2618,904,-8119,1745226078189593816
506465,399,7,-56,2499,737,-8160,1745226078189593816
506657,423,7,-54,2463,365,-7943,1745226078189593816
506849,431,15,-53,2731,-8,-7544,1745226078189593816
507041,406,10,-58,2874,61,-7515,1745226078189593816
507233,377,6,-61,2774,452,-7663,1745226078241496207
507425,374,4,-63,2814,622,-7864,1745226078241496207
507617,406,0,-70,2869,551,-7897,1745226078241496207
507809,439,1,-77,2852,305,-7870,1745226078241496207
508001,453,-2,-74,2885,58,-7791,1745226078241496207
508193,425,-20,-74,2913,20,-7907,1745226078241496207
508385,369,-51,-65,2826,294,-8076,1745226078241496207
508577,322,-80,-51,2685,555,-8108,1745226078241496207
508769,304,-98,-46,2706,698,-7988,1745226078241496207
508961,302,-111,-53,2572,772,-7946,1745226078241496207
509153,319,-107,-54,2565,704,-8018,1745226078241496207
509345,349,-115,-59,2557,438,-8252,1745226078241496207
509537,377,-119,-57,2532,187,-8207,1745226078302985333
509729,364,-125,-57,2606,63,-8073,1745226078302985333
509921,327,-134,-52,2608,217,-8059,1745226078302985333
510113,303,-143,-50,2607,556,-8271,1745226078302985333
510305,322,-150,-55,2327,735,-8357,1745226078302985333
510497,345,-149,-72,2278,663,-8347,1745226078302985333
510689,361,-153,-86,2300,537,-8352,1745226078302985333
510881,379,-156,-100,2264,418,-8372,1745226078302985333
511073,392,-165,-118,2289,291,-8282,1745226078302985333
511265,388,-175,-137,2456,262,-8084,1745226078302985333
511457,374,-190,-154,2478,387,-8172,1745226078302985333
511649,367,-202,-167,2418,570,-8275,1745226078302985333
511841,378,-210,-180,2377,497,-8382,1745226078357691448
512033,412,-206,-185,2327,142,-8086,1745226078357691448
512225,435,-189,-194,2582,-164,-7637,1745226078357691448
512417,422,-186,-199,2632,-126,-7510,1745226078357691448
512609,410,-173,-191,2782,103,-7621,1745226078357691448
512801,412,-183,-192,2765,184,-7867,1745226078357691448
512993,427,-180,-182,2716,-5,-7768,1745226078357691448
513185,435,-175,-177,2801,-288,-7577,1745226078357691448
513377,437,-164,-168,2775,-408,-7373,1745226078357691448
513569,419,-159,-166,2814,-331,-7378,1745226078357691448
513761,398,-167,-158,2635,-245,-7596,1745226078357691448
513953,371,-175,-153,2602,-175,-7441,1745226078357691448
514145,352,-186,-155,2725,-206,-7446,1745226078424378807
514337,354,-199,-155,2502,-286,-7463,1745226078424378807
514529,352,-203,-166,2512,-289,-7312,1745226078424378807
514721,338,-213,-177,2465,-335,-7220,1745226078424378807
514913,308,-220,-180,2565,-291,-7197,1745226078424378807
515105,287,-236,-187,2745,-105,-7208,1745226078424378807
515297,297,-242,-194,2980,50,-7276,1745226078424378807
515489,330,-245,-196,2953,-111,-7428,1745226078424378807
515681,363,-229,-186,2926,-640,-7343,1745226078424378807
515873,369,-215,-171,2970,-1145,-7232,1745226078424378807
516065,342,-199,-144,3209,-1218,-7205,1745226078424378807
516257,296,-203,-122,3206,-792,-7334,1745226078424378807
516449,276,-199,-98,3150,-436,-7472,1745226078474852461
516641,288,-187,-84,3149,-498,-7493,1745226078474852461
516833,305,-174,-75,3021,-653,-7456,1745226078474852461
517025,303,-151,-66,2900,-671,-7213,1745226078474852461
517217,300,-124,-59,3017,-718,-7203,1745226078474852461
517409,306,-106,-51,2988,-796,-7161,1745226078474852461
517601,296,-96,-42,2832,-868,-7143,1745226078474852461
517793,257,-93,-39,2942,-734,-6992,1745226078474852461
517985,229,-85,-43,3041,-477,-6809,1745226078474852461
518177,218,-82,-61,3164,-143,-6854,1745226078474852461
518369,230,-74,-77,3272,-12,-6781,1745226078474852461
518561,239,-73,-94,3363,-242,-6812,1745226078474852461
518753,231,-70,-97,3429,-536,-6673,1745226078534969776
518945,202,-65,-97,3595,-671,-6627,1745226078534969776
519137,165,-61,-92,3566,-680,-6646,1745226078534969776
519329,131,-55,-87,3572,-671,-6681,1745226078534969776
519521,103,-49,-84,3713,-653,-6844,1745226078534969776
519713,75,-46,-76,3591,-521,-6863,1745226078534969776
519905,48,-38,-68,3568,-380,-6927,1745226078534969776
520097,32,-25,-61,3566,-282,-6907,1745226078534969776
520289,31,-2,-52,3597,-372,-6979,1745226078534969776
520481,27,15,-44,3638,-502,-6966,1745226078534969776
520673,9,29,-35,3621,-615,-6969,1745226078534969776
520865,-28,37,-26,3493,-510,-7080,1745226078534969776
521249,-97,34,-14,3156,-19,-7536,1745226078605611006
521441,-113,29,-12,3037,191,-7608,1745226078605611006
521633,-116,28,-17,3008,207,-7568,1745226078605611006
521825,-113,28,-21,2858,112,-7557,1745226078605611006
522017,-123,28,-26,2723,125,-7582,1745226078605611006
522209,-138,30,-26,2592,82,-7572,1745226078605611006
522401,-158,42,-26,2423,102,-7227,1745226078605611006
522593,-185,52,-39,3013,414,-7339,1745226078605611006
522785,-154,48,-54,3175,637,-7872,1745226078605611006
522977,-93,36,-59,2852,441,-8082,1745226078605611006
523169,-93,35,-56,2409,86,-7763,1745226078605611006
523361,-166,53,-36,2649,146,-7382,1745226078605611006
523553,-200,58,-29,2938,597,-7673,1745226078655396384
523745,-146,56,-32,2933,838,-8198,1745226078655396384
523937,-72,43,-35,2829,386,-8331,1745226078655396384
524129,-55,34,-21,2665,-301,-8145,1745226078655396384
524321,-90,36,0,2551,-531,-7874,1745226078655396384
524513,-127,42,13,2559,-297,-7798,1745226078655396384
524705,-122,46,15,2928,-97,-7893,1745226078655396384
524897,-73,41,19,2942,-324,-8017,1745226078655396384
525089,-39,35,34,2579,-812,-7933,1745226078655396384
525281,-58,47,49,2434,-1082,-7571,1745226078655396384
525473,-102,59,58,2464,-969,-7483,1745226078655396384
525665,-121,67,63,2474,-683,-7604,1745226078655396384
525857,-116,61,56,2579,-444,-7764,1745226078720645163
526049,-105,48,45,2584,-358,-7726,1745226078720645163
526241,-101,38,40,2485,-338,-7744,1745226078720645163
526433,-97,35,33,2428,-289,-7658,1745226078720645163
526625,-89,35,22,2459,-310,-7679,1745226078720645163
526817,-84,30,18,2459,-466,-7754,1745226078720645163
527009,-92,21,17,2515,-628,-7721,1745226078720645163
527201,-109,12,16,2401,-725,-7637,1745226078720645163
527393,-126,9,18,2409,-711,-7617,1745226078720645163
527585,-132,7,7,2542,-600,-7407,1745226078720645163
527777,-128,-1,-4,2521,-441,-7591,1745226078720645163
527969,-139,-17,-15,2479,-122,-7843,1745226078720645163
528161,-143,-38,-19,2440,28,-8054,1745226078781614919
528353,-120,-44,-22,2433,-108,-7874,1745226078781614919
528545,-99,-42,-32,2429,-373,-7703,1745226078781614919
528737,-97,-39,-38,2518,-464,-7611,1745226078781614919
528929,-95,-35,-35,2577,-562,-7644,1745226078781614919
529121,-90,-26,-30,2578,-645,-7522,1745226078781614919
529313,-107,-19,-30,2721,-629,-7446,1745226078781614919
529505,-129,-15,-24,2698,-433,-7546,1745226078781614919
529697,-128,-1,-17,2599,-261,-7418,1745226078781614919
529889,-113,17,-20,2747,-383,-7222,1745226078781614919
530081,-113,30,-22,2976,-532,-7193,1745226078781614919
530273,-125,31,-19,2984,-505,-7360,1745226078781614919
530465,-139,27,-12,2914,-479,-7467,1745226078835408542
530657,-155,32,-5,3014,-576,-7320,1745226078835408542
530849,-168,37,4,2993,-686,-7225,1745226078835408542
531041,-183,47,13,2976,-705,-7089,1745226078835408542
531233,-198,56,21,2999,-736,-7087,1745226078835408542
531425,-212,63,30,3013,-772,-7026,1745226078835408542
531617,-235,66,39,3042,-763,-7004,1745226078835408542
531809,-262,66,50,3015,-673,-7040,1745226078835408542
532001,-277,69,59,3034,-529,-7071,1745226078835408542
532193,-278,77,64,2932,-531,-7001,1745226078835408542
532385,-279,89,70,2958,-634,-6904,1745226078835408542
532577,-290,97,76,3050,-698,-6878,1745226078835408542
532769,-308,102,84,3045,-607,-6959,1745226078904341298
532961,-332,100,89,3015,-401,-7138,1745226078904341298
533153,-352,94,94,2997,-187,-7278,1745226078904341298
533345,-360,86,99,2927,-189,-7300,1745226078904341298
533537,-363,82,103,2881,-248,-7182,1745226078904341298
533729,-375,79,105,2880,-231,-7001,1745226078904341298
533921,-399,81,108,2948,-59,-6896,1745226078904341298
534113,-417,74,113,2938,180,-7165,1745226078904341298
534305,-412,63,119,2919,375,-7401,1745226078904341298
534497,-390,53,125,2744,327,-7655,1745226078904341298
534689,-378,42,129,2655,177,-7756,1745226078904341298
534881,-379,31,133,2540,61,-7825,1745226078904341298
535073,-385,27,134,2415,52,-7903,1745226078952970124
535265,-399,23,134,2333,137,-7932,1745226078952970124
535457,-403,22,139,2190,139,-8094,1745226078952970124
535649,-395,25,137,2166,158,-8246,1745226078952970124
535841,-380,23,128,2113,182,-8331,1745226078952970124
536033,-366,24,120,2098,264,-8454,1745226078952970124
536225,-353,20,109,2036,456,-8521,1745226078952970124
536417,-336,19,100,1887,582,-8659,1745226078952970124
536609,-306,22,92,1798,559,-8660,1745226078952970124
536801,-273,31,78,1926,390,-8618,1745226078952970124
536993,-242,37,71,1852,216,-8482,1745226078952970124
537185,-230,44,68,1860,119,-8427,1745226078952970124
537377,-231,42,64,1880,159,-8467,1745226079014192325
537569,-227,42,66,1888,267,-8413,1745226079014192325
537761,-220,40,66,1950,329,-8316,1745226079014192325
537953,-209,33,61,2014,415,-8427,1745226079014192325
538145,-194,22,55,1990,506,-8478,1745226079014192325
538337,-180,11,47,1956,588,-8478,1745226079014192325
538529,-170,4,40,1941,667,-8313,1745226079014192325
538721,-165,-1,33,1915,714,-8223,1745226079014192325
538913,-151,-3,29,1904,765,-8206,1745226079014192325
539105,-126,-2,25,1917,777,-8218,1745226079014192325
539297,-100,-7,12,1981,703,-8272,1745226079014192325
539489,-78,-16,1,2003,693,-8347,1745226079014192325
539681,-69,-26,-8,1897,755,-8302,1745226079070900349
539873,-64,-27,-12,1906,793,-8232,1745226079070900349
540065,-49,-24,-13,1940,681,-8172,1745226079070900349
540257,-20,-15,-10,2077,423,-8126,1745226079070900349
540449,2,-15,-14,2327,208,-8080,1745226079070900349
540641,0,-26,-17,2341,112,-8102,1745226079070900349
540833,-23,-33,-7,2285,213,-7869,1745226079070900349
541025,-53,-32,5,2294,326,-7701,1745226079070900349
541217,-52,-30,19,2370,348,-7755,1745226079070900349
541409,-10,-21,28,2604,311,-7634,1745226079070900349
541601,37,-24,24,2663,84,-7622,1745226079070900349
541793,42,-30,27,2517,-110,-7412,1745226079070900349
541985,-7,-27,41,2434,-125,-7285,1745226079131036414
542177,-56,-30,56,2451,106,-7621,1745226079131036414
542369,-52,-28,61,2564,406,-7776,1745226079131036414
542561,-5,-21,48,2644,373,-7617,1745226079131036414
542753,22,-18,39,2633,117,-7386,1745226079131036414
542945,1,-11,48,2609,-36,-7353,1745226079131036414
543137,-29,-7,57,2523,87,-7639,1745226079131036414
543329,-27,-7,56,2600,238,-7897,1745226079131036414
543521,6,-8,44,2653,110,-7753,1745226079131036414
543713,28,-4,40,2496,-281,-7360,1745226079131036414
543905,-9,3,41,2459,-507,-7207,1745226079131036414
544097,-63,-4,46,2456,-303,-7607,1745226079131036414
544289,-76,-8,42,2520,123,-7999,1745226079185980756
544481,-48,-23,22,2464,238,-8055,1745226079185980756
544673,-24,-21,10,2303,-7,-7629,1745226079185980756
544865,-42,-12,10,2240,-255,-7497,1745226079185980756
545057,-67,-7,9,2396,-72,-7751,1745226079185980756
545249,-53,-12,-9,2530,339,-8078,1745226079185980756
545441,-10,-22,-29,2321,489,-8004,1745226079185980756
545633,-1,-16,-36,2192,283,-7582,1745226079185980756
545825,-23,-8,-27,2145,102,-7654,1745226079185980756
546017,-18,1,-20,2208,229,-8019,1745226079185980756
546209,34,5,-35,2222,311,-8086,1745226079185980756
546401,84,10,-50,2083,96,-7726,1745226079185980756
546593,67,15,-49,2038,-205,-7466,1745226079247502173
546785,10,13,-34,2034,-109,-7841,1745226079247502173
546977,-3,12,-30,2149,425,-8182,1745226079247502173
547169,59,11,-54,2145,692,-8099,1745226079247502173
547361,123,11,-82,2150,469,-7699,1745226079247502173
547553,133,7,-92,2116,224,-7680,1745226079247502173
547745,124,1,-86,2053,378,-8095,1745226079247502173
547937,152,-2,-93,2006,660,-8518,1745226079247502173
548129,216,-8,-107,1940,584,-8429,1745226079247502173
548321,260,-7,-113,1860,94,-8046,1745226079247502173
548513,249,2,-101,1894,-322,-7830,1745226079247502173
548705,208,1,-92,2099,-225,-8020,1745226079247502173
548897,200,0,-90,2158,177,-8370,1745226079316526647
549089,233,11,-89,2153,456,-8433,1745226079316526647
549281,275,35,-86,2085,329,-8235,1745226079316526647
549473,300,67,-74,2094,12,-8181,1745226079316526647
549665,312,94,-68,2288,-89,-8203,1745226079316526647
549857,326,111,-69,2410,-33,-8166,1745226079316526647
550049,330,118,-71,2570,12,-8105,1745226079316526647
550241,316,114,-69,2561,52,-7971,1745226079316526647
550433,290,105,-63,2413,162,-7946,1745226079316526647
550625,272,102,-58,2381,208,-7762,1745226079316526647
550817,272,101,-59,2593,103,-7577,1745226079316526647
551009,281,93,-62,2636,-75,-7347,1745226079316526647
551201,277,85,-62,2707,-228,-7288,1745226079362969712
551393,252,68,-63,2812,-166,-7277,1745226079362969712
551585,230,51,-61,2836,-24,-7335,1745226079362969712
551777,221,38,-56,2823,53,-7448,1745226079362969712
551969,227,33,-50,2908,-1,-7260,1745226079362969712
552161,226,36,-44,3002,-150,-7157,1745226079362969712
552353,221,34,-38,3069,-44,-7310,1745226079362969712
552545,200,28,-30,3048,-45,-7661,1745226079362969712
552737,176,10,-9,2771,133,-8047,1745226079362969712
552929,158,0,9,2605,169,-8113,1745226079362969712
553121,154,1,6,2474,-14,-7916,1745226079362969712
553313,142,7,-1,2516,-54,-7753,1745226079362969712
553505,133,22,7,2488,119,-7837,1745226079422419169
553697,140,23,7,2403,294,-8042,1745226079422419169
553889,159,25,5,2285,230,-8109,1745226079422419169
554081,167,19,5,2292,97,-8151,1745226079422419169
554273,169,12,-1,2317,41,-7979,1745226079422419169
554465,163,-1,-19,2410,178,-8118,1745226079422419169
554657,170,-16,-30,2370,385,-8200,1745226079422419169
554849,183,-32,-40,2269,358,-8285,1745226079422419169
555041,192,-52,-52,2225,132,-8436,1745226079422419169
555233,190,-69,-59,2246,-60,-8288,1745226079422419169
555425,180,-87,-71,2222,-75,-8205,1745226079422419169
555617,163,-101,-84,2305,233,-8205,1745226079422419169
555809,164,-115,-92,2217,495,-8271,1745226079481580920
556001,188,-126,-98,2110,460,-8482,1745226079481580920
556193,216,-139,-106,1962,286,-8560,1745226079481580920
556385,236,-145,-108,1866,45,-8569,1745226079481580920
556577,248,-147,-109,1884,-92,-8350,1745226079481580920
556769,254,-145,-115,1992,-41,-8286,1745226079481580920
556961,252,-148,-123,2192,166,-8300,1745226079481580920
557153,267,-153,-129,2172,312,-8417,1745226079481580920
557345,287,-161,-134,2181,289,-8523,1745226079481580920
557537,314,-162,-137,2135,105,-8328,1745226079481580920
557729,332,-157,-137,2223,-205,-8076,1745226079481580920
557921,338,-148,-135,2392,-484,-7550,1745226079481580920
558113,327,-138,-134,2767,-622,-7194,1745226079539203936
558305,311,-138,-124,2915,-618,-6937,1745226079539203936
558497,285,-135,-108,2967,-571,-6922,1745226079539203936
558689,258,-132,-84,2871,-562,-6953,1745226079539203936
558881,239,-113,-61,2925,-608,-6701,1745226079539203936
559073,228,-90,-56,2997,-645,-6605,1745226079539203936
559265,211,-70,-54,3283,-396,-6819,1745226079539203936
559457,218,-59,-48,3141,-213,-6944,1745226079539203936
559649,231,-48,-43,3112,-235,-7474,1745226079539203936
559841,234,-46,-26,2881,-329,-7512,1745226079539203936
560033,235,-35,-11,2790,-565,-7400,1745226079539203936
560225,219,-28,-11,2913,-656,-7117,1745226079539203936
560417,203,-24,-18,3145,-501,-7173,1745226079600337648
560609,200,-28,-23,3158,-284,-7206,1745226079600337648
560801,206,-37,-27,3148,-384,-7184,1745226079600337648
560993,212,-36,-23,3226,-735,-7141,1745226079600337648
561185,213,-32,-7,3183,-1114,-6810,1745226079600337648
561377,200,-15,5,3366,-1305,-6480,1745226079600337648
561569,165,-7,16,3368,-1221,-6390,1745226079600337648
561761,122,8,28,3535,-1049,-6412,1745226079600337648
561953,94,10,33,3638,-937,-6710,1745226079600337648
562145,76,14,40,3595,-752,-6693,1745226079600337648
562337,60,20,44,3550,-479,-6856,1745226079600337648
562529,39,28,53,3494,-190,-6972,1745226079600337648
562721,24,46,67,3326,-49,-7098,1745226079654037522
562913,12,56,71,3430,-40,-7338,1745226079654037522
563105,7,59,68,3677,11,-7622,1745226079654037522
563297,-26,27,38,3690,525,-7702,1745226079654037522
563489,-84,40,33,3119,1272,-7893,1745226079654037522
563681,-135,7,21,3469,1464,-8412,1745226079654037522
563873,-51,41,47,2729,1057,-7960,1745226079654037522
564065,-3,57,43,2970,-79,-7649,1745226079654037522
564257,-4,81,58,2994,-778,-7168,1745226079654037522
564449,-72,85,78,2900,-846,-7299,1745226079654037522
564641,-136,105,97,2530,-403,-7220,1745226079654037522
564833,-194,109,91,2795,173,-7599,1745226079654037522
565025,-201,105,84,2819,856,-7604,1745226079724553388
565217,-159,114,70,3148,1254,-7912,1745226079724553388
565409,-70,109,72,3052,1012,-8036,1745226079724553388
565601,0,118,92,2873,257,-8166,1745226079724553388
565793,5,123,121,2475,-445,-8169,1745226079724553388
565985,-43,136,151,2479,-749,-8184,1745226079724553388
566177,-83,140,163,2649,-569,-8154,1745226079724553388
566369,-90,137,159,2852,-266,-8325,1745226079724553388
566561,-58,125,146,2680,-80,-8120,1745226079724553388
566753,-24,134,139,2510,-205,-7899,1745226079724553388
566945,-5,140,141,2598,-494,-7718,1745226079724553388
567137,16,150,155,2777,-846,-7661,1745226079724553388
567329,25,141,166,2898,-1202,-7489,1745226079772770552
567521,1,139,173,2638,-1277,-7095,1745226079772770552
567713,-67,144,179,2430,-993,-7066,1745226079772770552
567905,-143,144,182,2536,-426,-7197,1745226079772770552
568097,-162,136,173,2805,143,-7537,1745226079772770552
568289,-123,114,153,2925,431,-7599,1745226079772770552
568481,-76,98,129,2741,471,-7669,1745226079772770552
568673,-56,72,113,2433,397,-7960,1745226079772770552
568865,-45,61,113,2362,232,-8259,1745226079772770552
569057,-22,49,115,2572,-120,-8266,1745226079772770552
569249,1,37,110,2653,-504,-7829,1745226079772770552
569441,-17,33,111,2448,-788,-7579,1745226079772770552
569633,-70,28,120,2341,-818,-7778,1745226079831749805
569825,-105,23,124,2409,-694,-7967,1745226079831749805
570017,-98,15,117,2568,-568,-7937,1745226079831749805
570209,-82,16,97,2676,-541,-7472,1745226079831749805
570401,-76,17,85,2469,-555,-7326,1745226079831749805
570593,-91,27,91,2307,-518,-7426,1745226079831749805
570785,-97,33,93,2513,-524,-7693,1745226079831749805
570977,-75,26,83,2757,-649,-7602,1745226079831749805
571169,-62,25,72,2792,-846,-7209,1745226079831749805
571361,-75,28,74,2647,-898,-7181,1745226079831749805
571553,-109,39,88,2694,-793,-7297,1745226079831749805
571745,-118,47,101,2892,-681,-7522,1745226079831749805
571937,-105,52,105,2987,-647,-7309,1745226079891019211
572129,-112,58,106,2997,-787,-6959,1745226079891019211
572321,-128,68,126,2998,-970,-6965,1745226079891019211
572513,-157,78,144,3174,-1020,-6966,1745226079891019211
572705,-183,78,147,3328,-915,-7063,1745226079891019211
572897,-212,71,142,3275,-750,-6846,1745226079891019211
573089,-245,73,142,3182,-621,-6807,1745226079891019211
573281,-267,67,139,3030,-378,-7070,1745226079891019211
573473,-278,71,129,2977,-94,-7356,1745226079891019211
573665,-263,60,119,2850,-83,-7402,1745226079891019211
573857,-231,51,114,2823,-287,-7376,1745226079891019211
574049,-210,61,121,2819,-640,-7143,1745226079891019211
574241,-211,55,132,2673,-922,-7237,1745226079947678277
574433,-235,64,132,2641,-908,-7185,1745226079947678277
574625,-268,65,133,2718,-823,-7090,1745226079947678277
574817,-281,70,144,2760,-743,-6929,1745226079947678277
575009,-294,72,145,2820,-643,-7087,1745226079947678277
575201,-311,63,134,2728,-444,-7342,1745226079947678277
575393,-326,64,123,2618,-125,-7663,1745226079947678277
575585,-327,63,118,2537,126,-7731,1745226079947678277
575777,-312,63,114,2593,119,-7710,1745226079947678277
575969,-284,54,107,2518,-54,-7775,1745226079947678277
576161,-259,58,106,2422,-269,-7797,1745226079947678277
576353,-245,57,102,2376,-458,-7823,1745226079947678277
576545,-245,57,93,2343,-580,-7881,1745226080012432790
576737,-256,57,87,2298,-617,-7937,1745226080012432790
576929,-268,56,83,2323,-556,-8068,1745226080012432790
577121,-264,55,77,2339,-484,-7963,1745226080012432790
577313,-254,56,69,2414,-436,-7898,1745226080012432790
577505,-251,55,62,2474,-397,-7861,1745226080012432790
577697,-248,62,64,2464,-335,-7863,1745226080012432790
577889,-253,61,60,2451,-249,-7848,1745226080012432790
578081,-254,68,58,2490,-161,-7873,1745226080012432790
578273,-245,69,57,2417,-88,-7930,1745226080012432790
578465,-227,82,57,2318,-18,-8004,1745226080012432790
578657,-213,92,54,2291,19,-8172,1745226080012432790
578849,-202,99,50,2322,51,-8184,1745226080063406022
579041,-189,106,51,2349,71,-8043,1745226080063406022
579233,-184,105,45,2343,78,-7881,1745226080063406022
579425,-187,100,37,2344,71,-7806,1745226080063406022
579617,-185,84,31,2295,132,-7909,1745226080063406022
579809,-171,69,24,2244,195,-8094,1745226080063406022
580001,-146,54,17,2166,269,-8262,1745226080063406022
580193,-127,43,9,2185,228,-8259,1745226080063406022
580385,-113,26,7,2223,54,-8210,1745226080063406022
580577,-92,29,11,2362,0,-8116,1745226080063406022
580769,-93,21,16,2340,-22,-8018,1745226080063406022
580961,-101,22,13,2259,67,-8101,1745226080063406022
581153,-108,22,9,2174,231,-8124,1745226080132989293
581345,-102,36,7,2115,401,-8195,1745226080132989293
581537,-79,42,0,2042,491,-8218,1745226080132989293
581729,-41,48,-2,2092,436,-8176,1745226080132989293
581921,9,49,0,2193,250,-8109,1745226080132989293
582113,41,50,-1,2270,63,-7986,1745226080132989293
582305,39,45,-6,2296,-38,-8051,1745226080132989293
582497,17,34,-8,2322,11,-8098,1745226080132989293
582689,4,28,-7,2407,137,-8006,1745226080132989293
582881,14,20,-13,2500,233,-8026,1745226080132989293
583073,31,14,-26,2500,319,-7892,1745226080132989293
583265,48,19,-26,2503,232,-7743,1745226080132989293
583457,62,18,-13,2590,11,-7566,1745226080181359372
583649,70,27,0,2790,-294,-7399,1745226080181359372
583841,74,22,11,2912,-551,-7367,1745226080181359372
584033,65,18,19,2931,-751,-7414,1745226080181359372
584225,38,9,25,2824,-789,-7515,1745226080181359372
584417,-8,12,34,2724,-673,-7482,1745226080181359372
584609,-37,16,44,2807,-434,-7430,1745226080181359372
584801,-24,13,39,2884,-196,-7532,1745226080181359372
584993,-8,11,18,2772,-8,-7626,1745226080181359372
585185,4,6,1,2645,30,-7767,1745226080181359372
585377,21,3,-3,2586,36,-7858,1745226080181359372
585569,45,5,-10,2617,36,-7881,1745226080181359372
585761,67,0,-24,2637,35,-7790,1745226080240707319
585953,73,-1,-36,2674,-49,-7644,1745226080240707319
586145,72,-5,-34,2647,-216,-7550,1745226080240707319
586337,72,-1,-23,2674,-426,-7409,1745226080240707319
586529,74,2,-15,2728,-618,-7397,1745226080240707319
586721,58,0,-18,2744,-678,-7385,1745226080240707319
586913,25,5,-20,2750,-546,-7500,1745226080240707319
587105,-6,2,-19,2729,-213,-7766,1745226080240707319
587297,-13,3,-17,2658,167,-7767,1745226080240707319
587489,19,9,-10,2615,336,-7853,1745226080240707319
587681,63,10,-4,2603,217,-7779,1745226080240707319
587873,91,15,3,2695,-67,-7461,1745226080240707319
588065,94,11,8,2838,-297,-7389,1745226080301584680
588257,72,-1,9,2813,-281,-7416,1745226080301584680
588449,54,-7,13,2632,-96,-7588,1745226080301584680
588641,59,-11,14,2383,99,-7769,1745226080301584680
588833,82,-6,12,2287,84,-7824,1745226080301584680
589025,104,-8,5,2425,-63,-7846,1745226080301584680
589217,106,-9,-1,2537,-184,-7645,1745226080301584680
589409,97,-12,-2,2529,-213,-7754,1745226080301584680
589601,85,-16,-8,2352,-58,-7925,1745226080301584680
589793,92,-10,-15,2182,93,-8069,1745226080301584680
589985,111,-5,-26,2259,79,-7934,1745226080301584680
590177,125,1,-38,2537,-80,-7596,1745226080301584680
590369,108,-6,-47,2776,-211,-7398,1745226080354694559
590561,66,-15,-47,2862,-137,-7407,1745226080354694559
590753,29,-24,-41,2851,127,-7641,1745226080354694559
590945,22,-30,-38,2658,444,-7915,1745226080354694559
591137,42,-26,-37,2607,587,-8040,1745226080354694559
591329,66,-27,-30,2757,431,-8042,1745226080354694559
591521,97,-24,-22,2868,145,-7816,1745226080354694559
591713,106,-20,-12,2880,-133,-7792,1745226080354694559
591905,95,-14,-1,2798,-277,-7803,1745226080354694559
592097,87,-4,10,2657,-310,-7656,1745226080354694559
592289,76,4,11,2430,-816,-7369,1745226080354694559
592481,-11,35,-7,2370,-1809,-7296,1745226080354694559
592673,-113,67,-12,3337,-1260,-7401,1745226080416017697
592865,-137,54,-6,3382,-175,-7293,1745226080416017697
593057,-166,60,-24,3146,158,-7542,1745226080416017697
593249,-181,41,-44,3234,176,-7589,1745226080416017697
593441,-182,31,-48,3250,-23,-7585,1745226080416017697
593633,-187,19,-36,3051,-286,-7573,1745226080416017697
593825,-201,21,-25,2973,-359,-7446,1745226080416017697
594017,-217,23,-21,3082,-309,-7443,1745226080416017697
594209,-230,16,-24,3124,-112,-7539,1745226080416017697
594401,-227,11,-25,2999,171,-7597,1745226080416017697
594593,-202,3,-21,2835,417,-7655,1745226080416017697
594785,-163,9,-13,2710,429,-7587,1745226080416017697
594977,-123,17,-6,2808,299,-7570,1745226080472940927
595169,-99,12,-9,2853,246,-7661,1745226080472940927
595361,-93,11,-5,2850,123,-7760,1745226080472940927
595553,-93,15,-7,2642,72,-7932,1745226080472940927
595745,-86,24,-18,2536,124,-7804,1745226080472940927
595937,-77,31,-26,2677,-6,-7665,1745226080472940927
596129,-81,20,-30,2808,-303,-7673,1745226080472940927
596321,-79,19,-30,2912,-235,-7786,1745226080472940927
596513,-96,12,-24,2827,-1,-7891,1745226080472940927
596705,-94,6,-25,2666,138,-7887,1745226080472940927
596897,-90,4,-34,2629,85,-7829,1745226080472940927
597089,-89,-4,-34,2573,-11,-7739,1745226080472940927
598625,-93,-41,-48,2569,100,-7718,1745226083209203900
702881,-261,27,5,2449,87,-7386,1745226083209203900
703073,-303,46,-22,2799,-375,-7896,1745226083209203900
703265,-192,-119,-33,2708,-6,-8012,1745226083209203900
703457,-243,-84,-12,2069,92,-8011,1745226083209203900
703649,-247,-73,-13,2168,270,-7801,1745226083209203900
703841,-221,-70,-28,2571,250,-7882,1745226083209203900
704033,-193,-51,-45,2721,173,-8168,1745226083209203900
704225,-156,-61,-43,2214,240,-8188,1745226083209203900
704417,-159,-44,-26,1842,289,-8085,1745226083209203900
704609,-132,5,-26,2187,263,-7904,1745226083209203900
704801,-79,1,-61,2610,169,-8069,1745226083209203900
704993,-49,5,-77,2478,69,-7929,1745226083267775500
705185,-59,4,-69,2246,90,-7953,1745226083267775500
705377,-57,17,-57,2193,327,-8047,1745226083267775500
705569,-14,39,-73,2480,513,-8140,1745226083267775500
705761,61,51,-87,2501,645,-8124,1745226083267775500
705953,126,58,-74,2208,908,-8140,1745226083267775500
706145,204,90,-61,2025,1036,-8164,1745226083267775500
706337,269,97,-80,2059,164,-7919,1745226083267775500
706529,305,162,-97,3376,973,-7909,1745226083267775500
706721,402,116,-73,1877,-89,-7286,1745226083267775500
706913,369,126,-40,2456,53,-7440,1745226083267775500
707105,364,87,-52,2802,76,-7418,1745226083267775500
707297,360,89,-59,2930,-212,-7420,1745226083325916636
707489,320,61,-63,2594,-636,-7277,1745226083325916636
707681,251,50,-45,2691,-519,-7052,1745226083325916636
707873,221,-1,-24,2852,-600,-7566,1745226083325916636
708065,143,27,-42,2895,-1115,-7422,1745226083325916636
708257,64,-7,-50,2955,-1003,-7565,1745226083325916636
708449,-22,-15,-37,2687,-481,-7557,1745226083325916636
708641,-75,-22,-22,2566,9,-7829,1745226083325916636
708833,-59,-19,-27,2843,152,-7715,1745226083325916636
709025,-38,-32,-28,2846,-63,-7737,1745226083325916636
709217,-48,-33,-8,2347,-267,-7562,1745226083325916636
709409,-90,-34,7,2342,-280,-7803,1745226083325916636
709601,-95,-29,15,2488,-98,-7700,1745226083388660854
709793,-78,-33,5,2612,-25,-7989,1745226083388660854
709985,-76,-45,1,2339,74,-7820,1745226083388660854
710177,-96,-32,-2,2286,146,-7785,1745226083388660854
710369,-107,-27,-15,2373,295,-7685,1745226083388660854
710561,-92,-18,-42,2771,489,-7765,1745226083388660854
710753,-61,-35,-67,2642,471,-7892,1745226083388660854
710945,-45,-46,-62,2268,410,-7786,1745226083388660854
711137,-41,-48,-46,2257,358,-7571,1745226083388660854
711329,-20,-49,-46,2592,9,-7686,1745226083388660854
711521,-11,-60,-47,2627,-359,-7714,1745226083388660854
711713,-36,-85,-45,2487,-162,-7609,1745226083388660854
711905,-50,-92,-51,2702,71,-7525,1745226083448669473
712097,-49,-95,-40,2481,-165,-7553,1745226083448669473
712289,-35,-80,-31,2627,-338,-7529,1745226083448669473
712481,-78,-94,-39,2468,-818,-8090,1745226083448669473
712673,-162,-98,9,2733,-758,-7527,1745226083448669473
712865,-146,-108,-2,2837,-113,-7515,1745226083448669473
713057,-121,-100,-59,2336,385,-7527,1745226083448669473
713249,-85,-78,-73,2327,580,-7755,1745226083448669473
713441,-24,-65,-81,2408,251,-7869,1745226083448669473
713633,21,-55,-75,2444,-311,-7711,1745226083448669473
713825,11,-55,-58,2444,-674,-7596,1745226083448669473
714017,-36,-61,-46,2483,-637,-7566,1745226083448669473
714209,-70,-64,-43,2444,-380,-7645,1745226083499641507
714401,-75,-66,-47,2321,-170,-7579,1745226083499641507
714593,-65,-54,-54,2397,-160,-7471,1745226083499641507
714785,-64,-52,-58,2469,-197,-7576,1745226083499641507
714977,-67,-45,-48,2511,-184,-7579,1745226083499641507
715169,-72,-44,-41,2624,-252,-7626,1745226083499641507
715361,-81,-37,-34,2706,-254,-7577,1745226083499641507
715553,-89,-24,-25,2634,-233,-7682,1745226083499641507
715745,-93,-5,-8,2410,-236,-7798,1745226083499641507
715937,-94,16,1,2419,-301,-7777,1745226083499641507
716129,-95,29,-1,2566,-323,-7679,1745226083499641507
716321,-100,40,0,2608,-284,-7636,1745226083499641507
716513,-111,49,5,2609,-220,-7739,1745226083560405587
716705,-111,52,9,2757,-130,-7689,1745226083560405587
716897,-94,61,11,2820,-127,-7523,1745226083560405587
717089,-95,63,14,2879,-107,-7522,1745226083560405587
717281,-116,69,19,2930,-1,-7423,1745226083560405587
717473,-133,73,25,3008,137,-7525,1745226083560405587
717665,-132,81,35,2962,192,-7558,1745226083560405587
717857,-124,91,42,2903,125,-7665,1745226083560405587
718049,-120,97,51,2894,-8,-7681,1745226083560405587
718241,-127,104,62,2948,-86,-7634,1745226083560405587
718433,-155,104,66,2926,-7,-7612,1745226083560405587
718625,-192,111,67,2950,210,-7431,1745226083560405587
718817,-223,111,58,2986,461,-7422,1745226083623341054
719009,-234,112,46,2910,686,-7456,1745226083623341054
719201,-217,129,43,2734,709,-7309,1745226083623341054
719393,-189,128,37,2660,507,-7442,1745226083623341054
719585,-173,137,30,2595,252,-7448,1745226083623341054
719777,-177,132,28,2526,40,-7635,1745226083623341054
719969,-188,120,33,2422,14,-7954,1745226083623341054
720161,-204,113,34,2235,189,-8211,1745226083623341054
720353,-216,104,34,2147,450,-8384,1745226083623341054
720545,-214,98,33,2140,630,-8515,1745226083623341054
720737,-197,87,30,2100,634,-8559,1745226083623341054
720929,-171,87,29,2026,553,-8319,1745226083623341054
721121,-151,93,30,1997,413,-8169,1745226083675211518
721313,-138,96,33,1973,322,-8312,1745226083675211518
721505,-125,106,41,1932,335,-8342,1745226083675211518
721697,-111,113,48,1947,356,-8415,1745226083675211518
721889,-104,125,51,1924,324,-8106,1745226083675211518
722081,-105,144,58,1962,211,-8031,1745226083675211518
722273,-104,149,67,2018,105,-8002,1745226083675211518
722465,-95,160,78,2184,121,-8177,1745226083675211518
722657,-80,149,74,2346,239,-8223,1745226083675211518
722849,-72,148,60,2294,361,-7803,1745226083675211518
723041,-77,143,46,2185,377,-7618,1745226083675211518
723233,-83,142,44,2090,426,-7526,1745226083675211518
723425,-63,125,43,2144,536,-7833,1745226083740400662
723617,-19,115,37,2186,739,-7598,1745226083740400662
723809,24,108,24,2246,775,-7485,1745226083740400662
724001,48,104,21,2227,595,-7328,1745226083740400662
724193,55,104,35,2430,342,-7587,1745226083740400662
724385,77,94,54,2574,168,-7527,1745226083740400662
724577,93,97,64,2786,-17,-7304,1745226083740400662
724769,97,96,67,2760,-296,-6904,1745226083740400662
724961,77,96,75,2833,-569,-7164,1745226083740400662
725153,43,88,82,2979,-609,-7415,1745226083740400662
725345,14,70,81,3063,-416,-7529,1745226083740400662
725537,-11,70,81,2955,-187,-7255,1745226083740400662
725729,-28,61,88,2777,-129,-7482,1745226083799837411
725921,-31,63,97,2727,-111,-7677,1745226083799837411
726113,-20,56,98,2709,-135,-7569,1745226083799837411
726305,-3,70,98,2750,-294,-7146,1745226083799837411
726497,-4,70,97,2771,-485,-6922,1745226083799837411
726689,-16,68,104,2778,-538,-7278,1745226083799837411
726881,-33,60,113,2745,-328,-7381,1745226083799837411
727073,-38,78,122,2800,-123,-7293,1745226083799837411
727265,-43,78,125,2930,-68,-7161,1745226083799837411
727457,-53,86,130,3193,-56,-7412,1745226083799837411
727649,-64,67,132,3234,69,-7235,1745226083799837411
727841,-63,73,137,3206,246,-7162,1745226083799837411
728033,-61,59,135,2853,329,-7050,1745226083851348659
728225,-58,70,139,2741,288,-7396,1745226083851348659
728417,-64,72,136,2717,266,-7285,1745226083851348659
728609,-68,87,143,2810,235,-7153,1745226083851348659
728801,-72,90,151,2763,164,-7004,1745226083851348659
728993,-77,88,161,2732,176,-7411,1745226083851348659
729185,-86,83,163,2736,437,-7462,1745226083851348659
729377,-92,76,157,2904,704,-7498,1745226083851348659
729569,-94,74,154,2839,871,-7305,1745226083851348659
729761,-90,68,161,2682,893,-7850,1745226083851348659
729953,-64,59,159,2433,1026,-8013,1745226083851348659
730145,-13,49,145,2309,1076,-8259,1745226083851348659
730337,39,46,128,2053,880,-7986,1745226083924256639
730529,63,47,117,2125,463,-8273,1745226083924256639
730721,64,38,106,2259,218,-8210,1745226083924256639
730913,60,27,96,2530,184,-8303,1745226083924256639
731105,53,3,81,2368,262,-8152,1745226083924256639
731297,45,-6,77,2100,322,-8397,1745226083924256639
731489,46,-21,74,1831,362,-8611,1745226083924256639
731681,46,-32,64,1929,435,-8706,1745226083924256639
731873,51,-46,48,1992,442,-8511,1745226083924256639
732065,51,-52,50,1928,341,-8468,1745226083924256639
732257,54,-59,56,1696,170,-8576,1745226083924256639
732449,71,-62,60,1575,94,-8617,1745226083924256639
732641,88,-58,47,1738,18,-8308,1745226083972482604
732833,86,-61,31,1960,-157,-7892,1745226083972482604
733025,82,-65,28,2035,-282,-7923,1745226083972482604
733217,81,-80,24,1938,-199,-8251,1745226083972482604
733409,101,-88,16,1892,-14,-8329,1745226083972482604
733601,138,-89,4,2015,-67,-8012,1745226083972482604
733793,161,-85,-7,2281,-309,-7654,1745226083972482604
733985,142,-86,-15,2526,-508,-7414,1745226083972482604
734177,101,-96,-17,2720,-426,-7640,1745226083972482604
734369,72,-110,-21,2630,-83,-7895,1745226083972482604
734561,76,-115,-27,2385,340,-8153,1745226083972482604
734753,103,-110,-43,2207,527,-8068,1745226083972482604
734945,141,-102,-55,2219,397,-8055,1745226084033001531
735137,179,-89,-51,2338,85,-7955,1745226084033001531
735329,202,-80,-46,2525,-256,-8048,1745226084033001531
735521,211,-72,-39,2495,-487,-8036,1745226084033001531
735713,204,-56,-29,2453,-544,-8014,1745226084033001531
735905,196,-37,-18,2443,-534,-7889,1745226084033001531
736097,185,-21,-16,2542,-404,-7873,1745226084033001531
736289,176,-8,-14,2621,-205,-7923,1745226084033001531
736481,174,-4,-13,2636,88,-8125,1745226084033001531
736673,185,-12,-16,2527,376,-8462,1745226084033001531
736865,198,-22,-19,2406,567,-8415,1745226084033001531
737057,205,-27,-21,2491,602,-8290,1745226084033001531
737249,207,-37,-27,2616,643,-8116,1745226084092617757
737441,207,-41,-31,2729,770,-8027,1745226084092617757
737633,215,-49,-36,2816,827,-7925,1745226084092617757
737825,245,-44,-36,2886,735,-7739,1745226084092617757
738017,276,-36,-34,2960,395,-7444,1745226084092617757
738209,286,-21,-30,3110,76,-7032,1745226084092617757
738401,264,-13,-24,3331,-121,-6846,1745226084092617757
738593,231,-2,-7,3432,-95,-6691,1745226084092617757
738785,195,5,2,3571,27,-6831,1745226084092617757
738977,177,14,18,3517,105,-6972,1745226084092617757
739169,161,31,40,3358,0,-6980,1745226084092617757
739361,140,46,57,3368,-127,-6993,1745226084092617757
739553,123,52,71,3381,-263,-6903,1745226084148208812
739745,103,53,85,3402,-370,-7073,1745226084148208812
739937,76,46,99,3287,-421,-7109,1745226084148208812
740129,57,56,111,3358,-454,-6682,1745226084148208812
740321,52,76,117,3680,-606,-6391,1745226084148208812
740513,53,92,120,3829,-669,-6343,1745226084148208812
740705,40,106,120,4214,-553,-6507,1745226084148208812
740897,27,92,111,4625,-295,-6828,1745226084148208812
741089,-3,54,99,4413,175,-7465,1745226084148208812
741281,-79,23,104,3259,755,-7365,1745226084148208812
741473,-163,45,122,2975,973,-6927,1745226084148208812
741665,-135,90,128,3461,388,-6211,1745226084148208812
741857,5,168,128,3917,-860,-5532,1745226084213899357
742049,66,206,128,3999,-2189,-5709,1745226084213899357
742241,-5,212,169,3832,-2756,-6405,1745226084213899357
742433,-158,174,222,3320,-2466,-7462,1745226084213899357
742625,-319,108,251,2438,-1424,-8369,1745226084213899357
742817,-436,39,255,1656,-91,-9028,1745226084213899357
743009,-465,-23,222,1160,1240,-9326,1745226084213899357
743201,-414,-75,162,830,2099,-9843,1745226084213899357
743393,-294,-124,90,551,2196,-10422,1745226084213899357
743585,-150,-156,31,480,1450,-10375,1745226084213899357
743777,-23,-160,-2,492,267,-9709,1745226084213899357
743969,31,-143,-34,926,-736,-8849,1745226084213899357
744161,37,-116,-60,1539,-934,-8327,1745226084265510813
744353,33,-98,-80,1925,-389,-8253,1745226084265510813
744545,35,-85,-97,2071,337,-8374,1745226084265510813
744737,61,-69,-101,2137,661,-8173,1745226084265510813
744929,109,-40,-96,2547,488,-7858,1745226084265510813
745121,149,-22,-90,2903,105,-7557,1745226084265510813
745313,155,-5,-73,3163,-217,-7150,1745226084265510813
745505,122,-4,-53,3321,-382,-6853,1745226084265510813
745697,65,-4,-32,3325,-268,-6591,1745226084265510813
745889,22,3,-12,3389,-161,-6635,1745226084265510813
746081,21,2,1,3621,-216,-6683,1745226084265510813
746273,35,-4,5,3750,-385,-6597,1745226084265510813
746465,15,-20,21,3591,-534,-6807,1745226084332852958
746657,-57,-38,46,3272,-355,-6904,1745226084332852958
746849,-123,-45,71,3111,-44,-6946,1745226084332852958
747041,-125,-45,82,3207,20,-7042,1745226084332852958
747233,-100,-60,65,3280,-1,-7260,1745226084332852958
747425,-89,-79,54,3213,-49,-7291,1745226084332852958
747617,-106,-89,51,3117,-128,-7314,1745226084332852958
747809,-143,-90,46,2910,-81,-7471,1745226084332852958
748001,-167,-82,52,2862,-38,-7830,1745226084332852958
748193,-152,-78,52,2921,-215,-8036,1745226084332852958
748385,-124,-73,49,2840,-540,-7944,1745226084332852958
748577,-140,-63,49,2706,-666,-7605,1745226084332852958
748769,-196,-51,44,2671,-296,-7590,1745226084380673303
748961,-242,-43,43,2334,319,-7938,1745226084380673303
749153,-228,-30,45,2379,626,-8192,1745226084380673303
749345,-156,-29,22,2596,336,-8185,1745226084380673303
749537,-101,-34,9,2327,-169,-7990,1745226084380673303
749729,-116,-25,14,2492,-452,-7624,1745226084380673303
749921,-158,-30,15,2644,-384,-7607,1745226084380673303
750113,-188,-32,25,2391,-102,-7705,1745226084380673303
750305,-194,-25,34,2497,29,-7735,1745226084380673303
750497,-171,-28,27,2732,-84,-7736,1745226084380673303
750689,-140,-25,26,2554,-309,-7623,1745226084380673303
750881,-139,-12,32,2603,-445,-7321,1745226084380673303
751073,-158,-8,26,2792,-479,-7346,1745226084442143158
751265,-182,-7,32,2614,-324,-7449,1745226084442143158
751457,-190,-3,44,2624,-201,-7523,1745226084442143158
751649,-178,-1,39,2775,-218,-7496,1745226084442143158
751841,-165,-7,34,2558,-245,-7350,1745226084442143158
752033,-165,0,42,2516,-331,-7327,1745226084442143158
752225,-169,-3,41,2697,-301,-7287,1745226084442143158
752417,-178,-14,28,2693,-92,-7422,1745226084442143158
752609,-193,-29,25,2546,207,-7671,1745226084442143158
752801,-191,-37,31,2598,301,-7582,1745226084442143158
752993,-167,-39,25,2733,121,-7340,1745226084442143158
753185,-156,-47,17,2775,-63,-7220,1745226084442143158
753377,-160,-51,25,2742,-140,-7160,1745226084493656177
753377,-160,-51,25,2742,-140,-7160,1745226084493656177
753569,-174,-53,33,2812,-106,-7019,1745226084493656177
753761,-203,-61,24,2921,133,-7246,1745226084493656177
753953,-218,-75,25,2659,541,-7650,1745226084493656177
754145,-196,-67,39,2413,608,-7651,1745226084493656177
754337,-161,-46,33,2684,261,-7426,1745226084493656177
754529,-149,-37,18,2893,3,-7489,1745226084493656177
754721,-158,-32,26,2773,37,-7707,1745226084493656177
754913,-168,-22,40,2788,100,-7705,1745226084493656177
755105,-180,-11,37,2987,19,-7515,1745226084493656177
755297,-202,-3,33,2942,129,-7641,1745226084493656177
755489,-223,7,40,2736,340,-7789,1745226084553932189
755681,-224,23,43,2704,382,-7765,1745226084553932189
755873,-217,43,36,2808,250,-7538,1745226084553932189
756065,-231,51,29,2843,231,-7622,1745226084553932189
756257,-256,48,24,2794,511,-7945,1745226084553932189
756449,-248,50,25,2588,648,-7908,1745226084553932189
756641,-223,69,22,2505,348,-7541,1745226084553932189
756833,-223,89,19,2748,-84,-7280,1745226084553932189
757025,-250,91,14,2983,-123,-7360,1745226084553932189
757217,-274,80,15,2867,199,-7625,1745226084553932189
757409,-278,71,18,2643,455,-7724,1745226084553932189
757601,-266,70,21,2587,346,-7685,1745226084553932189
757793,-254,78,24,2709,96,-7538,1745226084611631505
757985,-257,84,23,2762,-12,-7547,1745226084611631505
758177,-271,84,20,2756,83,-7638,1745226084611631505
758369,-286,82,22,2681,194,-7659,1745226084611631505
758561,-294,87,20,2722,280,-7678,1745226084611631505
758753,-296,90,11,2688,371,-7763,1745226084611631505
758945,-293,89,0,2575,489,-7904,1745226084611631505
759137,-286,96,-8,2538,553,-7863,1745226084611631505
759329,-275,99,-17,2555,446,-7885,1745226084611631505
759521,-263,102,-24,2493,338,-7903,1745226084611631505
759713,-265,100,-34,2403,272,-7960,1745226084611631505
759905,-280,95,-45,2359,322,-8015,1745226084611631505
760097,-298,88,-52,2345,476,-7967,1745226084673774844
760289,-311,81,-62,2399,654,-7957,1745226084673774844
760481,-312,70,-78,2415,886,-7886,1745226084673774844
760673,-300,59,-90,2301,1027,-7934,1745226084673774844
760865,-278,54,-97,2177,1064,-7956,1745226084673774844
761057,-248,51,-104,2123,962,-8029,1745226084673774844
761249,-216,51,-107,2071,740,-8010,1745226084673774844
761441,-206,53,-112,2156,584,-7957,1745226084673774844
761633,-221,45,-123,2250,625,-7917,1745226084673774844
761825,-246,34,-127,2248,854,-7921,1745226084673774844
762017,-260,21,-128,2247,1068,-8011,1745226084673774844
762209,-250,7,-131,2227,1186,-8173,1745226084673774844
762401,-217,-5,-133,2134,1103,-8170,1745226084743711028
762593,-178,-7,-130,1992,834,-8135,1745226084743711028
762785,-156,-4,-127,1966,530,-8028,1745226084743711028
762977,-149,-2,-122,1951,284,-7984,1745226084743711028
763169,-155,-2,-113,2044,188,-7943,1745226084743711028
763361,-171,-11,-107,2117,273,-7991,1745226084743711028
763553,-184,-26,-102,2108,490,-8075,1745226084743711028
763745,-192,-40,-97,2075,718,-8171,1745226084743711028
763937,-188,-56,-94,2020,897,-8206,1745226084743711028
764129,-168,-60,-87,1951,953,-8180,1745226084743711028
764321,-131,-62,-76,1944,820,-8162,1745226084743711028
764513,-90,-63,-70,2016,684,-8111,1745226084743711028
764705,-65,-75,-73,1995,585,-8107,1745226084787116881
764897,-62,-78,-68,1995,642,-7971,1745226084787116881
765089,-69,-78,-58,2048,763,-7755,1745226084787116881
765281,-62,-73,-42,2077,803,-7658,1745226084787116881
765473,-25,-61,-24,2175,712,-7548,1745226084787116881
765665,22,-50,-12,2259,419,-7497,1745226084787116881
765857,42,-54,-9,2501,269,-7553,1745226084787116881
766049,30,-71,-8,2509,379,-7655,1745226084787116881
766241,-3,-87,-1,2413,697,-7596,1745226084787116881
766433,-25,-95,5,2488,1050,-7713,1745226084787116881
766625,4,-104,14,2316,1045,-7902,1745226084787116881
766817,66,-93,21,2441,738,-7822,1745226084787116881
767009,112,-99,13,2462,289,-7814,1745226084848255906
767201,109,-97,16,2439,19,-7539,1745226084848255906
767393,60,-90,27,2559,93,-7355,1745226084848255906
767585,19,-89,41,2512,368,-7625,1745226084848255906
767777,35,-84,57,2506,522,-7909,1745226084848255906
767969,76,-76,51,2603,467,-7775,1745226084848255906
768161,87,-75,38,2641,318,-7622,1745226084848255906
768353,60,-70,42,2540,330,-7480,1745226084848255906
768545,23,-65,47,2391,531,-7687,1745226084848255906
768737,24,-59,51,2373,685,-8000,1745226084848255906
768929,66,-52,45,2500,596,-7963,1745226084848255906
769121,101,-40,32,2578,322,-7586,1745226084848255906
769313,90,-31,30,2479,31,-7384,1745226084904486018
769505,44,-18,37,2400,70,-7427,1745226084904486018
769697,8,-14,40,2339,381,-7829,1745226084904486018
769889,14,-13,34,2416,711,-7924,1745226084904486018
770081,41,-12,13,2457,836,-7659,1745226084904486018
770273,54,-11,-1,2328,734,-7387,1745226084904486018
770465,38,-1,-4,2289,656,-7323,1745226084904486018
770657,22,2,-13,2338,798,-7705,1745226084904486018
770849,36,-5,-28,2615,1133,-8072,1745226084904486018
771041,81,-13,-49,2562,1255,-8047,1745226084904486018
771233,113,-10,-60,2421,977,-7674,1745226084904486018
771425,94,0,-61,2453,752,-7532,1745226084904486018
771617,63,9,-52,2553,853,-7867,1745226084963894329
771809,68,8,-49,2568,1132,-8040,1745226084963894329
772001,103,7,-56,2459,1117,-8010,1745226084963894329
772193,135,11,-53,2272,726,-7784,1745226084963894329
772385,139,25,-35,2244,346,-7603,1745226084963894329
772577,129,40,-23,2336,335,-7705,1745226084963894329
772769,116,44,-9,2388,414,-7754,1745226084963894329
772961,107,34,-15,2553,666,-7816,1745226084963894329
773153,101,32,-7,2449,812,-7727,1745226084963894329
773345,93,40,3,2275,793,-7610,1745226084963894329
773537,95,46,4,2331,719,-7702,1745226084963894329
773729,116,48,-1,2560,664,-7818,1745226084963894329
773921,145,41,-8,2641,587,-7808,1745226085021077505
774113,152,28,-17,2492,477,-7751,1745226085021077505
774305,131,18,-14,2307,296,-7879,1745226085021077505
774497,101,12,-6,2326,279,-8035,1745226085021077505
774689,98,10,1,2268,184,-8105,1745226085021077505
774881,113,14,8,2435,43,-7894,1745226085021077505
775073,108,17,3,2715,80,-7599,1745226085021077505
775265,76,11,4,2648,465,-7751,1745226085021077505
775457,55,8,7,2414,964,-8013,1745226085021077505
775649,68,10,1,2346,1181,-8186,1745226085021077505
775841,123,15,-2,2206,891,-8153,1745226085021077505
776033,176,26,-4,2324,406,-7796,1745226085021077505
776225,177,24,-11,2540,244,-7640,1745226085079693115
776417,143,14,-7,2571,578,-7776,1745226085079693115
776609,113,-1,1,2346,938,-8051,1745226085079693115
776801,109,1,12,2425,1011,-7958,1745226085079693115
776993,134,11,18,2427,713,-7763,1745226085079693115
777185,164,30,27,2437,339,-7440,1745226085079693115
777377,165,47,31,2641,125,-7163,1745226085079693115
777569,134,49,31,2887,458,-7292,1745226085079693115
777761,113,36,36,2640,948,-7692,1745226085079693115
777953,125,25,39,2470,1014,-7911,1745226085079693115
778145,151,28,41,2567,669,-7585,1745226085079693115
778337,158,40,46,2644,213,-7535,1745226085079693115
778529,136,44,61,2597,38,-7645,1745226085140038814
778721,104,45,67,2753,232,-7830,1745226085140038814
778913,73,50,68,2692,584,-8166,1745226085140038814
779105,46,68,76,2432,930,-8490,1745226085140038814
779297,51,83,82,2313,1028,-8662,1745226085140038814
779489,95,104,70,2438,949,-8438,1745226085140038814
779681,155,129,53,2439,716,-8123,1745226085140038814
779873,187,142,37,2381,482,-8120,1745226085140038814
780065,192,155,34,2327,432,-8163,1745226085140038814
780257,178,163,30,2387,498,-8085,1745226085140038814
780449,151,166,25,2405,698,-8061,1745226085140038814
780641,138,164,20,2468,1047,-8241,1745226085140038814
780833,156,151,10,2261,1264,-8261,1745226085195242007
781025,199,152,3,2299,1079,-8120,1745226085195242007
781217,228,145,-7,2300,685,-7863,1745226085195242007
781409,236,149,-7,2339,437,-7750,1745226085195242007
781601,227,149,-9,2311,328,-7859,1745226085195242007
781793,216,154,-5,2332,289,-7844,1745226085195242007
781985,198,147,-12,2484,347,-7988,1745226085195242007
782177,193,135,-11,2539,601,-8106,1745226085195242007
782369,205,125,-9,2426,700,-8391,1745226085195242007
782561,239,115,-3,2187,488,-8440,1745226085195242007
782753,271,127,4,2094,12,-7971,1745226085195242007
782945,273,150,5,2408,-264,-7714,1745226085195242007
783137,261,161,10,2490,-131,-7692,1745226085256153482
783329,258,162,8,2401,48,-8133,1745226085256153482
783521,272,157,5,2303,61,-8220,1745226085256153482
783713,290,162,6,2351,-115,-7962,1745226085256153482
783905,287,157,2,2447,-194,-7884,1745226085256153482
784097,279,148,1,2424,-104,-7782,1745226085256153482
784289,279,138,-5,2366,-79,-7747,1745226085256153482
784481,292,132,-8,2415,-137,-7670,1745226085256153482
784673,301,120,-19,2535,-189,-7758,1745226085256153482
784865,296,103,-25,2488,-181,-7855,1745226085256153482
785057,290,94,-23,2386,-201,-7810,1745226085256153482
785249,291,85,-28,2519,-244,-7756,1745226085256153482
785441,291,73,-37,2496,-254,-7505,1745226085313378168
785633,283,70,-38,2564,-219,-7539,1745226085313378168
785825,281,59,-41,2616,-177,-7487,1745226085313378168
786017,285,54,-49,2705,-176,-7454,1745226085313378168
786209,276,36,-61,2801,-130,-7496,1745226085313378168
786401,267,24,-66,2865,-22,-7455,1745226085313378168
786593,262,14,-72,2813,43,-7527,1745226085313378168
786785,264,11,-72,2800,11,-7513,1745226085313378168
786977,279,9,-77,2815,-179,-7481,1745226085313378168
787169,290,3,-84,2875,-385,-7454,1745226085313378168
787361,279,-6,-90,3006,-450,-7334,1745226085313378168
787553,251,-15,-90,2992,-412,-7144,1745226085313378168
787745,219,-24,-89,3074,-265,-7173,1745226085372752573
787937,206,-30,-93,3054,-71,-7274,1745226085372752573
788129,196,-44,-97,2910,57,-7383,1745226085372752573
788321,194,-46,-97,2948,99,-7300,1745226085372752573
788513,199,-51,-106,3035,146,-7267,1745226085372752573
788705,197,-53,-113,3020,207,-7293,1745226085372752573
