timestamp,gyr_x,gyr_y,gyr_z,acc_x,acc_y,acc_z,pkt_time_ns
140896,-295,161,9,1541,3830,-7370,1745203219140587533
141088,-261,70,7,1100,2638,-7794,1745203219140587533
141280,-142,35,-9,1547,3395,-7564,1745203219140587533
141472,-102,39,-13,1628,3380,-7500,1745203219140587533
141664,-53,55,-16,1510,3356,-7537,1745203219140587533
141856,9,30,-26,1438,3426,-7464,1745203219140587533
142048,46,58,-32,1438,3360,-7458,1745203219140587533
142240,98,54,-36,1600,3069,-7485,1745203219140587533
142432,112,22,-37,1762,2808,-7543,1745203219140587533
142624,103,16,-33,1792,2641,-7527,1745203219140587533
142816,103,1,-26,1672,2581,-7461,1745203219140587533
143008,77,-10,-22,1575,2443,-7443,1745203219140587533
143200,34,-23,-21,1661,2201,-7514,1745203219196802228
143584,-70,-61,0,1614,2107,-7608,1745203219196802228
143776,-117,-61,8,1495,2231,-7628,1745203219196802228
143968,-159,-63,6,1400,2374,-7617,1745203219196802228
144160,-198,-61,-3,1383,2454,-7595,1745203219196802228
144352,-212,-61,-10,1374,2455,-7592,1745203219196802228
144544,-226,-58,-5,1360,2510,-7585,1745203219196802228
144736,-228,-50,4,1369,2572,-7616,1745203219196802228
144928,-215,-48,14,1399,2760,-7691,1745203219196802228
145120,-198,-48,15,1414,2954,-7744,1745203219196802228
145312,-173,-52,10,1583,3273,-7738,1745203219196802228
145504,-116,-70,8,1776,3668,-7735,1745203219196802228
145696,-32,-81,4,1717,3972,-7746,1745203219252990465
145888,60,-76,-11,1524,4085,-7763,1745203219252990465
146080,154,-57,-36,1293,4090,-7734,1745203219252990465
146272,258,-28,-59,1058,4009,-7731,1745203219252990465
146464,363,18,-72,744,3879,-7747,1745203219252990465
146656,284,75,-82,324,2563,-7756,1745203219252990465
146848,388,151,-70,995,4568,-7910,1745203219252990465
147040,520,184,-49,393,4593,-9788,1745203219252990465
147232,5,174,-38,-183,2158,-5067,1745203219252990465
147424,626,186,-103,864,2998,-5322,1745203219252990465
147616,672,360,-88,1300,1908,-6922,1745203219252990465
147808,631,348,-30,1813,1419,-7676,1745203219252990465
148000,486,280,18,2394,952,-7556,1745203219313546006
148192,327,241,43,2699,833,-7743,1745203219313546006
148384,179,168,43,2774,995,-7783,1745203219313546006
148576,46,98,25,2675,1361,-7729,1745203219313546006
148768,-49,40,3,2349,1768,-7713,1745203219313546006
148960,-108,-1,-16,1987,2143,-7683,1745203219313546006
149152,-133,-20,-28,1619,2414,-7618,1745203219313546006
149344,-132,-17,-36,1335,2546,-7579,1745203219313546006
149536,-131,3,-42,1200,2551,-7557,1745203219313546006
149728,-141,36,-49,1241,2464,-7552,1745203219313546006
149920,-168,73,-59,1398,2302,-7578,1745203219313546006
150112,-220,106,-65,1629,2155,-7600,1745203219313546006
150304,-291,132,-69,1886,2029,-7544,1745203219376656314
150496,-379,144,-67,2094,1930,-7390,1745203219376656314
150688,-484,143,-60,2277,1798,-7189,1745203219376656314
150880,-598,134,-49,2423,1773,-7345,1745203219376656314
151072,-727,124,-43,2555,1840,-7397,1745203219376656314
151264,-870,113,-59,2615,1952,-7234,1745203219376656314
151456,-1007,104,-84,2626,2130,-7607,1745203219376656314
151648,-1136,94,-107,2674,2397,-7858,1745203219376656314
151840,-1253,65,-131,2701,2695,-7864,1745203219376656314
152032,-1380,38,-155,2656,2991,-7764,1745203219376656314
152224,-1554,15,-182,2556,3010,-8085,1745203219376656314
152416,-1736,-10,-199,2504,2842,-8231,1745203219376656314
152608,-1894,-36,-212,2434,2590,-8579,1745203219434769377
152800,-2034,-81,-224,2342,2334,-9185,1745203219434769377
152992,-2158,-140,-240,2336,2117,-9657,1745203219434769377
153184,-2261,-202,-256,2414,2127,-9917,1745203219434769377
153376,-2332,-266,-276,2557,2363,-9764,1745203219434769377
153568,-2368,-327,-299,2723,2806,-9324,1745203219434769377
153760,-2396,-372,-331,2873,3335,-8878,1745203219434769377
153952,-2447,-400,-390,3065,3743,-8327,1745203219434769377
154144,-2563,-342,-534,3720,3812,-5298,1745203219434769377
154336,-3242,39,-844,4366,5787,1539,1745203219434769377
154528,-5060,539,-988,4910,5906,-1859,1745203219434769377
154720,-6057,359,-927,5502,5279,-7023,1745203219434769377
154912,-5753,-21,-937,6094,7306,-4398,1745203219490601940
155104,-5245,-9,-1114,6023,10870,-3037,1745203219490601940
155296,-4891,124,-1257,5736,14764,-2673,1745203219490601940
155488,-4490,311,-1417,5525,17805,-2420,1745203219490601940
155680,-3917,383,-1686,5640,19497,-2379,1745203219490601940
155872,-3156,361,-1988,5539,20053,-2236,1745203219490601940
156064,-2261,398,-2130,5941,19462,-2255,1745203219490601940
156256,-1505,340,-2330,6162,17506,-2929,1745203219490601940
156448,-982,392,-2624,6009,15299,-3659,1745203219490601940
156640,-686,528,-2816,5889,13014,-4144,1745203219490601940
156832,-574,622,-2885,5855,11151,-4602,1745203219490601940
157024,-604,709,-2903,5823,9926,-4931,1745203219490601940
157216,-747,761,-2947,5666,9335,-5079,1745203219554342348
157408,-965,824,-3035,5332,9129,-5111,1745203219554342348
157600,-1195,906,-3139,4911,9128,-4925,1745203219554342348
157792,-1388,1015,-3227,4424,9299,-4593,1745203219554342348
157984,-1523,1133,-3294,3992,9521,-4353,1745203219554342348
158176,-1595,1254,-3360,3634,9697,-4224,1745203219554342348
158368,-1616,1355,-3435,3329,9727,-4252,1745203219554342348
158560,-1578,1436,-3505,3036,9672,-4420,1745203219554342348
158752,-1474,1503,-3546,2746,9609,-4642,1745203219554342348
158944,-1332,1547,-3556,2478,9522,-4897,1745203219554342348
159136,-1163,1569,-3542,2228,9323,-5320,1745203219554342348
159328,-994,1566,-3523,1995,8937,-5690,1745203219554342348
159520,-819,1544,-3516,1752,8434,-5945,1745203219612611711
159712,-642,1497,-3518,1439,7847,-6220,1745203219612611711
159904,-464,1428,-3515,1081,7221,-6608,1745203219612611711
160096,-294,1333,-3499,686,6562,-6956,1745203219612611711
160288,-133,1230,-3472,166,5984,-7054,1745203219612611711
160480,29,1145,-3432,-469,5516,-7018,1745203219612611711
160672,208,1072,-3376,-1148,5119,-7049,1745203219612611711
160864,401,1008,-3304,-1764,4757,-7088,1745203219612611711
161056,611,943,-3219,-2295,4343,-7298,1745203219612611711
161248,836,861,-3128,-2685,3906,-7481,1745203219612611711
161440,1061,760,-3032,-2914,3354,-7605,1745203219612611711
161632,1263,641,-2926,-3013,2690,-7903,1745203219612611711
161824,1422,519,-2821,-2978,2017,-8364,1745203219666868872
162016,1521,392,-2723,-2878,1339,-8837,1745203219666868872
162208,1540,241,-2633,-2831,368,-9556,1745203219666868872
162400,1497,69,-2531,-2706,-683,-9845,1745203219666868872
162592,1430,-94,-2385,-2656,-1844,-10269,1745203219666868872
162784,1433,-324,-2201,-2658,-3119,-10165,1745203219666868872
162976,1539,-591,-2003,-2550,-4256,-10329,1745203219666868872
163168,1319,-780,-1804,-2598,-5105,-11615,1745203219666868872
163360,893,-926,-1619,-2803,-6300,-10587,1745203219666868872
163552,653,-1132,-1443,-3097,-7161,-10401,1745203219666868872
163744,331,-1315,-1255,-3411,-7908,-10270,1745203219666868872
163936,-80,-1451,-1042,-3692,-8279,-10041,1745203219666868872
164128,-555,-1508,-799,-4787,-8839,-9554,1745203219727446339
164320,-877,-1673,-639,-5063,-8291,-9318,1745203219727446339
164512,-1261,-1719,-454,-5349,-7681,-8672,1745203219727446339
164704,-1626,-1731,-326,-5317,-6850,-8151,1745203219727446339
164896,-1946,-1785,-250,-5126,-5576,-7689,1745203219727446339
165088,-2191,-1865,-138,-4922,-4086,-7299,1745203219727446339
165280,-2351,-1937,26,-4619,-2587,-7323,1745203219727446339
165472,-2616,-2002,180,-4061,-2070,-6540,1745203219727446339
165664,-2446,-2145,282,-3562,266,-5589,1745203219727446339
165856,-2217,-2256,427,-4365,453,-5620,1745203219727446339
166048,-2118,-2392,612,-3645,1356,-5357,1745203219727446339
166240,-2050,-2521,701,-3764,1539,-5245,1745203219727446339
166432,-2073,-2736,868,-3804,1440,-4861,1745203219783881240
166624,-2150,-3018,1100,-3602,1448,-4438,1745203219783881240
166816,-2176,-3242,1053,-1952,2730,-1364,1745203219783881240
167008,-1958,-3116,983,-4541,1268,-1086,1745203219783881240
167200,-1758,-2955,1016,-4222,1717,-930,1745203219783881240
167392,-1722,-2781,1099,-4448,1505,504,1745203219783881240
167584,-1705,-2374,1201,-5064,1708,412,1745203219783881240
167776,-1731,-2079,1241,-5393,2122,416,1745203219783881240
167968,-1798,-1881,1268,-5520,2866,1235,1745203219783881240
168160,-1873,-1614,1299,-5413,4038,2203,1745203219783881240
168352,-1900,-1310,1329,-5202,5823,3244,1745203219783881240
168544,-1862,-957,1350,-4866,8376,4114,1745203219783881240
168736,-1731,-570,1351,-4307,11501,4793,1745203219842428049
168928,-1471,-167,1302,-3780,14716,5447,1745203219842428049
169120,-1074,99,1213,-3323,17677,4249,1745203219842428049
169312,-603,132,1036,-546,19044,10569,1745203219842428049
169504,43,684,839,-568,20347,9362,1745203219842428049
169696,609,988,736,160,19875,9289,1745203219842428049
169888,1142,1197,716,999,18342,9301,1745203219842428049
170080,1526,1416,688,1522,16339,9240,1745203219842428049
170272,1748,1612,594,1366,14746,8940,1745203219842428049
170464,1853,1814,504,948,13514,8999,1745203219842428049
170656,1873,2014,399,457,12615,8700,1745203219842428049
170848,1842,2194,287,-137,12017,8059,1745203219842428049
171040,1746,2334,112,-512,11262,7039,1745203219902558854
171232,1564,2471,-175,-1472,11014,5872,1745203219902558854
171424,1337,2648,-394,-2250,10866,4823,1745203219902558854
171616,1100,2837,-546,-2850,10777,3787,1745203219902558854
171808,891,3029,-663,-3342,10821,2649,1745203219902558854
172000,708,3207,-748,-3709,10983,1720,1745203219902558854
172192,553,3368,-814,-3925,11138,971,1745203219902558854
172384,418,3501,-876,-3971,11192,194,1745203219902558854
172576,309,3611,-933,-3883,11187,-676,1745203219902558854
172768,223,3696,-984,-3635,11076,-1555,1745203219902558854
172960,174,3761,-1036,-3289,10922,-2365,1745203219902558854
173152,173,3789,-1090,-2768,10696,-3111,1745203219902558854
173344,215,3767,-1154,-2219,10492,-4052,1745203219961246703
173536,291,3691,-1223,-1677,10237,-5127,1745203219961246703
173728,403,3576,-1290,-1164,9886,-6286,1745203219961246703
173920,550,3430,-1343,-689,9485,-7442,1745203219961246703
174112,725,3257,-1384,-292,8998,-8436,1745203219961246703
174304,911,3058,-1413,60,8339,-9454,1745203219961246703
174496,1092,2835,-1435,311,7495,-10297,1745203219961246703
174688,1246,2601,-1455,535,6541,-11165,1745203219961246703
174880,1352,2361,-1480,510,5391,-11750,1745203219961246703
175072,1364,2140,-1490,928,4219,-12632,1745203219961246703
175264,1349,1897,-1520,956,3102,-13003,1745203219961246703
175456,1241,1662,-1529,1147,2029,-13319,1745203219961246703
175648,1086,1423,-1524,1275,1116,-13624,1745203220019285965
175840,883,1195,-1510,1593,312,-13636,1745203220019285965
176032,642,961,-1477,1775,-355,-13809,1745203220019285965
176224,373,685,-1422,1916,-837,-13951,1745203220019285965
176416,88,405,-1349,1956,-1088,-14138,1745203220019285965
176608,-190,113,-1261,1925,-1207,-14330,1745203220019285965
176800,-441,-173,-1167,1721,-1141,-14472,1745203220019285965
176992,-645,-452,-1067,1457,-946,-14469,1745203220019285965
177184,-790,-732,-973,1104,-646,-14346,1745203220019285965
177376,-886,-986,-874,675,-283,-14066,1745203220019285965
177568,-946,-1206,-763,338,13,-13546,1745203220019285965
177760,-979,-1434,-656,10,207,-12967,1745203220019285965
177952,-993,-1595,-554,-312,446,-12254,1745203220078584902
178144,-986,-1756,-443,-469,604,-11446,1745203220078584902
178336,-970,-1888,-341,-506,677,-10640,1745203220078584902
178528,-949,-2009,-254,-466,793,-9931,1745203220078584902
178720,-932,-2121,-162,-286,912,-9269,1745203220078584902
178912,-924,-2241,-67,-84,997,-8644,1745203220078584902
179104,-921,-2352,33,3,1052,-8095,1745203220078584902
179296,-915,-2437,145,-33,1210,-7540,1745203220078584902
179488,-915,-2462,225,179,839,-7037,1745203220078584902
179680,-980,-2532,156,475,282,-6542,1745203220078584902
179872,-1126,-2648,54,652,319,-5920,1745203220078584902
180064,-1302,-2756,92,519,410,-5279,1745203220078584902
180256,-1446,-2794,261,262,553,-4442,1745203220134724181
180448,-1567,-2813,459,211,914,-3601,1745203220134724181
180640,-1684,-2832,624,111,1539,-3040,1745203220134724181
180832,-1793,-2837,768,-98,2384,-2668,1745203220134724181
181024,-1882,-2841,874,-50,2772,-2221,1745203220134724181
181216,-1960,-2884,902,38,3308,-1783,1745203220134724181
181408,-2027,-2910,910,-304,3874,-1412,1745203220134724181
181600,-2051,-2868,969,-774,4517,-796,1745203220134724181
181792,-2038,-2830,1060,-1059,5034,103,1745203220134724181
181984,-2021,-2787,1111,-1248,5237,767,1745203220134724181
182176,-2047,-2719,1098,-1499,5800,1648,1745203220134724181
182368,-2101,-2579,1057,-1963,6816,2432,1745203220134724181
182560,-2122,-2374,1077,-2305,8016,3125,1745203220193145002
182752,-2074,-2149,1146,-2518,9528,4671,1745203220193145002
182944,-1946,-1839,1184,-2545,10913,5278,1745203220193145002
183136,-1734,-1545,1165,-2305,12303,6071,1745203220193145002
183328,-1526,-1289,1117,-1648,13250,6608,1745203220193145002
183520,-1288,-1086,1071,-817,13888,7397,1745203220193145002
183712,-872,-877,948,-202,14290,7900,1745203220193145002
183904,-489,-622,791,336,14054,8107,1745203220193145002
184096,-217,-394,647,644,13159,8244,1745203220193145002
184288,18,-175,556,726,11682,8562,1745203220193145002
184480,234,11,511,453,10200,8722,1745203220193145002
184672,377,221,483,-183,8950,8822,1745203220193145002
184864,436,462,447,-1183,8078,8830,1745203220254648294
185056,423,753,410,-2239,7675,8706,1745203220254648294
185248,378,1071,394,-3146,7604,8302,1745203220254648294
185440,317,1369,388,-3730,7692,7692,1745203220254648294
185632,252,1634,393,-3931,7783,6874,1745203220254648294
185824,184,1863,419,-3835,7815,6110,1745203220254648294
186016,120,2055,470,-3530,7787,5451,1745203220254648294
186208,51,2209,530,-3101,7697,4821,1745203220254648294
186400,-42,2320,571,-2669,7554,4287,1745203220254648294
186592,-166,2405,580,-2398,7549,3877,1745203220254648294
186784,-308,2494,581,-2352,7597,3453,1745203220254648294
186976,-436,2599,595,-2456,7626,3037,1745203220254648294
187168,-524,2712,621,-2581,7664,2481,1745203220312612660
187360,-560,2820,651,-2707,7746,1905,1745203220312612660
187552,-549,2916,682,-2727,7821,1344,1745203220312612660
187744,-503,2982,706,-2626,7824,879,1745203220312612660
187936,-437,3023,720,-2409,7732,503,1745203220312612660
188128,-367,3045,720,-2154,7544,62,1745203220312612660
188320,-309,3062,713,-1916,7233,-576,1745203220312612660
188512,-269,3080,715,-1664,6860,-1273,1745203220312612660
188704,-242,3097,722,-1328,6464,-1961,1745203220312612660
188896,-227,3102,730,-998,6056,-2741,1745203220312612660
189088,-233,3082,726,-695,5696,-3397,1745203220312612660
189280,-261,3047,695,-412,5432,-3968,1745203220312612660
189472,-308,2991,646,-176,5323,-4389,1745203220367993092
189664,-365,2929,593,-21,5464,-4722,1745203220367993092
189856,-420,2869,545,67,5832,-5064,1745203220367993092
190048,-465,2807,507,127,6409,-5379,1745203220367993092
190240,-490,2742,473,150,7148,-5740,1745203220367993092
190432,-481,2674,435,155,8019,-6114,1745203220367993092
190624,-430,2593,388,198,8897,-6519,1745203220367993092
190816,-342,2491,339,276,9710,-7082,1745203220367993092
191008,-221,2367,301,390,10364,-7769,1745203220367993092
191200,-79,2219,278,548,10763,-8524,1745203220367993092
191392,71,2050,262,757,10865,-9293,1745203220367993092
191584,221,1865,242,954,10712,-10062,1745203220367993092
191776,355,1666,217,1137,10530,-10800,1745203220428324103
191968,464,1459,184,1259,10211,-11423,1745203220428324103
192160,538,1254,138,1327,9893,-11871,1745203220428324103
192352,579,1026,91,1363,9570,-12168,1745203220428324103
192544,592,793,46,1386,9273,-12387,1745203220428324103
192736,578,538,7,1359,8987,-12493,1745203220428324103
192928,551,281,-29,1261,8733,-12481,1745203220428324103
193120,516,22,-66,1215,8390,-12324,1745203220428324103
193312,470,-229,-122,970,8063,-12068,1745203220428324103
193504,405,-466,-163,806,7762,-11787,1745203220428324103
193696,325,-704,-191,633,7447,-11488,1745203220428324103
193888,221,-918,-208,484,7145,-11151,1745203220428324103
194080,109,-1127,-213,343,6863,-10821,1745203220484838847
194272,-8,-1315,-214,188,6837,-10443,1745203220484838847
194464,-110,-1455,-208,-20,6701,-9972,1745203220484838847
194656,-225,-1540,-290,191,6184,-9735,1745203220484838847
194848,-387,-1738,-441,132,6018,-9194,1745203220484838847
195040,-561,-1925,-469,318,6071,-8617,1745203220484838847
195232,-667,-2129,-367,335,6145,-8034,1745203220484838847
195424,-721,-2240,-241,143,6472,-7585,1745203220484838847
195616,-759,-2358,-156,88,6798,-7254,1745203220484838847
195808,-801,-2480,-147,117,7016,-6834,1745203220484838847
196000,-835,-2631,-176,88,7044,-6359,1745203220484838847
196192,-857,-2782,-205,-84,6987,-5970,1745203220484838847
196384,-869,-2867,-203,-518,6728,-5680,1745203220564188123
196576,-885,-2938,-181,-498,6298,-5357,1745203220564188123
196768,-939,-3060,-166,-331,5783,-5151,1745203220564188123
196960,-1052,-3128,-206,-395,5176,-4846,1745203220564188123
197152,-1204,-3209,-234,-541,5178,-4222,1745203220564188123
197344,-1352,-3253,-167,-693,5334,-3647,1745203220564188123
197536,-1475,-3279,-53,-742,5632,-3115,1745203220564188123
197728,-1582,-3301,25,-753,5886,-2464,1745203220564188123
197920,-1690,-3321,23,-703,6129,-1809,1745203220564188123
198112,-1785,-3362,-36,-683,6304,-1197,1745203220564188123
198304,-1836,-3406,-85,-635,6464,-592,1745203220564188123
198496,-1840,-3425,-97,-708,6420,-43,1745203220564188123
198688,-1820,-3421,-78,-668,6491,448,1745203220601769706
198880,-1788,-3391,-82,-757,6529,736,1745203220601769706
199072,-1748,-3345,-98,-896,6744,895,1745203220601769706
199264,-1683,-3299,-102,-1060,6895,843,1745203220601769706
199456,-1596,-3264,-88,-1022,6799,764,1745203220601769706
199648,-1491,-3271,-82,-888,6551,791,1745203220601769706
199840,-1384,-3274,-90,-736,6190,983,1745203220601769706
200032,-1306,-3276,-96,-626,5822,1281,1745203220601769706
200224,-1271,-3264,-91,-573,5545,1667,1745203220601769706
200416,-1246,-3213,-88,-514,5440,2201,1745203220601769706
200608,-1256,-3137,-66,-447,5497,2987,1745203220601769706
200800,-1274,-3053,-15,-341,5660,3805,1745203220601769706
200992,-1268,-2918,51,-470,6090,4567,1745203220662367590
201184,-1204,-2752,108,-472,6548,4957,1745203220662367590
201376,-1097,-2597,179,-442,6943,5139,1745203220662367590
201568,-768,-2460,177,-402,6876,5188,1745203220662367590
201760,-680,-2324,288,-132,7771,5879,1745203220662367590
201952,-787,-2184,448,-348,7782,5987,1745203220662367590
202144,-615,-2025,502,-379,7841,6271,1745203220662367590
202336,-436,-1879,558,-407,8107,7123,1745203220662367590
202528,-302,-1681,592,-387,8487,7829,1745203220662367590
202720,-227,-1472,621,-285,8846,8623,1745203220662367590
202912,-195,-1232,651,-50,9302,9298,1745203220662367590
203104,-207,-1001,682,240,9768,9794,1745203220662367590
203296,-256,-778,727,456,10356,10111,1745203220718892543
203488,-339,-556,785,630,11029,10334,1745203220718892543
203680,-413,-333,830,763,11700,10447,1745203220718892543
203872,-441,-123,826,785,12390,10464,1745203220718892543
204064,-410,87,777,770,12913,10402,1745203220718892543
204256,-309,278,694,677,13168,10253,1745203220718892543
204448,-162,433,592,481,13095,10027,1745203220718892543
204640,4,590,483,215,12689,9713,1745203220718892543
204832,167,748,364,-37,12063,9238,1745203220718892543
205024,290,906,246,-276,11401,8698,1745203220718892543
205216,342,1075,130,-472,10920,8264,1745203220718892543
205408,319,1275,6,-651,10671,7942,1745203220718892543
205600,258,1492,-115,-731,10720,7746,1745203220778853870
205792,211,1708,-209,-762,10916,7567,1745203220778853870
205984,160,1897,-324,-832,11273,7190,1745203220778853870
206176,125,2083,-473,-952,11612,6625,1745203220778853870
206368,128,2255,-636,-1097,11818,5913,1745203220778853870
206560,168,2404,-798,-1257,12110,5240,1745203220778853870
206752,224,2529,-946,-1468,12294,4612,1745203220778853870
206944,287,2633,-1084,-1696,12527,3962,1745203220778853870
207136,350,2708,-1207,-1996,12630,3361,1745203220778853870
207328,412,2761,-1320,-2281,12655,2782,1745203220778853870
207520,469,2789,-1423,-2506,12481,2301,1745203220778853870
207712,510,2795,-1525,-2698,12142,1915,1745203220778853870
207904,540,2794,-1626,-2817,11592,1515,1745203220837825050
208096,582,2789,-1719,-2906,10915,1113,1745203220837825050
208288,637,2771,-1804,-3003,10254,635,1745203220837825050
208480,686,2765,-1882,-3159,9690,89,1745203220837825050
208672,725,2761,-1953,-3348,9325,-482,1745203220837825050
208864,766,2753,-2018,-3451,9047,-1077,1745203220837825050
209056,795,2732,-2082,-3518,8827,-1489,1745203220837825050
209248,838,2667,-2154,-3582,8637,-1766,1745203220837825050
209440,914,2565,-2240,-3699,8472,-2174,1745203220837825050
209632,1024,2449,-2328,-3883,8291,-2835,1745203220837825050
209824,1153,2337,-2410,-4044,8141,-3248,1745203220837825050
210016,1294,2236,-2493,-4204,7997,-3324,1745203220837825050
210208,1430,2149,-2569,-4378,7752,-3286,1745203220894740468
210400,1561,2084,-2636,-4481,7383,-3191,1745203220894740468
210592,1683,2018,-2672,-4501,6930,-3122,1745203220894740468
210784,1787,1928,-2690,-4465,6297,-3068,1745203220894740468
210976,1855,1835,-2677,-4272,5424,-2991,1745203220894740468
211168,1888,1731,-2637,-4238,4575,-2978,1745203220894740468
211360,1893,1620,-2559,-4056,3482,-3070,1745203220894740468
211552,1860,1491,-2471,-3907,2476,-3333,1745203220894740468
211744,1778,1352,-2355,-3802,1412,-3729,1745203220894740468
211936,1649,1227,-2229,-3731,345,-4120,1745203220894740468
212128,1462,1108,-2090,-3730,-478,-4965,1745203220894740468
212320,1231,963,-1939,-3807,-1526,-5701,1745203220894740468
212512,958,873,-1829,-3710,-2266,-6034,1745203220954344871
212704,668,713,-1745,-3729,-2887,-6359,1745203220954344871
212896,394,556,-1637,-3788,-3235,-6700,1745203220954344871
213088,146,390,-1453,-3990,-3413,-7005,1745203220954344871
213280,-73,233,-1203,-4205,-3439,-7205,1745203220954344871
213472,-260,104,-936,-4468,-3360,-7163,1745203220954344871
213664,-421,-4,-672,-4670,-3234,-7132,1745203220954344871
213856,-551,-56,-472,-4834,-2876,-7105,1745203220954344871
214048,-658,-89,-305,-4947,-2228,-6880,1745203220954344871
214240,-735,-137,-130,-4958,-1547,-6616,1745203220954344871
214432,-770,-179,33,-4906,-829,-6289,1745203220954344871
214624,-768,-217,188,-4745,-132,-5996,1745203220954344871
214816,-719,-260,335,-4504,514,-5720,1745203221011025291
215008,-624,-302,487,-4293,1209,-5568,1745203221011025291
215200,-502,-340,647,-4067,1747,-5399,1745203221011025291
215392,-366,-379,801,-3817,2182,-5241,1745203221011025291
215584,-236,-427,937,-3579,2418,-5072,1745203221011025291
215776,-115,-484,1056,-3364,2590,-4941,1745203221011025291
215968,-6,-549,1161,-3220,2670,-4803,1745203221011025291
216160,80,-616,1260,-3159,2695,-4601,1745203221011025291
216352,133,-679,1363,-3124,2722,-4319,1745203221011025291
216544,144,-725,1476,-3149,2805,-3959,1745203221011025291
216736,107,-749,1598,-3175,3041,-3533,1745203221011025291
216928,14,-749,1722,-3168,3424,-2968,1745203221011025291
217120,-135,-720,1839,-3083,4006,-2248,1745203221078177125
217312,-336,-662,1933,-2921,4796,-1279,1745203221078177125
217504,-560,-584,1995,-2655,5871,-4,1745203221078177125
217696,-785,-488,2017,-2377,6933,1293,1745203221078177125
217888,-1011,-286,2015,-2198,8883,2668,1745203221078177125
218080,-1171,-91,1954,-2516,10822,5032,1745203221078177125
218272,-1221,42,1952,-2147,12498,6170,1745203221078177125
218464,-1163,129,1782,-1318,14410,7315,1745203221078177125
218656,-1039,303,1483,-1214,15438,8341,1745203221078177125
218848,-499,298,1231,178,16687,8227,1745203221078177125
219040,-57,305,946,557,19610,7274,1745203221078177125
219232,-307,347,743,1222,19278,6540,1745203221078177125
219424,-478,295,617,1758,18394,4917,1745203221130338159
219616,-467,166,485,2651,17337,3689,1745203221130338159
219808,-384,64,297,2675,16288,2275,1745203221130338159
220000,-347,-54,132,2052,15372,832,1745203221130338159
220192,-366,-157,8,776,14735,-371,1745203221130338159
220384,-408,-171,-99,-942,14319,-1221,1745203221130338159
220576,-432,-52,-208,-2660,14033,-1820,1745203221130338159
220768,-402,139,-339,-3931,13805,-2050,1745203221130338159
220960,-310,333,-507,-4687,13657,-2030,1745203221130338159
221152,-178,494,-697,-5037,13288,-1628,1745203221130338159
221344,-44,658,-883,-4877,12788,-1246,1745203221130338159
221536,70,783,-1054,-4501,11980,-884,1745203221130338159
221728,159,880,-1205,-4153,11008,-619,1745203221186844101
221920,230,950,-1318,-3818,10025,-597,1745203221186844101
222112,280,982,-1392,-3582,9081,-755,1745203221186844101
222304,319,964,-1439,-3497,8264,-996,1745203221186844101
222496,356,914,-1466,-3555,7525,-1130,1745203221186844101
222688,403,837,-1485,-3739,6917,-1238,1745203221186844101
222880,459,748,-1508,-3993,6454,-1232,1745203221186844101
223072,513,666,-1539,-4332,6146,-1147,1745203221186844101
223264,563,599,-1581,-4723,5950,-1117,1745203221186844101
223456,608,560,-1637,-5134,5805,-1206,1745203221186844101
223648,643,555,-1696,-5521,5652,-1380,1745203221186844101
223840,666,581,-1743,-5796,5414,-1629,1745203221186844101
224032,671,624,-1761,-5925,4993,-1997,1745203221246661680
224224,648,660,-1737,-5849,4422,-2447,1745203221246661680
224416,599,675,-1669,-5605,3707,-2952,1745203221246661680
224608,530,660,-1559,-5286,2841,-3385,1745203221246661680
224800,458,616,-1406,-4832,2063,-3823,1745203221246661680
224992,370,543,-1241,-4525,1301,-4124,1745203221246661680
225184,293,461,-1064,-4243,711,-4311,1745203221246661680
225376,157,353,-893,-4156,139,-4841,1745203221246661680
225568,27,214,-731,-4252,-347,-5013,1745203221246661680
225760,-106,99,-574,-4497,-713,-5228,1745203221246661680
225952,-217,-22,-432,-4924,-947,-5472,1745203221246661680
226144,-332,-113,-295,-5429,-1074,-5709,1745203221246661680
226336,-440,-174,-161,-5926,-1041,-5870,1745203221303078925
226528,-524,-210,-28,-6338,-922,-5952,1745203221303078925
226720,-579,-232,113,-6555,-629,-5914,1745203221303078925
226912,-591,-246,262,-6599,-214,-5840,1745203221303078925
227104,-570,-250,412,-6457,289,-5754,1745203221303078925
227296,-528,-264,561,-6174,860,-5653,1745203221303078925
227488,-465,-290,705,-5791,1393,-5544,1745203221303078925
227680,-383,-329,843,-5391,1857,-5362,1745203221303078925
227872,-281,-389,971,-4993,2211,-5103,1745203221303078925
228064,-173,-470,1087,-4655,2523,-4788,1745203221303078925
228256,-80,-561,1195,-4369,2809,-4405,1745203221303078925
228448,-12,-653,1295,-4153,3075,-3996,1745203221303078925
228640,29,-745,1373,-4080,3353,-3595,1745203221363470821
228832,38,-823,1429,-4097,3654,-3149,1745203221363470821
229024,14,-868,1479,-4215,3971,-2743,1745203221363470821
229216,-43,-875,1539,-4256,4212,-2342,1745203221363470821
229408,-130,-885,1602,-4223,4473,-1930,1745203221363470821
229600,-235,-896,1668,-4159,4830,-1531,1745203221363470821
229792,-358,-907,1737,-4045,5275,-1066,1745203221363470821
229984,-510,-903,1811,-3874,5905,-355,1745203221363470821
230176,-710,-864,1868,-3594,6632,448,1745203221363470821
230368,-956,-796,1891,-3282,7461,1312,1745203221363470821
230560,-1214,-684,1864,-2908,8425,2159,1745203221363470821
230752,-1451,-556,1795,-2490,9423,3068,1745203221363470821
230944,-1631,-431,1669,-2154,10528,4183,1745203221420843839
231136,-1755,-317,1505,-1742,11956,5335,1745203221420843839
231328,-1831,-238,1322,-1321,13240,6079,1745203221420843839
231520,-1846,-188,1132,-813,14365,6593,1745203221420843839
231712,-1759,-181,951,-146,15627,6671,1745203221420843839
231904,-1598,-104,745,55,16861,6621,1745203221420843839
232096,-1375,-72,594,234,18026,6039,1745203221420843839
232288,-1113,-78,449,937,18145,5249,1745203221420843839
232480,-850,-125,170,782,17806,4261,1745203221420843839
232672,-577,-158,-139,316,16914,3388,1745203221420843839
232864,-330,-133,-407,-485,15747,2681,1745203221420843839
233056,-137,-31,-588,-1427,14447,2046,1745203221420843839
233248,-12,120,-698,-2295,13175,1602,1745203221482132498
233440,57,279,-784,-2966,12022,1425,1745203221482132498
233632,96,454,-877,-3419,11114,1302,1745203221482132498
233824,121,611,-975,-3726,10406,1230,1745203221482132498
234016,136,764,-1061,-3850,9859,1054,1745203221482132498
234208,148,896,-1127,-3877,9361,803,1745203221482132498
234400,172,998,-1179,-3823,8865,562,1745203221482132498
234592,214,1058,-1227,-3794,8368,370,1745203221482132498
234784,277,1076,-1269,-3800,7887,178,1745203221482132498
234976,352,1059,-1306,-3812,7409,-66,1745203221482132498
235168,431,1024,-1340,-3886,6958,-302,1745203221482132498
235360,501,984,-1370,-4030,6530,-587,1745203221482132498
235552,563,945,-1391,-4230,6169,-771,1745203221537678709
235744,634,915,-1398,-4440,5876,-920,1745203221537678709
235936,714,889,-1400,-4590,5650,-1048,1745203221537678709
236128,786,867,-1395,-4790,5466,-1210,1745203221537678709
236320,829,846,-1386,-4951,5208,-1454,1745203221537678709
236512,845,821,-1362,-5036,4878,-1701,1745203221537678709
236704,836,790,-1322,-5012,4411,-1977,1745203221537678709
236896,806,752,-1271,-4957,3836,-2290,1745203221537678709
237088,764,709,-1207,-4860,3207,-2648,1745203221537678709
237280,705,655,-1120,-4765,2597,-3037,1745203221537678709
237472,621,595,-1019,-4662,1985,-3403,1745203221537678709
237664,521,534,-898,-4591,1431,-3730,1745203221537678709
237856,412,460,-761,-4562,972,-3985,1745203221604699295
238048,301,409,-629,-4514,607,-4135,1745203221604699295
238240,187,312,-495,-4520,253,-4411,1745203221604699295
238432,77,224,-370,-4577,89,-4534,1745203221604699295
238624,-29,140,-245,-4617,90,-4727,1745203221604699295
238816,-129,36,-124,-4667,139,-4795,1745203221604699295
239008,-201,-52,-3,-4707,279,-4678,1745203221604699295
239200,-247,-127,120,-4751,445,-4664,1745203221604699295
239392,-266,-198,239,-4778,661,-4649,1745203221604699295
239584,-258,-261,356,-4746,903,-4594,1745203221604699295
239776,-230,-334,473,-4612,1118,-4525,1745203221604699295
239968,-189,-420,595,-4433,1314,-4365,1745203221604699295
240160,-135,-507,719,-4290,1550,-4116,1745203221653928168
240352,-68,-580,843,-4210,1861,-3885,1745203221653928168
240544,10,-635,965,-4199,2217,-3848,1745203221653928168
240736,91,-687,1087,-4165,2611,-3990,1745203221653928168
240928,168,-744,1207,-4078,3004,-4043,1745203221653928168
241120,247,-799,1323,-3980,3384,-3705,1745203221653928168
241312,339,-839,1434,-3925,3729,-3292,1745203221653928168
241504,447,-865,1547,-3969,4123,-3064,1745203221653928168
241696,565,-878,1667,-3927,4551,-2965,1745203221653928168
241888,684,-906,1788,-3957,5032,-3052,1745203221653928168
242080,802,-949,1906,-3933,5464,-3499,1745203221653928168
242272,921,-1012,2026,-3851,5912,-3983,1745203221653928168
242464,1032,-1098,2155,-3709,6403,-4075,1745203221714301470
242656,1118,-1189,2288,-3588,6770,-3916,1745203221714301470
242848,1169,-1283,2414,-3592,6943,-4072,1745203221714301470
243040,1196,-1376,2525,-3795,7031,-4386,1745203221714301470
243232,1218,-1437,2611,-4197,7086,-4818,1745203221714301470
243424,1187,-1471,2689,-4678,7134,-5161,1745203221714301470
243616,1075,-1503,2767,-5076,7092,-5516,1745203221714301470
243808,876,-1540,2822,-5273,6894,-5905,1745203221714301470
244000,601,-1576,2836,-5326,6632,-5999,1745203221714301470
244192,250,-1564,2799,-5442,6453,-6047,1745203221714301470
244384,-171,-1484,2735,-5553,6443,-6263,1745203221714301470
244576,-633,-1344,2667,-5381,7010,-5924,1745203221714301470
244768,-1104,-1201,2608,-4850,8248,-5359,1745203221772585105
244960,-1518,-1088,2561,-4276,10255,-4846,1745203221772585105
245152,-1797,-998,2519,-3850,13000,-4175,1745203221772585105
245344,-1903,-946,2462,-3630,15912,-3551,1745203221772585105
245536,-1821,-939,2369,-3659,18396,-3141,1745203221772585105
245728,-1583,-987,2224,-3671,20026,-2751,1745203221772585105
245920,-1274,-1063,2024,-3726,20333,-2267,1745203221772585105
246112,-953,-1126,1824,-3875,19666,-1790,1745203221772585105
246304,-672,-1155,1656,-4064,18625,-1379,1745203221772585105
246496,-460,-1143,1521,-4278,17694,-918,1745203221772585105
246688,-311,-1112,1403,-4231,16904,-455,1745203221772585105
246880,-191,-1106,1277,-3779,16395,67,1745203221772585105
247072,-110,-1124,1127,-3016,16129,739,1745203221829254952
247264,-76,-1140,959,-2310,16005,1620,1745203221829254952
247456,-68,-1124,777,-1537,15784,1733,1745203221829254952
247648,-73,-1147,576,-925,16120,1478,1745203221829254952
247840,-53,-1271,370,-788,17614,1408,1745203221829254952
248032,-31,-1427,136,-954,19485,1941,1745203221829254952
248224,73,-1407,-139,-1018,20732,3590,1745203221829254952
248416,350,-1261,-395,-1548,21817,2985,1745203221829254952
248608,708,-1038,-683,-2018,22401,4654,1745203221829254952
248800,1100,-753,-995,-2573,22237,2615,1745203221829254952
248992,1503,-759,-1244,-2522,21804,3081,1745203221829254952
249184,1901,-712,-1483,-2527,20928,2687,1745203221829254952
249376,2253,-682,-1685,-2426,19976,2624,1745203221895339088
249568,2531,-651,-1872,-2354,18905,2624,1745203221895339088
249760,2745,-611,-2041,-2304,17878,2600,1745203221895339088
249952,2888,-568,-2188,-2203,16858,2499,1745203221895339088
250144,2964,-519,-2323,-2066,15868,2232,1745203221895339088
250336,2985,-484,-2449,-1886,15045,1997,1745203221895339088
250528,2958,-457,-2554,-1691,14394,1838,1745203221895339088
250720,2891,-434,-2645,-1464,13889,1763,1745203221895339088
250912,2794,-414,-2734,-1318,13538,1748,1745203221895339088
251104,2675,-387,-2823,-1250,13330,1729,1745203221895339088
251296,2548,-347,-2907,-1188,13071,1654,1745203221895339088
251488,2443,-310,-2983,-1116,12723,1625,1745203221895339088
251680,2371,-276,-3050,-1062,12380,1659,1745203221949657393
251872,2317,-239,-3108,-1028,12082,1704,1745203221949657393
252064,2280,-200,-3164,-930,11761,1787,1745203221949657393
252256,2265,-169,-3224,-809,11446,1857,1745203221949657393
252448,2264,-153,-3289,-693,11029,1815,1745203221949657393
252640,2266,-147,-3349,-614,10516,1772,1745203221949657393
252832,2261,-136,-3398,-562,9932,1710,1745203221949657393
253024,2265,-124,-3439,-525,9352,1578,1745203221949657393
253216,2272,-112,-3474,-508,8835,1409,1745203221949657393
253408,2280,-100,-3492,-481,8339,1226,1745203221949657393
253600,2293,-86,-3496,-434,7849,1033,1745203221949657393
253792,2316,-71,-3495,-387,7397,904,1745203221949657393
253984,2344,-59,-3492,-341,6980,836,1745203222004551267
254176,2367,-47,-3486,-282,6581,724,1745203222004551267
254368,2383,-39,-3481,-236,6228,659,1745203222004551267
254560,2397,-31,-3474,-220,5887,613,1745203222004551267
254752,2407,-24,-3463,-169,5512,527,1745203222004551267
254944,2402,-22,-3448,-140,5085,411,1745203222004551267
255136,2387,-20,-3424,-88,4605,273,1745203222004551267
255328,2363,-16,-3391,-111,4135,126,1745203222004551267
255520,2328,-9,-3351,-166,3773,1,1745203222004551267
255712,2285,4,-3300,-244,3487,-138,1745203222004551267
255904,2242,15,-3241,-333,3281,-147,1745203222004551267
256096,2207,27,-3183,-457,3106,-80,1745203222004551267
256288,2199,35,-3125,-565,2945,-125,1745203222072728040
256480,2216,34,-3069,-633,2661,-154,1745203222072728040
256672,2246,36,-3030,-730,2348,-252,1745203222072728040
256864,2269,28,-2991,-776,1897,-381,1745203222072728040
257056,2265,16,-2944,-803,1310,-519,1745203222072728040
257248,2228,-3,-2900,-837,829,-686,1745203222072728040
257440,2168,-25,-2857,-1189,-186,-832,1745203222072728040
257632,2071,-51,-2706,-1130,-471,-694,1745203222072728040
257824,1916,-62,-2560,-1489,-770,-929,1745203222072728040
258016,1622,-120,-2360,-1363,-930,-1078,1745203222072728040
258208,1243,-164,-2154,-220,-1715,-944,1745203222072728040
258400,1125,-154,-2061,-525,-3008,-431,1745203222072728040
258592,1306,-76,-2136,-1234,-2460,-1070,1745203222122815603
258784,1340,-25,-2149,-1538,-2678,-1261,1745203222122815603
258976,1231,-33,-2068,-1675,-2805,-1139,1745203222122815603
259168,1093,-27,-1968,-1780,-3049,-1311,1745203222122815603
259360,966,-16,-1857,-1918,-3176,-1502,1745203222122815603
259552,843,-5,-1729,-2056,-3271,-1613,1745203222122815603
259744,727,10,-1589,-2101,-3298,-1739,1745203222122815603
259936,634,36,-1452,-2149,-3333,-1819,1745203222122815603
260128,567,73,-1343,-2433,-3395,-1847,1745203222122815603
260320,491,94,-1256,-2386,-3405,-1983,1745203222122815603
260512,435,114,-1158,-2415,-3509,-2111,1745203222122815603
260704,383,124,-1054,-2464,-3623,-2059,1745203222122815603
260896,333,137,-940,-2527,-3816,-2246,1745203222181959125
261088,293,143,-821,-2637,-3955,-2447,1745203222181959125
261280,255,125,-696,-2654,-4131,-2408,1745203222181959125
261472,218,118,-572,-2720,-4296,-2481,1745203222181959125
261664,192,130,-464,-2802,-4425,-2568,1745203222181959125
261856,168,142,-377,-2904,-4506,-2609,1745203222181959125
262048,141,161,-309,-3025,-4547,-2665,1745203222181959125
262240,107,177,-238,-3081,-4541,-2685,1745203222181959125
262432,71,185,-155,-3079,-4491,-2700,1745203222181959125
262624,41,195,-63,-3141,-4413,-2749,1745203222181959125
262816,17,202,35,-3170,-4287,-2766,1745203222181959125
263008,-6,210,135,-3226,-4165,-2712,1745203222181959125
263200,-12,225,236,-3279,-3986,-2761,1745203222240333696
263392,-20,240,333,-3311,-3804,-2725,1745203222240333696
263584,-21,256,427,-3337,-3688,-2805,1745203222240333696
263776,-17,268,517,-3363,-3593,-2848,1745203222240333696
263968,-11,280,604,-3389,-3495,-2949,1745203222240333696
264160,0,293,687,-3439,-3418,-3069,1745203222240333696
264352,5,313,769,-3433,-3367,-3176,1745203222240333696
264544,10,340,844,-3377,-3318,-3208,1745203222240333696
264736,18,389,915,-3374,-3261,-3315,1745203222240333696
264928,18,449,989,-3413,-3152,-3362,1745203222240333696
265120,18,501,1056,-4694,-3064,-3708,1745203222240333696
265312,-11,462,1126,-4412,-3048,-4097,1745203222240333696
265504,-23,466,1205,-4277,-2841,-3630,1745203222304925398
265696,-39,515,1269,-4411,-2595,-3858,1745203222304925398
265888,-59,550,1342,-4419,-2318,-3900,1745203222304925398
266080,-63,560,1421,-4429,-1890,-4034,1745203222304925398
266272,-52,564,1496,-4343,-1553,-3976,1745203222304925398
266464,-24,584,1567,-4278,-1223,-3956,1745203222304925398
266656,15,602,1635,-4160,-1039,-3871,1745203222304925398
266848,76,634,1686,-4202,-615,-3964,1745203222304925398
267040,139,640,1725,-4254,-610,-4067,1745203222304925398
267232,201,629,1778,-4270,-584,-4105,1745203222304925398
267424,263,605,1838,-4294,-525,-4215,1745203222304925398
267616,312,584,1896,-4223,-479,-4062,1745203222304925398
267808,350,607,1948,-4252,-439,-4136,1745203222359324484
268000,368,634,1997,-4299,-449,-4258,1745203222359324484
268192,374,663,2042,-4332,-479,-4343,1745203222359324484
268384,367,693,2087,-4355,-497,-4284,1745203222359324484
268576,358,719,2132,-4384,-457,-4168,1745203222359324484
268768,371,746,2175,-4326,-339,-4059,1745203222359324484
268960,381,781,2218,-4296,-3,-4239,1745203222359324484
269152,351,822,2271,-4210,254,-4312,1745203222359324484
269344,330,849,2319,-4114,496,-4318,1745203222359324484
269536,350,864,2358,-4004,852,-4342,1745203222359324484
269728,396,867,2394,-3950,1234,-4403,1745203222359324484
269920,461,876,2426,-3959,1583,-4407,1745203222359324484
270112,554,889,2454,-4007,1918,-4438,1745203222414727572
270304,692,903,2476,-4032,2343,-4537,1745203222414727572
270496,878,924,2497,-4081,2799,-4565,1745203222414727572
270688,1100,958,2515,-4203,3261,-4597,1745203222414727572
270880,1362,1004,2535,-4326,3656,-4640,1745203222414727572
271072,1659,1062,2551,-4421,4106,-4805,1745203222414727572
271264,1978,1125,2554,-4421,4530,-4934,1745203222414727572
271456,2293,1182,2541,-4381,4743,-5009,1745203222414727572
271648,2601,1235,2523,-4332,4849,-5166,1745203222414727572
271840,2906,1298,2491,-4344,4888,-5460,1745203222414727572
272032,3213,1369,2444,-4343,4945,-5378,1745203222414727572
272224,3470,1435,2398,-4315,4825,-5100,1745203222414727572
272416,3685,1495,2360,-4228,4522,-5416,1745203222478076473
272608,3892,1585,2331,-4080,4282,-5609,1745203222478076473
272800,4065,1631,2301,-3958,4039,-5450,1745203222478076473
272992,4173,1696,2265,-3896,3705,-5419,1745203222478076473
273184,4220,1771,2236,-3845,3347,-5731,1745203222478076473
273376,4225,1831,2210,-3793,3115,-5806,1745203222478076473
273568,4197,1882,2186,-3622,2884,-5782,1745203222478076473
273760,4149,1950,2153,-3553,2762,-5680,1745203222478076473
273952,4095,2009,2117,-3443,2619,-5583,1745203222478076473
274144,4042,2057,2073,-3367,2482,-5581,1745203222478076473
274336,3987,2112,2022,-3259,2353,-5711,1745203222478076473
274528,3933,2170,1982,-3175,2181,-5899,1745203222478076473
274720,3880,2240,1948,-2958,1971,-6103,1745203222533375238
274912,3817,2323,1926,-2858,1701,-6323,1745203222533375238
275104,3742,2421,1905,-2544,1387,-6318,1745203222533375238
275296,3663,2576,1893,-2584,746,-6714,1745203222533375238
275488,3589,2719,1896,-2180,606,-7067,1745203222533375238
275680,3498,2911,1865,-2043,-126,-7536,1745203222533375238
275872,3526,2995,1844,-2477,184,-10501,1745203222533375238
276064,3351,2708,1871,-1886,206,-9883,1745203222533375238
276256,3119,2463,1868,-1237,104,-9020,1745203222533375238
276448,2972,2395,1837,-930,-86,-9012,1745203222533375238
276640,2839,2380,1780,-722,-434,-9202,1745203222533375238
276832,2690,2354,1715,-596,-795,-9348,1745203222533375238
277024,2503,2320,1643,-557,-1145,-9676,1745203222595460036
277216,2274,2283,1580,-469,-1392,-10021,1745203222595460036
277408,2004,2246,1541,-243,-1589,-10112,1745203222595460036
277600,1706,2206,1519,3,-1763,-10160,1745203222595460036
277792,1402,2139,1517,264,-1821,-10220,1745203222595460036
277984,1106,2064,1520,495,-1793,-10166,1745203222595460036
278176,833,2010,1510,772,-1678,-10158,1745203222595460036
278368,588,1978,1486,865,-1463,-10472,1745203222595460036
278560,347,1914,1464,992,-1246,-10745,1745203222595460036
278752,132,1825,1446,1078,-1054,-10707,1745203222595460036
278944,9,1789,1427,1209,-831,-10456,1745203222595460036
279136,-37,1813,1411,1466,-434,-10450,1745203222595460036
279328,-20,1875,1334,1452,-76,-10340,1745203222651456816
279520,23,1974,1155,1069,201,-10524,1745203222651456816
279712,96,1880,1182,29,826,-14337,1745203222651456816
279904,-360,1325,1227,1198,529,-10790,1745203222651456816
280096,-354,1207,1232,1075,568,-10905,1745203222651456816
280288,-319,1194,1199,985,601,-10961,1745203222651456816
280480,-288,1143,1181,981,631,-10918,1745203222651456816
280672,-252,1136,1174,1043,686,-10934,1745203222651456816
280864,-222,1107,1155,1089,775,-11052,1745203222651456816
281056,-197,1064,1130,1106,780,-11157,1745203222651456816
281248,-192,1016,1099,1106,728,-11261,1745203222651456816
281440,-222,982,1059,1126,686,-11347,1745203222651456816
281632,-279,942,1011,1195,613,-11341,1745203222707030527
281824,-364,900,962,1230,522,-11262,1745203222707030527
282016,-463,861,917,1280,467,-11175,1745203222707030527
282208,-566,817,883,1309,448,-11098,1745203222707030527
282400,-668,775,862,1327,474,-10974,1745203222707030527
282592,-759,726,850,1317,572,-10834,1745203222707030527
282784,-830,679,839,1279,722,-10625,1745203222707030527
282976,-881,639,825,1240,895,-10428,1745203222707030527
283168,-909,608,800,1185,1026,-10300,1745203222707030527
283360,-917,583,767,1142,1140,-10212,1745203222707030527
283552,-911,566,728,1106,1247,-10144,1745203222707030527
283744,-888,549,692,1084,1370,-10102,1745203222707030527
283936,-849,530,663,1104,1510,-10003,1745203222770147242
284128,-796,513,637,1116,1592,-9926,1745203222770147242
284320,-731,488,609,1114,1614,-9863,1745203222770147242
284512,-658,460,578,1101,1583,-9805,1745203222770147242
284704,-588,437,555,1060,1509,-9734,1745203222770147242
284896,-528,424,536,1057,1412,-9667,1745203222770147242
285088,-482,416,513,1011,1297,-9650,1745203222770147242
285280,-449,407,488,969,1193,-9660,1745203222770147242
285472,-424,401,463,966,1134,-9569,1745203222770147242
285664,-393,389,444,997,1141,-9405,1745203222770147242
285856,-352,376,433,1016,1208,-9254,1745203222770147242
286048,-303,366,426,1041,1259,-9145,1745203222770147242
286240,-251,360,415,1050,1282,-9059,1745203222822677075
286432,-200,357,399,1048,1227,-8944,1745203222822677075
286624,-155,356,384,1041,1145,-8871,1745203222822677075
286816,-108,355,371,1067,1041,-8741,1745203222822677075
287008,-50,348,361,1168,1015,-8327,1745203222822677075
287200,43,329,371,1348,1093,-8429,1745203222822677075
287392,130,290,366,1499,1136,-8618,1745203222822677075
287584,194,252,316,1581,1014,-8620,1745203222822677075
287776,240,229,246,1525,888,-8601,1745203222822677075
287968,271,222,193,1388,834,-8537,1745203222822677075
288160,294,223,167,1329,853,-8565,1745203222822677075
288352,329,217,162,1401,1053,-8670,1745203222822677075
288544,379,201,160,1563,1274,-8658,1745203222888256892
288736,441,181,143,1662,1466,-8679,1745203222888256892
288928,517,162,109,1700,1654,-8717,1745203222888256892
289120,599,143,55,1744,1837,-8592,1745203222888256892
289312,663,128,-5,1647,1731,-8433,1745203222888256892
289504,726,127,-45,1515,1562,-8546,1745203222888256892
289696,782,142,-64,1552,1471,-8495,1745203222888256892
289888,825,161,-72,1598,1200,-8161,1745203222888256892
290080,850,178,-95,1411,740,-7948,1745203222888256892
290272,812,202,-107,1149,180,-8456,1745203222888256892
290464,677,229,-86,1036,-421,-8840,1745203222888256892
290656,467,257,-55,1128,-859,-9049,1745203222888256892
290848,246,269,-25,1395,-795,-9219,1745203222940390270
291040,61,250,-6,1709,-302,-9234,1745203222940390270
291232,-63,207,-4,2032,340,-9144,1745203222940390270
291424,-113,156,-16,2218,891,-8997,1745203222940390270
291616,-95,102,-35,2277,1262,-8899,1745203222940390270
291808,-44,43,-61,2139,1366,-8851,1745203222940390270
292000,5,-6,-91,1860,1208,-8872,1745203222940390270
292192,38,-38,-113,1551,917,-8939,1745203222940390270
292384,47,-56,-121,1309,659,-9042,1745203222940390270
292576,29,-63,-118,1104,467,-9140,1745203222940390270
292768,-1,-62,-110,1017,389,-9183,1745203222940390270
292960,-33,-59,-99,1017,374,-9179,1745203222940390270
293152,-55,-54,-82,1125,393,-9189,1745203223006048212
293344,-60,-54,-63,1250,458,-9108,1745203223006048212
293536,-52,-61,-46,1365,466,-9008,1745203223006048212
293728,-35,-74,-33,1428,416,-8945,1745203223006048212
293920,-16,-88,-26,1419,309,-8851,1745203223006048212
294112,-9,-100,-21,1367,132,-8752,1745203223006048212
294304,-18,-107,-16,1301,-4,-8645,1745203223006048212
294496,-44,-112,-7,1247,-85,-8534,1745203223006048212
294688,-83,-116,5,1205,-118,-8408,1745203223006048212
294880,-126,-117,14,1196,-90,-8279,1745203223006048212
295072,-165,-119,21,1209,-18,-8186,1745203223006048212
295264,-193,-122,25,1227,88,-8112,1745203223006048212
295456,-209,-128,26,1205,174,-8049,1745203223061421300
295648,-210,-133,26,1154,233,-8017,1745203223061421300
295840,-206,-135,20,1084,233,-8026,1745203223061421300
296032,-201,-130,11,1011,211,-8049,1745203223061421300
296224,-196,-119,2,964,188,-8057,1745203223061421300
296416,-189,-105,-3,953,192,-8035,1745203223061421300
296608,-176,-90,-4,971,215,-8016,1745203223061421300
296800,-161,-79,-5,1004,199,-8006,1745203223061421300
296992,-145,-70,-5,1035,149,-8027,1745203223061421300
297184,-133,-62,-5,1065,79,-8045,1745203223061421300
297376,-126,-54,-6,1102,-2,-8029,1745203223061421300
297568,-129,-49,-9,1110,-65,-8023,1745203223061421300
297760,-139,-49,-9,1092,-76,-8013,1745203223121548355
297952,-152,-52,-6,1052,-63,-8027,1745203223121548355
298144,-163,-57,0,1032,-7,-8059,1745203223121548355
298336,-173,-60,4,996,72,-8113,1745203223121548355
298528,-182,-62,4,954,139,-8145,1745203223121548355
298720,-189,-62,2,910,189,-8214,1745203223121548355
298912,-193,-60,0,865,211,-8284,1745203223121548355
299104,-196,-60,1,846,231,-8364,1745203223121548355
299296,-200,-57,2,862,290,-8465,1745203223121548355
299488,-204,-54,0,887,392,-8486,1745203223121548355
299680,-203,-54,-1,929,481,-8435,1745203223121548355
299872,-191,-55,0,958,540,-8367,1745203223121548355
300064,-171,-58,3,963,545,-8277,1745203223180127351
300256,-149,-61,4,964,500,-8176,1745203223180127351
300448,-132,-62,2,942,395,-8101,1745203223180127351
300640,-124,-62,-2,899,348,-8056,1745203223180127351
300832,-123,-64,-8,878,324,-7987,1745203223180127351
301024,-124,-66,-9,855,340,-7927,1745203223180127351
301216,-122,-66,-9,836,390,-7896,1745203223180127351
301408,-119,-65,-11,819,421,-7897,1745203223180127351
301600,-114,-62,-14,802,431,-7918,1745203223180127351
301792,-106,-55,-15,796,472,-7967,1745203223180127351
301984,-104,-51,-16,902,268,-7801,1745203223180127351
302176,-128,-59,-23,992,-150,-7943,1745203223180127351
302368,-157,-71,-21,1251,-20,-8041,1745203223238748326
302560,-194,-88,-12,1317,40,-8239,1745203223238748326
302752,-224,-124,-14,1394,259,-8187,1745203223238748326
302944,-221,-151,-19,1243,450,-8131,1745203223238748326
303136,-212,-159,-28,797,309,-8094,1745203223238748326
303328,-223,-134,-35,289,86,-8076,1745203223238748326
303520,-251,-89,-29,139,111,-8159,1745203223238748326
303712,-252,-63,3,540,271,-7856,1745203223238748326
303904,-204,-51,22,972,707,-8343,1745203223238748326
304096,-197,-69,36,1270,678,-8005,1745203223238748326
304288,-164,-110,34,1550,524,-7977,1745203223238748326
304480,-142,-176,18,1722,445,-8018,1745203223238748326
