timestamp,gyr_x,gyr_y,gyr_z,acc_x,acc_y,acc_z,pkt_time_ns
626464,42,-106,40,1437,548,-7816,1745202649793185179
626656,-23,45,29,1271,725,-8000,1745202649793185179
626848,12,59,33,1496,1022,-7768,1745202649793185179
627040,28,67,39,1617,1129,-7877,1745202649793185179
627232,15,77,45,1792,1115,-7828,1745202649793185179
627424,27,69,46,1955,1116,-7845,1745202649793185179
627616,45,36,53,2099,1239,-7819,1745202649793185179
627808,69,14,64,2155,1343,-7844,1745202649793185179
628000,96,-31,66,2211,1250,-7891,1745202649793185179
628192,99,-72,56,2222,1012,-7944,1745202649793185179
628384,88,-100,42,2115,734,-7989,1745202649793185179
628576,67,-122,30,1920,563,-7985,1745202649793185179
628768,44,-126,23,1741,604,-7976,1745202649852111620
628960,25,-123,19,1596,679,-7975,1745202649852111620
629152,9,-118,16,1524,712,-7967,1745202649852111620
629344,-5,-101,16,1438,703,-7955,1745202649852111620
629536,-15,-82,16,1386,614,-7952,1745202649852111620
629728,-26,-58,15,1343,543,-7948,1745202649852111620
629920,-39,-31,11,1326,548,-7955,1745202649852111620
630112,-55,-5,7,1379,618,-7990,1745202649852111620
630304,-73,17,2,1520,690,-8020,1745202649852111620
630496,-87,29,-2,1661,752,-8000,1745202649852111620
630688,-100,32,-5,1773,765,-7995,1745202649852111620
630880,-118,31,-7,1798,679,-8006,1745202649852111620
631072,-145,31,-11,1761,543,-8038,1745202649907428094
631264,-177,32,-19,1701,503,-8037,1745202649907428094
631456,-205,36,-26,1657,588,-8010,1745202649907428094
631648,-225,38,-33,1687,696,-7975,1745202649907428094
631840,-245,35,-37,1772,799,-7983,1745202649907428094
632032,-261,29,-36,1888,877,-8010,1745202649907428094
632224,-274,14,-34,2041,957,-8043,1745202649907428094
632416,-277,-5,-33,2103,1130,-8027,1745202649907428094
632608,-268,-30,-34,2130,1338,-7980,1745202649907428094
632800,-247,-62,-36,2150,1503,-7905,1745202649907428094
632992,-218,-99,-37,2169,1589,-7863,1745202649907428094
633184,-204,-132,-38,1499,872,-8118,1745202649907428094
633376,-259,-111,-48,3040,2211,-7627,1745202649961090885
633568,-106,-256,-11,2113,1881,-7740,1745202649961090885
633760,-109,-207,-10,1479,1505,-7923,1745202649961090885
633952,-83,-225,-12,1505,1726,-7672,1745202649961090885
634144,-41,-201,-4,1322,1618,-7835,1745202649961090885
634336,-30,-169,8,1021,1425,-8106,1745202649961090885
634528,-142,-121,27,840,698,-6951,1745202649961090885
634720,-28,-136,45,908,597,-7653,1745202649961090885
634912,-10,-82,45,880,277,-7838,1745202649961090885
635104,-76,-42,37,958,207,-7952,1745202649961090885
635296,-148,-1,24,1169,282,-7910,1745202649961090885
635488,-197,15,22,1385,458,-7892,1745202649961090885
635680,-231,19,28,1611,717,-7882,1745202650041525723
635872,-250,14,35,1764,926,-7862,1745202650041525723
636064,-256,-1,34,1850,1113,-7853,1745202650041525723
636256,-248,-19,30,1851,1242,-7846,1745202650041525723
636448,-235,-36,26,1808,1295,-7829,1745202650041525723
636640,-226,-51,25,1747,1311,-7829,1745202650041525723
636832,-225,-60,26,1668,1285,-7851,1745202650041525723
637024,-229,-63,27,1605,1265,-7878,1745202650041525723
637216,-232,-61,26,1579,1293,-7884,1745202650041525723
637408,-231,-57,23,1560,1345,-7881,1745202650041525723
637600,-228,-52,18,1551,1376,-7885,1745202650041525723
637792,-226,-45,15,1568,1383,-7900,1745202650041525723
637984,-222,-42,16,1573,1320,-7901,1745202650087429991
638368,-226,-37,23,1544,1149,-7924,1745202650087429991
638560,-237,-33,27,1508,1070,-7930,1745202650087429991
638752,-257,-28,26,1492,978,-7927,1745202650087429991
638944,-282,-22,24,1494,924,-7936,1745202650087429991
639136,-312,-15,21,1519,931,-7953,1745202650087429991
639328,-332,-7,17,1539,1054,-8005,1745202650087429991
639520,-328,-3,13,1572,1295,-7959,1745202650087429991
639712,-299,-3,10,1590,1615,-7895,1745202650087429991
639904,-262,-5,4,1586,1821,-7873,1745202650087429991
640096,-227,-5,-3,1574,1890,-7830,1745202650087429991
640288,-191,-6,-9,1554,1861,-7809,1745202650087429991
640480,-159,-7,-10,1525,1727,-7810,1745202650147912407
640672,-139,-6,-10,1495,1546,-7845,1745202650147912407
640864,-129,-2,-11,1488,1391,-7870,1745202650147912407
641056,-130,2,-15,1474,1312,-7896,1745202650147912407
641248,-138,5,-19,1465,1268,-7894,1745202650147912407
641440,-149,10,-19,1465,1290,-7900,1745202650147912407
641632,-162,15,-17,1482,1285,-7880,1745202650147912407
641824,-177,19,-16,1489,1280,-7856,1745202650147912407
642016,-191,22,-15,1501,1259,-7852,1745202650147912407
642208,-211,25,-14,1530,1189,-7865,1745202650147912407
642400,-242,25,-16,1564,1128,-7889,1745202650147912407
642592,-280,26,-20,1561,1092,-7941,1745202650147912407
642784,-311,25,-22,1570,1129,-7929,1745202650204199654
642976,-323,22,-21,1571,1275,-7887,1745202650204199654
643168,-320,18,-17,1553,1490,-7913,1745202650204199654
643360,-295,14,-19,1571,1799,-7834,1745202650204199654
643552,-251,9,-28,1572,2065,-7759,1745202650204199654
643744,-204,5,-37,1543,2200,-7739,1745202650204199654
643936,-165,5,-42,1534,2139,-7734,1745202650204199654
644128,-138,6,-45,1539,1963,-7727,1745202650204199654
644320,-122,8,-41,1546,1752,-7721,1745202650204199654
644512,-121,8,-34,1553,1574,-7758,1745202650204199654
644704,-133,10,-29,1551,1471,-7794,1745202650204199654
644896,-151,9,-27,1577,1403,-7815,1745202650204199654
645088,-176,7,-26,1571,1382,-7807,1745202650258261139
645280,-204,4,-27,1579,1391,-7799,1745202650258261139
645472,-235,0,-28,1575,1382,-7799,1745202650258261139
645664,-267,-2,-27,1570,1356,-7797,1745202650258261139
645856,-302,-6,-26,1557,1314,-7796,1745202650258261139
646048,-345,-10,-23,1545,1268,-7822,1745202650258261139
646240,-395,-11,-20,1530,1199,-7838,1745202650258261139
646432,-454,-9,-15,1501,1135,-7837,1745202650258261139
646624,-533,-7,-9,1464,1072,-7895,1745202650258261139
646816,-622,-3,5,1476,1119,-7885,1745202650258261139
647008,-656,4,19,1531,1157,-7885,1745202650258261139
647200,-666,6,21,1561,1442,-7836,1745202650258261139
647392,-651,7,13,1580,1849,-7806,1745202650324621366
647584,-598,8,3,1633,2334,-7652,1745202650324621366
647776,-517,4,-9,1666,2764,-7599,1745202650324621366
647968,-435,-4,-25,1688,3008,-7631,1745202650324621366
648160,-362,-12,-40,1675,3020,-7658,1745202650324621366
648352,-301,-16,-48,1619,2850,-7669,1745202650324621366
648544,-250,-20,-44,1549,2577,-7654,1745202650324621366
648736,-212,-21,-35,1527,2339,-7649,1745202650324621366
648928,-194,-19,-27,1466,2143,-7679,1745202650324621366
649120,-193,-16,-25,1454,1988,-7698,1745202650324621366
649312,-203,-9,-28,1447,1941,-7721,1745202650324621366
649504,-219,-3,-34,1453,1921,-7741,1745202650324621366
649696,-231,4,-39,1485,1919,-7763,1745202650380412419
649888,-239,5,-39,1517,1924,-7766,1745202650380412419
650080,-253,6,-40,1547,1913,-7793,1745202650380412419
650272,-269,6,-40,1564,1874,-7771,1745202650380412419
650464,-292,5,-41,1555,1809,-7779,1745202650380412419
650656,-321,3,-42,1576,1730,-7757,1745202650380412419
650848,-354,2,-42,1583,1673,-7739,1745202650380412419
651040,-395,4,-42,1577,1639,-7734,1745202650380412419
651232,-439,5,-44,1609,1621,-7756,1745202650380412419
651424,-488,5,-45,1618,1615,-7786,1745202650380412419
651616,-543,3,-50,1623,1618,-7812,1745202650380412419
651808,-598,0,-52,1626,1659,-7811,1745202650380412419
652000,-651,-4,-53,1620,1719,-7837,1745202650449590485
652192,-698,-6,-51,1602,1779,-7855,1745202650449590485
652384,-740,-9,-49,1571,1860,-7880,1745202650449590485
652576,-776,-13,-47,1546,1928,-7893,1745202650449590485
652768,-809,-13,-43,1500,1962,-7862,1745202650449590485
652960,-840,-11,-38,1452,1996,-7853,1745202650449590485
653152,-871,-4,-32,1395,1994,-7857,1745202650449590485
653344,-905,7,-29,1375,2016,-7880,1745202650449590485
653536,-936,20,-34,1383,2086,-7891,1745202650449590485
653728,-967,34,-41,1380,2159,-7884,1745202650449590485
653920,-1008,47,-48,1387,2192,-7913,1745202650449590485
654112,-1052,60,-47,1410,2166,-7996,1745202650449590485
654304,-1096,71,-43,1417,2124,-8120,1745202650496577399
654496,-1148,83,-39,1435,2060,-8316,1745202650496577399
654688,-1217,99,-40,1429,2034,-8345,1745202650496577399
654880,-1303,112,-52,1435,2034,-8360,1745202650496577399
655072,-1387,134,-70,1422,2194,-8598,1745202650496577399
655264,-1459,155,-94,1477,2528,-8704,1745202650496577399
655456,-1536,171,-124,1512,2918,-8415,1745202650496577399
655648,-1633,192,-152,1478,3101,-8241,1745202650496577399
655840,-1751,208,-156,1476,3001,-8435,1745202650496577399
656032,-1862,212,-135,1529,2971,-8509,1745202650496577399
656224,-1956,205,-112,1612,3181,-8418,1745202650496577399
656416,-2039,203,-115,1726,3656,-8528,1745202650496577399
656608,-2117,214,-165,1989,4284,-8837,1745202650556898411
656800,-2218,253,-279,2272,4798,-8995,1745202650556898411
656992,-2283,240,-402,2489,5388,-9106,1745202650556898411
657184,-2310,191,-467,2765,5993,-9692,1745202650556898411
657376,-2311,128,-472,3057,6214,-9878,1745202650556898411
657568,-2309,32,-445,3275,5927,-9252,1745202650556898411
657760,-2312,-37,-465,3541,5919,-8825,1745202650556898411
657952,-2586,-29,-653,3242,6414,-8268,1745202650556898411
658144,-3042,-41,-851,3015,7091,-7765,1745202650556898411
658336,-3575,-74,-1022,2835,7730,-7305,1745202650556898411
658528,-3936,-141,-1126,2711,8425,-6793,1745202650556898411
658720,-4006,-210,-1177,2625,9259,-6119,1745202650556898411
658912,-3894,-245,-1196,2544,10259,-5564,1745202650613367062
659104,-3717,-248,-1197,2550,11218,-5228,1745202650613367062
659296,-3516,-235,-1206,2551,12033,-4910,1745202650613367062
659488,-3283,-230,-1250,2478,12560,-4630,1745202650613367062
659680,-3034,-236,-1341,2287,12754,-4369,1745202650613367062
659872,-2778,-241,-1451,2078,12813,-4105,1745202650613367062
660064,-2544,-241,-1567,1844,12477,-3942,1745202650613367062
660256,-2358,-237,-1700,1550,12098,-3853,1745202650613367062
660448,-2228,-205,-1823,1226,11709,-3781,1745202650613367062
660640,-2157,-146,-1920,985,11372,-3733,1745202650613367062
660832,-2139,-74,-1995,830,11134,-3657,1745202650613367062
661024,-2149,14,-2056,721,10966,-3582,1745202650613367062
661216,-2189,111,-2108,685,10823,-3438,1745202650674857750
661408,-2233,209,-2157,696,10649,-3217,1745202650674857750
661600,-2267,296,-2208,738,10359,-2988,1745202650674857750
661792,-2276,377,-2268,720,10107,-2793,1745202650674857750
661984,-2247,448,-2312,628,9924,-2632,1745202650674857750
662176,-2176,516,-2338,537,9797,-2445,1745202650674857750
662368,-2069,577,-2357,411,9701,-2330,1745202650674857750
662560,-1933,634,-2374,244,9682,-2197,1745202650674857750
662752,-1781,692,-2399,64,9673,-2117,1745202650674857750
662944,-1624,752,-2439,-112,9749,-2040,1745202650674857750
663136,-1464,818,-2493,-319,9800,-1923,1745202650674857750
663328,-1313,892,-2548,-367,10084,-1847,1745202650674857750
663520,-1212,982,-2637,-431,10219,-1653,1745202650730272140
663712,-1135,1085,-2733,-409,10260,-1522,1745202650730272140
663904,-1072,1189,-2816,-299,10141,-1446,1745202650730272140
664096,-1012,1290,-2873,-157,9919,-1398,1745202650730272140
664288,-940,1379,-2900,31,9568,-1392,1745202650730272140
664480,-859,1453,-2894,232,9220,-1382,1745202650730272140
664672,-767,1509,-2866,413,8807,-1443,1745202650730272140
664864,-671,1556,-2831,567,8440,-1537,1745202650730272140
665056,-586,1598,-2797,620,8038,-1649,1745202650730272140
665248,-496,1629,-2758,664,7622,-1720,1745202650730272140
665440,-395,1652,-2714,602,7161,-1805,1745202650730272140
665632,-281,1660,-2664,513,6710,-1920,1745202650730272140
665824,-177,1660,-2618,358,6265,-2132,1745202650801574092
666016,-104,1644,-2574,152,5792,-2282,1745202650801574092
666208,-59,1628,-2533,-118,5295,-2445,1745202650801574092
666400,-47,1619,-2486,-363,4846,-2454,1745202650801574092
666592,-72,1631,-2446,-568,4506,-2504,1745202650801574092
666784,-152,1665,-2426,-738,4352,-2530,1745202650801574092
666976,-288,1727,-2420,-863,4237,-2597,1745202650801574092
667168,-460,1823,-2424,-906,4133,-2670,1745202650801574092
667360,-637,1936,-2432,-940,3988,-2693,1745202650801574092
667552,-786,2039,-2411,-909,3868,-2660,1745202650801574092
667744,-903,2135,-2362,-793,3853,-2587,1745202650801574092
667936,-992,2216,-2296,-620,3885,-2609,1745202650801574092
668128,-1068,2278,-2228,-419,3943,-2671,1745202650855903909
668320,-1132,2330,-2165,-207,3983,-2729,1745202650855903909
668512,-1184,2368,-2116,-15,3989,-2741,1745202650855903909
668704,-1227,2379,-2066,122,3959,-2661,1745202650855903909
668896,-1259,2370,-2009,233,3982,-2604,1745202650855903909
669088,-1290,2353,-1951,273,4021,-2506,1745202650855903909
669280,-1335,2335,-1894,227,4050,-2462,1745202650855903909
669472,-1389,2328,-1835,164,4083,-2394,1745202650855903909
669664,-1441,2334,-1771,77,4153,-2354,1745202650855903909
669856,-1490,2339,-1704,33,4262,-2332,1745202650855903909
670048,-1538,2348,-1642,-11,4422,-2379,1745202650855903909
670240,-1593,2362,-1594,-30,4600,-2544,1745202650855903909
670432,-1659,2383,-1556,-27,4752,-2756,1745202650905432467
670624,-1723,2404,-1518,36,4881,-2936,1745202650905432467
670816,-1772,2415,-1481,101,4946,-3086,1745202650905432467
671008,-1808,2408,-1438,187,4988,-3197,1745202650905432467
671200,-1836,2386,-1382,252,4958,-3165,1745202650905432467
671392,-1853,2360,-1318,304,4951,-3174,1745202650905432467
671584,-1873,2335,-1250,354,4909,-3213,1745202650905432467
671776,-1904,2307,-1186,380,4866,-3224,1745202650905432467
671968,-1937,2272,-1127,372,4822,-3194,1745202650905432467
672160,-1981,2236,-1074,335,4848,-3096,1745202650905432467
672352,-2042,2205,-1029,277,4949,-3068,1745202650905432467
672544,-2117,2184,-989,188,5147,-3188,1745202650905432467
672736,-2193,2168,-945,101,5427,-3555,1745202650967737314
672928,-2265,2151,-896,-11,5743,-3962,1745202650967737314
673120,-2311,2131,-843,-66,6106,-4283,1745202650967737314
673312,-2311,2099,-796,-86,6479,-4534,1745202650967737314
673504,-2273,2053,-752,-82,6865,-4742,1745202650967737314
673696,-2221,1995,-705,-33,7193,-4889,1745202650967737314
673888,-2160,1936,-667,26,7364,-4980,1745202650967737314
674080,-2087,1876,-638,65,7411,-5060,1745202650967737314
674272,-2003,1813,-600,33,7361,-5133,1745202650967737314
674464,-1900,1737,-548,24,7259,-5235,1745202650967737314
674656,-1788,1650,-489,29,7140,-5224,1745202650967737314
674848,-1680,1559,-429,-4,7072,-5031,1745202650967737314
675040,-1585,1467,-379,-15,7019,-4698,1745202651047785958
675232,-1513,1381,-341,-47,7049,-4360,1745202651047785958
675424,-1458,1307,-318,-119,7132,-4245,1745202651047785958
675616,-1412,1240,-296,-172,7312,-4578,1745202651047785958
675808,-1359,1177,-268,-95,7634,-4823,1745202651047785958
676000,-1275,1118,-235,61,7964,-4893,1745202651047785958
676192,-1132,1024,-190,261,8102,-5114,1745202651047785958
676384,-927,887,-116,417,7923,-5640,1745202651047785958
676576,-714,708,-11,539,7305,-6237,1745202651047785958
676768,-521,482,106,626,6403,-6679,1745202651047785958
676960,-360,223,205,582,5518,-7236,1745202651047785958
677152,-300,-36,278,486,4680,-8029,1745202651047785958
677344,-370,-239,319,221,3969,-8599,1745202651077772038
677536,-543,-355,346,-244,3543,-8727,1745202651077772038
677728,-774,-394,360,-764,3410,-8598,1745202651077772038
677920,-1018,-367,362,-1339,3771,-8017,1745202651077772038
678112,-1220,-316,352,-1801,4766,-7190,1745202651077772038
678304,-1354,-255,324,-2053,6167,-6337,1745202651077772038
678496,-1405,-215,275,-2209,7661,-5474,1745202651077772038
678688,-1368,-199,218,-2273,8892,-4800,1745202651077772038
678880,-1321,-202,183,-2350,10011,-4966,1745202651077772038
679072,-1321,-263,215,-2191,9961,-1913,1745202651077772038
679264,-944,-258,238,-2171,10711,-2120,1745202651077772038
679456,-730,-268,265,-1868,11062,-1911,1745202651077772038
679648,-502,-291,270,-1657,11149,-1463,1745202651141617549
679840,-294,-328,243,-1526,11091,-955,1745202651141617549
680032,-108,-366,185,-1436,11098,-225,1745202651141617549
680224,54,-395,105,-1476,11170,393,1745202651141617549
680416,163,-419,33,-1746,11229,230,1745202651141617549
680608,129,-585,54,-1709,10871,192,1745202651141617549
680800,100,-758,185,-2958,10898,-689,1745202651141617549
680992,-129,-1176,190,-1922,10977,161,1745202651141617549
681184,339,-1318,-117,-2227,8757,1927,1745202651141617549
681376,583,-847,-118,-2496,10352,4913,1745202651141617549
681568,504,-245,-57,-3468,9818,546,1745202651141617549
681760,451,-186,-54,-3714,9478,500,1745202651141617549
681952,371,-74,-71,-3821,9146,527,1745202651209634948
682144,263,3,-108,-3870,8978,292,1745202651209634948
682336,135,41,-171,-3828,8804,-50,1745202651209634948
682528,16,95,-239,-3704,8585,-290,1745202651209634948
682720,-64,140,-304,-3553,8488,-553,1745202651209634948
682912,-115,166,-357,-3380,8582,-746,1745202651209634948
683104,-144,170,-392,-3237,8701,-930,1745202651209634948
683296,-169,148,-419,-3070,8822,-1199,1745202651209634948
683488,-183,114,-458,-2952,8923,-1478,1745202651209634948
683680,-187,71,-511,-2865,8983,-1755,1745202651209634948
683872,-181,26,-570,-2809,9040,-1812,1745202651209634948
684064,-169,-12,-617,-2821,9076,-1862,1745202651209634948
684256,-154,-47,-641,-2848,9074,-1895,1745202651316578190
684448,-133,-74,-647,-2886,9043,-2020,1745202651316578190
684640,-103,-98,-645,-2928,8971,-2140,1745202651316578190
684832,-60,-120,-651,-2993,8867,-2146,1745202651316578190
685024,-13,-133,-664,-3076,8799,-2008,1745202651316578190
685216,39,-142,-693,-3138,8757,-2040,1745202651316578190
685408,75,-140,-732,-3156,8699,-2173,1745202651316578190
685600,72,-133,-774,-3147,8581,-2240,1745202651316578190
685792,41,-127,-819,-3136,8433,-2308,1745202651316578190
685984,-6,-115,-862,-3184,8306,-2271,1745202651316578190
686176,-58,-97,-889,-3259,8202,-2004,1745202651316578190
686368,-94,-72,-896,-3377,8112,-1571,1745202651316578190
686560,-107,-33,-889,-3515,8011,-1090,1745202651327162104
686752,-88,19,-875,-3637,7891,-744,1745202651327162104
686944,-56,78,-853,-3758,7713,-648,1745202651327162104
687136,-29,135,-818,-3841,7517,-599,1745202651327162104
687328,2,195,-779,-3843,7314,-632,1745202651327162104
687520,43,262,-741,-3776,7132,-761,1745202651327162104
687712,93,325,-705,-3633,6981,-880,1745202651327162104
687904,165,381,-668,-3433,6856,-920,1745202651327162104
688096,260,430,-631,-3231,6783,-1075,1745202651327162104
688288,369,466,-592,-2980,6750,-1194,1745202651327162104
688480,477,495,-558,-2779,6719,-1312,1745202651327162104
688672,576,518,-530,-2598,6659,-1533,1745202651327162104
688864,663,535,-510,-2437,6513,-1851,1745202651373879125
689056,743,539,-492,-2304,6332,-2004,1745202651373879125
689248,823,528,-465,-2182,6176,-2114,1745202651373879125
689440,892,510,-425,-2083,6045,-2334,1745202651373879125
689632,931,490,-368,-2009,5830,-2668,1745202651373879125
689824,931,464,-301,-1924,5529,-3024,1745202651373879125
690016,897,426,-233,-1851,5093,-3354,1745202651373879125
690208,829,380,-174,-1766,4612,-3680,1745202651373879125
690400,726,316,-132,-1732,4178,-3924,1745202651373879125
690592,599,263,-102,-1770,3833,-3990,1745202651373879125
690784,448,219,-78,-1903,3721,-4253,1745202651373879125
690976,293,170,-43,-1990,3755,-4069,1745202651373879125
691168,171,141,12,-2059,4201,-3955,1745202651433348269
691360,85,128,64,-2166,4946,-3681,1745202651433348269
691552,58,106,97,-2214,5850,-3646,1745202651433348269
691744,111,67,99,-2250,6624,-3512,1745202651433348269
691936,222,18,82,-2317,7275,-3399,1745202651433348269
692128,346,-35,68,-2388,7757,-3289,1745202651433348269
692320,448,-79,67,-2395,8028,-3273,1745202651433348269
692512,524,-110,69,-2376,8146,-3267,1745202651433348269
692704,582,-130,70,-2373,8192,-3140,1745202651433348269
692896,634,-153,69,-2378,8264,-2836,1745202651433348269
693088,679,-182,67,-2489,8357,-2544,1745202651433348269
693280,710,-216,66,-2645,8423,-2206,1745202651433348269
693472,730,-249,61,-2854,8515,-1891,1745202651497767941
693664,734,-274,50,-3104,8585,-1669,1745202651497767941
693856,711,-289,33,-3357,8612,-1402,1745202651497767941
694048,655,-283,17,-3598,8559,-1146,1745202651497767941
694240,566,-265,3,-3868,8393,-917,1745202651497767941
694432,449,-242,-12,-4120,8237,-830,1745202651497767941
694624,325,-211,-42,-4399,8127,-865,1745202651497767941
694816,206,-177,-93,-4626,8118,-995,1745202651497767941
695008,82,-154,-164,-4781,8155,-1169,1745202651497767941
695200,-49,-129,-244,-4897,8238,-1348,1745202651497767941
695392,-183,-107,-317,-4979,8319,-1497,1745202651497767941
695584,-309,-88,-383,-5054,8371,-1657,1745202651497767941
695776,-429,-67,-437,-5086,8379,-1785,1745202651548492009
695968,-545,-41,-478,-5114,8300,-1970,1745202651548492009
696160,-667,-21,-503,-5094,8181,-2137,1745202651548492009
696352,-792,-4,-515,-5056,8103,-2183,1745202651548492009
696544,-922,12,-523,-4940,8036,-2219,1745202651548492009
696736,-1051,29,-535,-4875,8010,-2183,1745202651548492009
696928,-1160,51,-548,-4769,8031,-1998,1745202651548492009
697120,-1239,68,-566,-4697,8113,-1937,1745202651548492009
697312,-1303,76,-594,-4650,8212,-1828,1745202651548492009
697504,-1352,78,-630,-4694,8264,-1864,1745202651548492009
697696,-1399,79,-671,-4761,8334,-2151,1745202651548492009
697888,-1437,81,-716,-4881,8458,-2271,1745202651548492009
698080,-1439,87,-772,-4950,8633,-2167,1745202651623492574
698272,-1414,88,-831,-4875,8722,-1938,1745202651623492574
698464,-1386,100,-869,-4615,8649,-1364,1745202651623492574
698656,-1368,118,-876,-4262,8301,-977,1745202651623492574
698848,-1387,128,-847,-3944,7819,-1288,1745202651623492574
699040,-1439,104,-806,-3982,7170,-1187,1745202651623492574
699232,-1450,54,-800,-4312,6678,-1146,1745202651623492574
699424,-1475,21,-802,-4483,6744,-1042,1745202651623492574
699616,-1564,28,-792,-4519,7052,-808,1745202651623492574
699808,-1672,55,-772,-4432,7234,-821,1745202651623492574
700000,-1745,99,-756,-4321,7266,-999,1745202651623492574
700192,-1756,140,-753,-4190,7323,-1184,1745202651623492574
700384,-1725,139,-772,-4018,7487,-1184,1745202651665109590
700576,-1679,115,-812,-3809,7605,-1018,1745202651665109590
700768,-1631,100,-859,-3655,7666,-861,1745202651665109590
700960,-1587,95,-887,-3594,7601,-939,1745202651665109590
701152,-1547,96,-885,-3605,7420,-1102,1745202651665109590
701344,-1507,97,-866,-3622,7197,-1262,1745202651665109590
701536,-1463,95,-848,-3604,7062,-1242,1745202651665109590
701728,-1424,102,-844,-3624,7021,-1071,1745202651665109590
701920,-1384,117,-851,-3654,7108,-958,1745202651665109590
702112,-1339,131,-856,-3700,7225,-938,1745202651665109590
702304,-1273,136,-851,-3711,7251,-829,1745202651665109590
702496,-1182,132,-838,-3678,7129,-824,1745202651665109590
702688,-1083,126,-817,-3612,6985,-899,1745202651725603776
702880,-996,124,-793,-3523,6759,-917,1745202651725603776
703072,-932,129,-785,-3471,6420,-785,1745202651725603776
703264,-871,132,-784,-3438,6122,-668,1745202651725603776
703456,-811,130,-772,-3429,5890,-569,1745202651725603776
703648,-751,124,-751,-3409,5770,-418,1745202651725603776
703840,-692,125,-729,-3437,5795,-237,1745202651725603776
704032,-641,132,-708,-3451,5955,-295,1745202651725603776
704224,-587,128,-697,-3414,6094,-92,1745202651725603776
704416,-524,118,-701,-3399,6210,121,1745202651725603776
704608,-459,106,-710,-3456,6315,156,1745202651725603776
704800,-398,97,-714,-3529,6259,189,1745202651725603776
704992,-345,91,-703,-3630,6023,203,1745202651781900658
705184,-295,91,-680,-3698,5730,226,1745202651781900658
705376,-251,93,-641,-3697,5533,227,1745202651781900658
705568,-225,89,-588,-3667,5362,159,1745202651781900658
705760,-213,85,-529,-3625,5162,5,1745202651781900658
705952,-207,77,-469,-3588,4836,-277,1745202651781900658
706144,-197,57,-405,-3546,4455,-630,1745202651781900658
706336,-174,34,-338,-3550,3950,-892,1745202651781900658
706528,-140,4,-266,-3546,3469,-1049,1745202651781900658
706720,-109,-28,-196,-3518,3090,-1150,1745202651781900658
706912,-97,-63,-130,-3496,2879,-1125,1745202651781900658
707104,-104,-102,-72,-3450,2904,-1109,1745202651781900658
707296,-132,-134,-25,-3483,3085,-1210,1745202651842520156
707488,-180,-165,16,-3562,3316,-1292,1745202651842520156
707680,-232,-194,54,-3614,3618,-1241,1745202651842520156
707872,-282,-220,92,-3662,3913,-1095,1745202651842520156
708064,-332,-246,131,-3699,4235,-731,1745202651842520156
708256,-366,-261,170,-3724,4654,-364,1745202651842520156
708448,-400,-270,206,-3685,5168,-77,1745202651842520156
708640,-434,-282,219,-3620,5803,308,1745202651842520156
708832,-454,-291,208,-3626,6501,660,1745202651842520156
709024,-452,-307,184,-3705,7081,968,1745202651842520156
709216,-415,-325,161,-3854,7506,1285,1745202651842520156
709408,-349,-334,143,-4093,7771,1447,1745202651842520156
709600,-273,-336,129,-4346,7965,1560,1745202651904939222
709792,-210,-322,120,-4593,8132,1630,1745202651904939222
709984,-162,-302,110,-4860,8134,1675,1745202651904939222
710176,-110,-282,90,-5107,7947,1718,1745202651904939222
710368,-57,-264,67,-5310,7661,1684,1745202651904939222
710560,-23,-249,47,-5487,7385,1599,1745202651904939222
710752,-31,-233,34,-5639,7091,1435,1745202651904939222
710944,-74,-210,31,-5772,6813,1346,1745202651904939222
711136,-123,-180,33,-5863,6655,1271,1745202651904939222
711328,-166,-154,39,-5841,6730,1176,1745202651904939222
711520,-205,-135,38,-5824,6919,979,1745202651904939222
711712,-233,-125,31,-5782,7194,825,1745202651904939222
711904,-235,-120,17,-5771,7433,674,1745202651959061227
712096,-212,-118,5,-5765,7619,508,1745202651959061227
712288,-177,-120,-6,-5771,7675,361,1745202651959061227
712480,-134,-124,-15,-5749,7630,255,1745202651959061227
712672,-95,-127,-27,-5731,7539,155,1745202651959061227
712864,-68,-128,-39,-5695,7396,70,1745202651959061227
713056,-49,-121,-46,-5689,7235,29,1745202651959061227
713248,-40,-115,-50,-5628,7060,14,1745202651959061227
713440,-37,-108,-55,-5572,6905,56,1745202651959061227
713632,-40,-101,-59,-5503,6827,145,1745202651959061227
713824,-48,-92,-62,-5446,6796,304,1745202651959061227
714016,-54,-82,-66,-5382,6758,525,1745202651959061227
714208,-59,-76,-67,-5306,6755,604,1745202652027701121
714400,-67,-75,-65,-5206,6713,609,1745202652027701121
714592,-73,-78,-64,-5104,6609,636,1745202652027701121
714784,-74,-80,-67,-5028,6502,787,1745202652027701121
714976,-72,-81,-71,-4923,6417,877,1745202652027701121
715168,-76,-83,-76,-4822,6398,984,1745202652027701121
715360,-79,-80,-85,-4751,6458,1094,1745202652027701121
715552,-84,-78,-96,-4734,6553,1120,1745202652027701121
715744,-88,-69,-111,-4720,6614,1261,1745202652027701121
715936,-84,-58,-129,-4725,6644,1200,1745202652027701121
716128,-74,-43,-144,-4718,6668,1199,1745202652027701121
716320,-39,-28,-155,-4658,6711,1149,1745202652027701121
716512,11,-21,-158,-4566,6768,1012,1745202652073954396
716704,52,-24,-154,-4470,6707,832,1745202652073954396
716896,85,-33,-153,-4402,6515,655,1745202652073954396
717088,112,-40,-163,-4337,6271,512,1745202652073954396
717280,131,-46,-165,-4304,5980,457,1745202652073954396
717472,139,-48,-150,-4262,5723,477,1745202652073954396
717664,139,-51,-122,-4225,5475,442,1745202652073954396
717856,125,-54,-86,-4196,5247,331,1745202652073954396
718048,98,-54,-46,-4181,5065,249,1745202652073954396
718240,65,-57,-3,-4154,4903,206,1745202652073954396
718432,28,-64,37,-4117,4836,192,1745202652073954396
718624,-10,-75,67,-4099,4846,114,1745202652073954396
718816,-49,-90,88,-4076,4987,116,1745202652135104411
719008,-96,-104,106,-4103,5157,93,1745202652135104411
719200,-140,-122,127,-4139,5343,149,1745202652135104411
719392,-168,-140,149,-4189,5561,149,1745202652135104411
719584,-182,-160,169,-4256,5766,340,1745202652135104411
719776,-169,-169,182,-4300,6123,527,1745202652135104411
719968,-153,-170,186,-4339,6559,679,1745202652135104411
720160,-132,-168,177,-4375,6834,659,1745202652135104411
720352,-84,-169,163,-4310,6737,817,1745202652135104411
720544,-11,-167,149,-4409,6557,497,1745202652135104411
720736,41,-192,161,-4410,6419,631,1745202652135104411
720928,72,-193,183,-4354,6421,763,1745202652135104411
721120,67,-196,201,-4445,6431,685,1745202652201382607
721312,56,-204,224,-4553,6154,701,1745202652201382607
721504,80,-212,248,-4637,5815,719,1745202652201382607
721696,103,-232,266,-4646,5646,699,1745202652201382607
721888,82,-243,272,-4644,5557,751,1745202652201382607
722080,36,-239,279,-4661,5572,772,1745202652201382607
722272,-19,-234,292,-4645,5588,679,1745202652201382607
722464,-65,-232,299,-4552,5699,856,1745202652201382607
722656,-93,-213,278,-4402,6270,1286,1745202652201382607
722848,-128,-192,231,-4324,7260,1218,1745202652201382607
723040,-149,-196,206,-4425,7672,1059,1745202652201382607
723232,-50,-209,234,-4632,7506,1073,1745202652201382607
723424,153,-220,289,-4536,7145,1078,1745202652252034124
723616,344,-252,316,-4570,6816,444,1745202652252034124
723808,473,-286,328,-4605,6423,337,1745202652252034124
724000,551,-285,345,-4638,5983,100,1745202652252034124
724192,603,-294,373,-4520,5571,-231,1745202652252034124
724384,630,-300,405,-4315,5282,-521,1745202652252034124
724576,611,-320,435,-4057,5196,-612,1745202652252034124
724768,545,-357,462,-3766,5103,-327,1745202652252034124
724960,458,-380,470,-3527,4971,-38,1745202652252034124
725152,330,-392,451,-3384,5027,79,1745202652252034124
725344,149,-406,431,-3345,5147,303,1745202652252034124
725536,-43,-415,441,-3367,5298,443,1745202652252034124
725728,-204,-420,492,-3451,5511,656,1745202652312521280
725920,-312,-424,560,-3509,5764,732,1745202652312521280
726112,-385,-429,609,-3596,5960,703,1745202652312521280
726304,-423,-431,636,-3684,6023,888,1745202652312521280
726496,-427,-434,659,-3783,6007,1100,1745202652312521280
726688,-411,-446,687,-3888,5978,1152,1745202652312521280
726880,-403,-458,710,-3918,6025,1200,1745202652312521280
727072,-409,-457,715,-3915,6146,1305,1745202652312521280
727264,-418,-458,703,-3894,6376,1286,1745202652312521280
727456,-440,-463,686,-3890,6645,1150,1745202652312521280
727648,-458,-465,677,-3874,6911,1188,1745202652312521280
727840,-456,-454,682,-3812,7212,1156,1745202652312521280
728032,-432,-445,693,-3722,7431,1052,1745202652370999652
728224,-380,-441,705,-3629,7615,951,1745202652370999652
728416,-295,-443,715,-3540,7754,849,1745202652370999652
728608,-187,-462,722,-3456,7855,763,1745202652370999652
728800,-63,-486,730,-3442,7989,688,1745202652370999652
728992,62,-512,737,-3472,8148,652,1745202652370999652
729184,185,-542,735,-3473,8299,731,1745202652370999652
729376,306,-578,726,-3464,8390,874,1745202652370999652
729568,432,-618,717,-3508,8480,1008,1745202652370999652
729760,576,-647,716,-3627,8566,1104,1745202652370999652
729952,741,-657,722,-3700,8692,1274,1745202652370999652
730144,930,-649,731,-3766,8857,1371,1745202652370999652
730336,1118,-660,754,-3856,9071,1353,1745202652447560358
730528,1258,-696,786,-3850,9009,1341,1745202652447560358
730720,1347,-744,804,-3838,8715,1408,1745202652447560358
730912,1418,-775,799,-3867,8376,1749,1745202652447560358
731104,1475,-784,787,-3900,8087,2095,1745202652447560358
731296,1502,-777,783,-4016,7978,2197,1745202652447560358
731488,1495,-755,795,-4148,7910,2193,1745202652447560358
731680,1444,-736,826,-4223,7947,2272,1745202652447560358
731872,1358,-726,851,-4253,7900,2450,1745202652447560358
732064,1283,-708,856,-4347,7871,2699,1745202652447560358
732256,1237,-675,826,-4416,7903,3000,1745202652447560358
732448,1200,-625,757,-4488,7988,3142,1745202652447560358
732640,1150,-572,684,-4599,8012,3020,1745202652485719124
732832,1069,-519,627,-4722,7941,2820,1745202652485719124
733024,946,-459,600,-4860,7850,2508,1745202652485719124
733216,789,-382,592,-4888,7808,2284,1745202652485719124
733408,604,-298,561,-4832,7941,2196,1745202652485719124
733600,422,-213,472,-4769,8167,2020,1745202652485719124
733792,239,-122,341,-4722,8564,1791,1745202652485719124
733984,43,-37,205,-4696,8999,1451,1745202652485719124
734176,-152,35,90,-4681,9492,1071,1745202652485719124
734368,-327,103,-2,-4643,10062,780,1745202652485719124
734560,-471,170,-79,-4621,10624,636,1745202652485719124
734752,-574,228,-156,-4588,11227,646,1745202652485719124
734944,-649,265,-241,-4561,11768,753,1745202652548291365
735136,-689,293,-331,-4554,12298,988,1745202652548291365
735328,-698,319,-425,-4599,12691,1256,1745202652548291365
735520,-676,343,-523,-4619,12918,1497,1745202652548291365
735712,-633,366,-617,-4688,12974,1570,1745202652548291365
735904,-569,391,-697,-4733,12753,1640,1745202652548291365
736096,-489,411,-752,-4777,12372,1843,1745202652548291365
736288,-423,418,-814,-4816,11860,1946,1745202652548291365
736480,-373,425,-885,-4911,11262,1907,1745202652548291365
736672,-348,447,-960,-4995,10664,1950,1745202652548291365
736864,-340,487,-1024,-5037,10104,2041,1745202652548291365
737056,-349,546,-1073,-5013,9627,2026,1745202652548291365
737248,-366,617,-1107,-4951,9241,1942,1745202652606767394
737440,-378,689,-1131,-4824,8957,1877,1745202652606767394
737632,-385,746,-1147,-4647,8767,1800,1745202652606767394
737824,-381,788,-1167,-4484,8648,1666,1745202652606767394
738016,-356,815,-1192,-4286,8578,1586,1745202652606767394
738208,-312,825,-1223,-4095,8558,1490,1745202652606767394
738400,-250,820,-1256,-3984,8563,1286,1745202652606767394
738592,-176,805,-1283,-3903,8526,991,1745202652606767394
738784,-91,783,-1295,-3869,8363,742,1745202652606767394
738976,-3,759,-1295,-3858,8057,555,1745202652606767394
739168,81,734,-1288,-3840,7633,372,1745202652606767394
739360,160,711,-1278,-3810,7144,232,1745202652606767394
739552,226,691,-1266,-3784,6691,84,1745202652663673645
739744,270,669,-1247,-3774,6281,-152,1745202652663673645
739936,283,648,-1222,-3747,5945,-385,1745202652663673645
740128,273,629,-1194,-3742,5645,-605,1745202652663673645
740320,254,612,-1160,-3714,5380,-784,1745202652663673645
740512,241,601,-1123,-3704,5166,-890,1745202652663673645
740704,243,589,-1079,-3662,5009,-966,1745202652663673645
740896,263,570,-1027,-3621,4852,-970,1745202652663673645
741088,302,545,-977,-3562,4729,-1026,1745202652663673645
741280,353,521,-933,-3486,4642,-1207,1745202652663673645
741472,399,496,-893,-3423,4573,-1411,1745202652663673645
741664,427,463,-851,-3360,4487,-1563,1745202652663673645
741856,438,423,-808,-3298,4480,-1666,1745202652719447562
742048,447,375,-765,-3287,4543,-1913,1745202652719447562
742240,465,317,-715,-3302,4546,-2453,1745202652719447562
742432,498,240,-654,-3323,4241,-3095,1745202652719447562
742624,578,141,-583,-3291,3705,-3165,1745202652719447562
742816,691,53,-530,-3140,3364,-2770,1745202652719447562
743008,695,-7,-507,-2870,3154,-3133,1745202652719447562
743200,529,-34,-496,-2674,2816,-3576,1745202652719447562
743392,306,-41,-454,-2556,2387,-3364,1745202652719447562
743584,150,-72,-352,-2556,2083,-2768,1745202652719447562
743776,102,-144,-205,-2647,2137,-2103,1745202652719447562
743968,127,-245,-66,-2841,2677,-1569,1745202652719447562
744160,166,-341,14,-3161,3598,-1100,1745202652779893521
744352,199,-405,37,-3600,4571,-621,1745202652779893521
744544,247,-444,10,-3971,5687,-201,1745202652779893521
744736,318,-453,-48,-4376,6867,-97,1745202652779893521
744928,391,-459,-109,-4726,7971,-1,1745202652779893521
745120,468,-451,-154,-4978,8730,249,1745202652779893521
745312,573,-439,-186,-5154,9188,619,1745202652779893521
745504,719,-436,-202,-5271,9421,932,1745202652779893521
745696,895,-428,-214,-5221,9463,1034,1745202652779893521
745888,1071,-431,-232,-5101,9312,963,1745202652779893521
746080,1214,-453,-250,-4902,8947,882,1745202652779893521
746272,1316,-494,-265,-4708,8498,890,1745202652779893521
746464,1364,-546,-277,-4614,8132,820,1745202652848725131
746656,1360,-592,-278,-4635,7839,608,1745202652848725131
746848,1329,-622,-261,-4798,7573,266,1745202652848725131
747040,1302,-633,-227,-5008,7330,-32,1745202652848725131
747232,1286,-635,-192,-5200,7251,-189,1745202652848725131
747424,1287,-639,-181,-5388,7365,-383,1745202652848725131
747616,1331,-611,-199,-5515,7584,-633,1745202652848725131
747808,1429,-553,-236,-5557,7948,-820,1745202652848725131
748000,1560,-506,-293,-5475,8338,-827,1745202652848725131
748192,1714,-470,-375,-5338,8681,-717,1745202652848725131
748384,1884,-438,-471,-5189,8892,-589,1745202652848725131
748576,2031,-422,-563,-5109,8937,-424,1745202652848725131
748768,2128,-429,-635,-5048,8713,-428,1745202652903973377
748960,2154,-456,-681,-5028,8248,-508,1745202652903973377
749152,2112,-495,-703,-5134,7466,-697,1745202652903973377
749344,2020,-524,-705,-5311,6572,-791,1745202652903973377
749536,1883,-524,-691,-5555,5766,-816,1745202652903973377
749728,1685,-500,-667,-5876,5213,-919,1745202652903973377
749920,1398,-457,-636,-6235,4900,-1062,1745202652903973377
750112,1037,-392,-599,-6551,4763,-1128,1745202652903973377
750304,661,-342,-559,-6812,4895,-959,1745202652903973377
750496,317,-295,-527,-7008,5291,-657,1745202652903973377
750688,29,-221,-490,-7153,5862,-631,1745202652903973377
750880,-177,-143,-450,-7219,6536,-839,1745202652903973377
751072,-288,-80,-411,-7136,7241,-937,1745202652953237666
751264,-318,-45,-396,-6949,7855,-1041,1745202652953237666
751456,-299,-19,-410,-6764,8298,-1241,1745202652953237666
751648,-251,-8,-439,-6577,8522,-1347,1745202652953237666
751840,-179,-16,-470,-6418,8555,-1405,1745202652953237666
752032,-90,-33,-495,-6313,8350,-1507,1745202652953237666
752224,-2,-56,-511,-6294,7913,-1643,1745202652953237666
752416,63,-75,-521,-6326,7312,-1796,1745202652953237666
752608,99,-92,-523,-6444,6582,-1949,1745202652953237666
752800,100,-101,-512,-6543,5877,-1899,1745202652953237666
752992,72,-97,-489,-6663,5258,-1721,1745202652953237666
753184,25,-72,-454,-6753,4825,-1550,1745202652953237666
753376,-35,-34,-409,-6800,4616,-1480,1745202653013776957
753568,-104,10,-367,-6770,4646,-1438,1745202653013776957
753760,-162,51,-329,-6626,4886,-1337,1745202653013776957
753952,-197,81,-303,-6394,5293,-1160,1745202653013776957
754144,-201,95,-290,-6097,5734,-940,1745202653013776957
754336,-187,100,-296,-5868,6092,-796,1745202653013776957
754528,-163,104,-319,-5669,6316,-700,1745202653013776957
754720,-127,104,-349,-5507,6297,-619,1745202653013776957
754912,-76,103,-369,-5364,6164,-574,1745202653013776957
755104,-25,93,-378,-5273,5976,-536,1745202653013776957
755296,10,79,-377,-5279,5730,-534,1745202653013776957
755488,23,71,-373,-5400,5551,-577,1745202653013776957
755680,18,75,-370,-5518,5375,-648,1745202653073255632
755872,4,87,-368,-5632,5242,-672,1745202653073255632
756064,-9,102,-367,-5665,5122,-636,1745202653073255632
756256,-19,111,-366,-5659,4947,-559,1745202653073255632
756448,-20,116,-366,-5555,4783,-335,1745202653073255632
756640,-12,123,-366,-5490,4612,-174,1745202653073255632
756832,13,134,-367,-5479,4510,-27,1745202653073255632
757024,50,152,-368,-5496,4531,133,1745202653073255632
757216,81,177,-370,-5556,4640,122,1745202653073255632
757408,104,198,-378,-5618,4837,98,1745202653073255632
757600,126,213,-394,-5687,5098,78,1745202653073255632
757792,149,225,-416,-5693,5313,16,1745202653073255632
757984,179,230,-441,-5695,5443,-79,1745202653128725699
758176,221,231,-464,-5661,5534,-272,1745202653128725699
758368,267,226,-475,-5594,5582,-374,1745202653128725699
758560,317,208,-477,-5472,5588,-209,1745202653128725699
758752,386,181,-472,-5299,5484,-526,1745202653128725699
758944,424,145,-451,-5120,4969,-1590,1745202653128725699
759136,403,73,-401,-4916,3802,-2221,1745202653128725699
759328,357,-10,-325,-4812,2506,-2442,1745202653128725699
759520,303,-86,-239,-4843,1554,-2387,1745202653128725699
759712,246,-85,-161,-4794,1023,-2232,1745202653128725699
759904,185,-87,-104,-4774,1077,-2394,1745202653128725699
760096,75,-114,-69,-4820,1500,-2477,1745202653128725699
760288,-74,-130,-38,-4956,2013,-2272,1745202653187655577
760480,-186,-153,-16,-5143,2660,-1893,1745202653187655577
760672,-237,-160,-13,-5394,3394,-1458,1745202653187655577
760864,-241,-154,-25,-5601,4238,-1284,1745202653187655577
761056,-225,-148,-50,-5718,5082,-991,1745202653187655577
761248,-190,-134,-89,-5813,5767,-1044,1745202653187655577
761440,-140,-124,-128,-5851,6235,-1138,1745202653187655577
761632,-104,-125,-160,-5884,6538,-1262,1745202653187655577
761824,-91,-127,-184,-5974,6775,-1434,1745202653187655577
762016,-111,-97,-198,-6200,7237,-1571,1745202653187655577
762208,-139,-56,-232,-6225,7729,-499,1745202653187655577
762400,-56,-56,-305,-6444,7949,695,1745202653187655577
762592,54,-53,-363,-6693,8081,841,1745202653262036877
762784,117,-42,-392,-6859,7854,214,1745202653262036877
762976,139,-49,-421,-6823,7070,-345,1745202653262036877
763168,137,-52,-446,-6748,6160,-569,1745202653262036877
763360,132,-45,-448,-6653,5613,-799,1745202653262036877
763552,122,-32,-440,-6523,5489,-1076,1745202653262036877
763744,99,-17,-439,-6394,5554,-1368,1745202653262036877
763936,66,-9,-443,-6279,5572,-1706,1745202653262036877
764128,36,-13,-442,-6193,5508,-1884,1745202653262036877
764320,15,-25,-438,-6100,5500,-1947,1745202653262036877
764512,-5,-39,-436,-6060,5462,-2148,1745202653262036877
764704,-18,-46,-431,-5988,5384,-2472,1745202653262036877
764896,-14,-62,-412,-5844,5203,-2719,1745202653320069419
765088,13,-94,-386,-5691,4973,-3012,1745202653320069419
765280,48,-136,-359,-5612,4764,-3131,1745202653320069419
765472,72,-172,-345,-5643,4701,-2943,1745202653320069419
765664,85,-189,-351,-5827,4911,-2553,1745202653320069419
765856,94,-180,-370,-6108,5363,-2222,1745202653320069419
766048,112,-155,-383,-6289,5801,-2004,1745202653320069419
766240,163,-135,-382,-6235,6130,-1885,1745202653320069419
766432,235,-134,-366,-6421,6424,-1806,1745202653320069419
766624,295,-153,-347,-6395,6665,-1733,1745202653320069419
766816,353,-164,-348,-6471,6959,-1557,1745202653320069419
767008,409,-168,-362,-6534,7143,-1395,1745202653320069419
767200,490,-168,-383,-6757,7220,-1288,1745202653364737918
767392,568,-184,-408,-7185,7099,-1311,1745202653364737918
767584,615,-192,-429,-7163,6694,-1411,1745202653364737918
767776,639,-192,-445,-7214,6121,-1524,1745202653364737918
767968,627,-181,-451,-7220,5538,-1626,1745202653364737918
768160,587,-168,-444,-7219,5086,-1731,1745202653364737918
768352,520,-156,-422,-7157,4842,-1825,1745202653364737918
768544,433,-145,-388,-7087,4751,-1877,1745202653364737918
768736,346,-140,-345,-6978,4703,-1913,1745202653364737918
768928,278,-134,-291,-6870,4587,-2064,1745202653364737918
769120,226,-155,-231,-6774,4460,-2325,1745202653364737918
769312,173,-177,-184,-6692,4034,-2858,1745202653364737918
769504,136,-184,-166,-6420,3490,-3055,1745202653424514507
769696,130,-194,-149,-6162,3060,-3191,1745202653424514507
769888,117,-229,-92,-5831,2814,-3360,1745202653424514507
770080,64,-271,-19,-5405,2743,-4080,1745202653424514507
770272,-25,-317,55,-5028,2908,-4729,1745202653424514507
770464,-100,-389,134,-4740,3513,-4798,1745202653424514507
770656,-127,-489,212,-4813,4286,-4352,1745202653424514507
770848,-55,-647,305,-5300,4894,-3459,1745202653424514507
771040,61,-761,342,-5553,5450,-2739,1745202653424514507
771232,112,-793,208,-6060,5393,-2006,1745202653424514507
771424,140,-813,83,-6550,5003,-338,1745202653424514507
771616,167,-795,44,-6905,4829,899,1745202653424514507
771808,162,-747,58,-7063,4989,1535,1745202653479416974
772000,128,-666,93,-7068,5112,1858,1745202653479416974
772192,104,-590,108,-6956,5095,2212,1745202653479416974
772384,121,-523,103,-6806,5017,2613,1745202653479416974
772576,168,-473,93,-6690,4896,2893,1745202653479416974
772768,209,-429,80,-6677,4667,2962,1745202653479416974
772960,218,-391,61,-6743,4362,2880,1745202653479416974
773152,193,-342,46,-6862,4039,2693,1745202653479416974
773344,140,-287,43,-6986,3832,2536,1745202653479416974
773536,69,-225,45,-7086,3833,2238,1745202653479416974
773728,-17,-158,48,-7137,4076,1807,1745202653479416974
773920,-108,-93,54,-7124,4419,1412,1745202653479416974
774112,-172,-39,60,-7081,4645,1070,1745202653540021473
774304,-198,2,66,-7048,4680,786,1745202653540021473
774496,-208,30,59,-6995,4663,328,1745202653540021473
774688,-224,47,45,-6882,4631,-116,1745202653540021473
774880,-242,51,41,-6748,4495,-477,1745202653540021473
775072,-244,42,54,-6604,4304,-681,1745202653540021473
775264,-231,20,60,-6541,4079,-839,1745202653540021473
775456,-231,-2,59,-6533,3895,-982,1745202653540021473
775648,-248,-18,54,-6527,3824,-1054,1745202653540021473
775840,-275,-30,40,-6526,3839,-1043,1745202653540021473
776032,-295,-34,27,-6541,3946,-891,1745202653540021473
776224,-297,-35,12,-6479,4155,-654,1745202653540021473
776416,-292,-36,-11,-6393,4363,-426,1745202653597424177
776608,-282,-41,-41,-6336,4418,-280,1745202653597424177
776800,-267,-47,-67,-6310,4405,-227,1745202653597424177
776992,-260,-55,-79,-6315,4406,-198,1745202653597424177
777184,-273,-61,-77,-6318,4341,-180,1745202653597424177
777376,-293,-55,-69,-6307,4278,-181,1745202653597424177
777568,-325,-45,-67,-6235,4242,-173,1745202653597424177
777760,-358,-40,-67,-6202,4128,-123,1745202653597424177
777952,-388,-27,-63,-6078,4178,-5,1745202653597424177
778144,-427,-9,-56,-5914,4310,21,1745202653597424177
778336,-465,-4,-52,-5782,4356,94,1745202653597424177
778528,-481,-8,-47,-5714,4353,121,1745202653597424177
778720,-479,-20,-38,-5692,4322,39,1745202653672828124
778912,-468,-34,-24,-5797,4200,-94,1745202653672828124
779104,-450,-47,-4,-5903,4043,-96,1745202653672828124
779296,-430,-54,2,-5978,3944,-156,1745202653672828124
779488,-417,-58,-11,-6080,3751,-181,1745202653672828124
779680,-408,-56,-17,-6131,3551,-156,1745202653672828124
779872,-404,-51,-4,-6117,3416,-131,1745202653672828124
780064,-395,-46,27,-6084,3291,-4,1745202653672828124
780256,-387,-41,69,-6075,3222,82,1745202653672828124
780448,-383,-35,114,-6060,3180,181,1745202653672828124
780640,-391,-26,154,-6028,3153,276,1745202653672828124
780832,-410,-19,184,-6005,3075,296,1745202653672828124
781024,-426,-11,210,-6004,3020,422,1745202653716434549
781216,-439,4,235,-5999,3027,559,1745202653716434549
781408,-455,20,250,-5991,3090,744,1745202653716434549
781600,-460,41,266,-5947,3215,921,1745202653716434549
781792,-465,61,283,-5908,3377,1002,1745202653716434549
781984,-463,71,297,-5873,3512,942,1745202653716434549
782176,-447,79,307,-5864,3620,871,1745202653716434549
782368,-430,86,310,-5848,3716,733,1745202653716434549
782560,-417,88,307,-5852,3762,630,1745202653716434549
782752,-410,91,304,-5894,3765,567,1745202653716434549
782944,-410,98,305,-5909,3747,477,1745202653716434549
783136,-418,112,319,-5885,3777,419,1745202653716434549
783328,-426,132,339,-5812,3875,351,1745202653770844833
783520,-432,149,357,-5681,4072,305,1745202653770844833
783712,-433,156,367,-5589,4273,317,1745202653770844833
783904,-419,156,373,-5509,4469,329,1745202653770844833
784096,-388,149,378,-5484,4595,282,1745202653770844833
784288,-349,138,385,-5465,4668,205,1745202653770844833
784480,-315,123,394,-5495,4587,174,1745202653770844833
784672,-285,108,407,-5502,4467,53,1745202653770844833
784864,-270,96,421,-5521,4332,5,1745202653770844833
785056,-268,88,438,-5514,4201,13,1745202653770844833
785248,-281,81,458,-5490,4091,-3,1745202653770844833
785440,-296,80,486,-5445,4031,-13,1745202653770844833
785632,-311,79,518,-5420,4037,-58,1745202653831548028
785824,-320,75,551,-5384,4085,-125,1745202653831548028
786016,-323,65,585,-5380,4143,-215,1745202653831548028
786208,-314,55,621,-5407,4195,-343,1745202653831548028
786400,-290,47,652,-5411,4315,-464,1745202653831548028
786592,-251,45,673,-5425,4500,-514,1745202653831548028
786784,-197,44,687,-5415,4641,-610,1745202653831548028
786976,-133,42,700,-5397,4774,-704,1745202653831548028
787168,-67,33,719,-5375,4876,-752,1745202653831548028
787360,-9,18,742,-5371,4915,-823,1745202653831548028
787552,37,5,771,-5379,4931,-844,1745202653831548028
787744,67,2,804,-5392,4895,-807,1745202653831548028
787936,79,1,839,-5391,4871,-782,1745202653892286015
788128,86,8,880,-5320,4796,-694,1745202653892286015
788320,98,15,926,-5254,4751,-603,1745202653892286015
788512,113,19,969,-5138,4785,-516,1745202653892286015
788704,127,17,1001,-5068,4863,-447,1745202653892286015
788896,142,10,1021,-4986,5008,-391,1745202653892286015
789088,159,4,1026,-4952,5184,-340,1745202653892286015
789280,182,-1,1026,-4929,5361,-336,1745202653892286015
789472,211,-3,1029,-4932,5554,-378,1745202653892286015
789664,245,-2,1043,-4905,5719,-453,1745202653892286015
789856,289,0,1070,-4849,5876,-553,1745202653892286015
790048,347,-3,1102,-4731,6009,-662,1745202653892286015
790240,426,-12,1130,-4671,6084,-783,1745202653951764534
790432,524,-25,1159,-4607,6121,-888,1745202653951764534
790624,627,-42,1187,-4581,6072,-1043,1745202653951764534
790816,719,-61,1214,-4540,5979,-1206,1745202653951764534
791008,795,-77,1235,-4442,5849,-1365,1745202653951764534
791200,867,-89,1254,-4351,5688,-1482,1745202653951764534
791392,940,-98,1281,-4284,5531,-1603,1745202653951764534
791584,1014,-108,1320,-4241,5405,-1719,1745202653951764534
791776,1087,-118,1364,-4191,5309,-1811,1745202653951764534
791968,1150,-132,1412,-4161,5243,-1947,1745202653951764534
792160,1208,-143,1455,-4095,5190,-2143,1745202653951764534
792352,1269,-150,1488,-4076,5236,-2202,1745202653951764534
792544,1337,-155,1517,-4016,5387,-2264,1745202654006253724
792736,1410,-156,1537,-3937,5601,-2432,1745202654006253724
792928,1480,-168,1551,-3874,5779,-2430,1745202654006253724
793120,1541,-190,1570,-3785,5801,-2426,1745202654006253724
793312,1576,-229,1595,-3679,5607,-2537,1745202654006253724
793504,1577,-284,1635,-3558,5206,-2710,1745202654006253724
793696,1567,-335,1683,-3486,4817,-2784,1745202654006253724
793888,1546,-363,1742,-3450,4541,-2806,1745202654006253724
794080,1508,-372,1809,-3436,4383,-2893,1745202654006253724
794272,1460,-365,1880,-3351,4323,-2916,1745202654006253724
794464,1423,-350,1934,-3221,4367,-2912,1745202654006253724
794656,1408,-352,1972,-3217,4491,-2945,1745202654006253724
794848,1426,-354,2010,-3133,4817,-3003,1745202654071000008
795040,1490,-352,2020,-3018,5342,-3153,1745202654071000008
795232,1611,-355,1997,-2948,6056,-3245,1745202654071000008
795424,1796,-350,1952,-2848,6864,-3341,1745202654071000008
795616,2023,-358,1890,-2788,7542,-3332,1745202654071000008
795808,2257,-399,1845,-2669,7830,-3326,1745202654071000008
796000,2463,-447,1845,-2517,7510,-3437,1745202654071000008
796192,2601,-504,1919,-2353,6619,-3865,1745202654071000008
796384,2659,-573,2044,-2180,5505,-4363,1745202654071000008
796576,2640,-642,2193,-2136,4529,-4648,1745202654071000008
796768,2528,-699,2341,-2147,3838,-4794,1745202654071000008
796960,2336,-738,2463,-2211,3332,-4972,1745202654071000008
797152,2124,-752,2552,-2266,3024,-5134,1745202654121563400
797344,1903,-742,2606,-2218,3034,-5207,1745202654121563400
797536,1689,-728,2625,-2228,3356,-5265,1745202654121563400
797728,1511,-714,2627,-2123,3995,-5269,1745202654121563400
797920,1407,-693,2599,-1957,4987,-5238,1745202654121563400
798112,1401,-684,2519,-1731,6244,-5069,1745202654121563400
798304,1519,-696,2380,-1569,7625,-4790,1745202654121563400
798496,1786,-725,2241,-1480,8921,-4337,1745202654121563400
798688,2182,-724,2124,-1317,10026,-3736,1745202654121563400
798880,2635,-709,2060,-1171,10667,-3104,1745202654121563400
799072,3052,-710,2053,-1053,10675,-2787,1745202654121563400
799264,3355,-728,2099,-930,9916,-2765,1745202654121563400
799456,3548,-759,2179,-840,8673,-2908,1745202654182626227
799648,3674,-793,2278,-862,7320,-3174,1745202654182626227
799840,3717,-820,2389,-930,6185,-3349,1745202654182626227
800032,3647,-830,2498,-1049,5272,-3728,1745202654182626227
800224,3480,-820,2587,-1183,4632,-3992,1745202654182626227
800416,3269,-780,2653,-1262,4243,-4217,1745202654182626227
800608,3050,-718,2684,-1392,4130,-4544,1745202654182626227
800800,2839,-653,2703,-1439,4323,-4911,1745202654182626227
800992,2650,-574,2704,-1367,4791,-5258,1745202654182626227
801184,2518,-493,2679,-1212,5485,-5708,1745202654182626227
801376,2469,-416,2627,-991,6433,-6029,1745202654182626227
801568,2515,-352,2567,-816,7444,-6197,1745202654182626227
801760,2636,-313,2526,-546,8344,-5982,1745202654241794645
801952,2778,-298,2498,-224,8859,-5868,1745202654241794645
802144,2908,-300,2476,70,8979,-5813,1745202654241794645
802336,3034,-302,2473,257,8846,-5595,1745202654241794645
802528,3123,-292,2487,412,8563,-5545,1745202654241794645
802720,3123,-277,2506,565,8100,-5677,1745202654241794645
802912,3036,-258,2519,672,7496,-5755,1745202654241794645
803104,2900,-226,2520,767,6918,-5834,1745202654241794645
803296,2734,-179,2514,820,6549,-5895,1745202654241794645
803488,2526,-141,2509,998,6387,-6033,1745202654241794645
803680,2311,-117,2493,1249,6351,-6377,1745202654241794645
803872,2145,-111,2466,1546,6641,-6462,1745202654241794645
804064,2073,-107,2418,1796,7270,-6469,1745202654298049236
804256,2095,-109,2348,1983,8196,-6475,1745202654298049236
804448,2187,-125,2271,2107,9082,-6508,1745202654298049236
804640,2363,-161,2197,2153,9709,-6455,1745202654298049236
804832,2609,-199,2111,2180,10191,-6388,1745202654298049236
805024,2885,-228,2009,1997,10214,-6294,1745202654298049236
805216,3153,-246,1924,1734,9964,-6234,1745202654298049236
805408,3365,-248,1858,1459,9413,-6436,1745202654298049236
805600,3497,-243,1802,1172,8640,-6678,1745202654298049236
805792,3547,-219,1750,918,7751,-6930,1745202654298049236
805984,3524,-164,1707,725,6790,-7174,1745202654298049236
806176,3438,-89,1679,637,5958,-7409,1745202654298049236
806368,3304,-6,1660,700,5275,-7585,1745202654366341216
806560,3150,85,1637,879,4754,-7586,1745202654366341216
806752,3006,203,1606,1241,4286,-6534,1745202654366341216
806944,2880,497,1570,1706,4713,-6149,1745202654366341216
807136,2686,815,1512,22,5063,-8153,1745202654366341216
807328,2491,766,1525,2015,3709,-8069,1745202654366341216
807520,2658,722,1376,2044,4493,-8996,1745202654366341216
807712,2337,487,1394,2022,4212,-8721,1745202654366341216
807904,2149,299,1395,2288,3907,-8020,1745202654366341216
808096,2057,270,1365,2292,3735,-8205,1745202654366341216
808288,1990,246,1327,2291,3809,-8188,1745202654366341216
808480,1899,239,1263,2168,3801,-8173,1745202654366341216
808672,1801,238,1188,1982,3680,-8228,1745202654413282245
808864,1727,233,1119,1823,3628,-8394,1745202654413282245
809056,1646,223,1056,1709,3637,-8382,1745202654413282245
809248,1527,234,996,1640,3596,-8477,1745202654413282245
809440,1400,261,949,1613,3587,-8286,1745202654413282245
809632,1299,289,923,1676,3635,-7889,1745202654413282245
809824,1237,303,899,1820,3753,-7611,1745202654413282245
810016,1207,304,861,1964,3879,-7490,1745202654413282245
810208,1180,305,814,2060,3943,-7557,1745202654413282245
810400,1125,311,771,2099,3807,-7709,1745202654413282245
810592,1038,324,742,2085,3532,-7958,1745202654413282245
810784,933,331,733,2077,3243,-8227,1745202654413282245
810976,832,327,737,2122,3070,-8397,1745202654476483126
811168,743,310,740,2154,3109,-8388,1745202654476483126
811360,677,293,730,2183,3318,-8311,1745202654476483126
811552,629,282,710,2236,3563,-8136,1745202654476483126
811744,606,272,690,2293,3767,-7985,1745202654476483126
811936,615,257,667,2338,3845,-7917,1745202654476483126
812128,649,239,620,2283,3856,-7704,1745202654476483126
812320,708,232,558,2149,3831,-7507,1745202654476483126
812512,769,235,512,2108,3743,-7587,1745202654476483126
812704,816,227,492,2124,3578,-7775,1745202654476483126
812896,850,217,477,2127,3336,-7173,1745202654476483126
813088,866,227,444,1971,3267,-7247,1745202654476483126
813280,822,257,409,2016,3169,-8051,1745202654542131641
813472,794,310,403,2209,2902,-8538,1745202654542131641
813664,680,316,431,2425,3201,-9638,1745202654542131641
813856,352,310,420,2972,3602,-11054,1745202654542131641
814048,-1,233,361,3611,3982,-12364,1745202654542131641
814240,-242,76,278,4039,4483,-12970,1745202654542131641
814432,-405,-30,245,4383,4709,-13133,1745202654542131641
814624,-416,-155,274,4434,5179,-12351,1745202654542131641
814816,-104,-353,296,3969,5700,-11842,1745202654542131641
815008,140,-491,298,3300,5739,-11011,1745202654542131641
815200,171,-563,251,2510,4739,-10021,1745202654542131641
815392,94,-636,132,1594,3105,-8315,1745202654542131641
815584,155,-641,63,788,1771,-6898,1745202654588766267
815776,284,-551,78,312,1042,-6382,1745202654588766267
815968,343,-444,116,190,739,-6353,1745202654588766267
816160,336,-339,146,347,622,-6553,1745202654588766267
816352,301,-246,169,742,610,-7000,1745202654588766267
816544,269,-161,194,1350,505,-7648,1745202654588766267
816736,244,-140,240,1862,633,-8278,1745202654588766267
816928,186,-155,248,2293,723,-8539,1745202654588766267
817120,187,-138,247,2541,782,-8719,1745202654588766267
817312,199,-201,239,2539,866,-8764,1745202654588766267
817504,172,-250,213,2294,828,-8551,1745202654588766267
817696,173,-263,183,1970,722,-8285,1745202654588766267
817888,214,-278,113,1408,593,-8312,1745202654651252415
818080,201,-286,-36,805,379,-8337,1745202654651252415
818272,99,-173,-63,547,75,-8212,1745202654651252415
818464,30,-115,-2,707,-61,-8078,1745202654651252415
818656,-24,-51,34,1002,124,-8036,1745202654651252415
818848,-76,-5,46,1380,440,-8047,1745202654651252415
819040,-120,17,36,1726,802,-8027,1745202654651252415
819232,-142,10,25,1940,1166,-8037,1745202654651252415
819424,-146,-13,19,2026,1476,-8007,1745202654651252415
819616,-137,-41,12,1994,1724,-7989,1745202654651252415
819808,-112,-69,6,1842,1903,-7928,1745202654651252415
820000,-79,-81,7,1654,2004,-7865,1745202654651252415
820192,-46,-80,6,1445,1977,-7812,1745202654713395806
820384,-10,-66,5,1299,1910,-7792,1745202654713395806
820576,23,-44,7,1208,1798,-7756,1745202654713395806
820768,50,-18,9,1198,1676,-7772,1745202654713395806
820960,72,8,12,1252,1554,-7805,1745202654713395806
821152,88,29,17,1318,1445,-7856,1745202654713395806
821344,97,44,19,1455,1348,-7930,1745202654713395806
821536,104,48,16,1549,1283,-7993,1745202654713395806
821728,108,40,23,1632,1247,-8002,1745202654713395806
821920,105,33,30,1656,1219,-7976,1745202654713395806
822112,97,25,35,1646,1142,-7931,1745202654713395806
822304,90,19,39,1583,1118,-7895,1745202654713395806
822496,84,16,35,1518,1115,-7867,1745202654776287836
822688,83,19,30,1482,1177,-7870,1745202654776287836
822880,87,23,25,1488,1295,-7889,1745202654776287836
823072,92,27,24,1513,1383,-7866,1745202654776287836
823264,99,32,24,1540,1432,-7851,1745202654776287836
823456,109,34,25,1593,1467,-7856,1745202654776287836
823648,123,34,29,1597,1452,-7834,1745202654776287836
823840,136,35,32,1640,1410,-7816,1745202654776287836
824032,147,34,30,1633,1299,-7839,1745202654776287836
824224,151,27,29,1611,1172,-7836,1745202654776287836
824416,147,27,28,1582,1022,-7874,1745202654776287836
824608,138,27,28,1569,926,-7883,1745202654776287836
824800,126,28,29,1568,893,-7881,1745202654831658528
824992,114,28,33,1587,910,-7878,1745202654831658528
825184,100,26,33,1619,928,-7872,1745202654831658528
825376,85,23,32,1635,948,-7896,1745202654831658528
825568,74,18,29,1659,981,-7960,1745202654831658528
825760,65,14,26,1651,1036,-7986,1745202654831658528
825952,60,10,29,1645,1101,-7978,1745202654831658528
826144,62,7,38,1653,1193,-8022,1745202654831658528
826336,69,2,48,1674,1276,-8011,1745202654831658528
826528,78,-2,55,1684,1346,-7973,1745202654831658528
826720,85,-6,57,1686,1381,-7906,1745202654831658528
826912,92,-10,53,1665,1351,-7860,1745202654831658528
827104,102,-10,46,1633,1284,-7864,1745202654885554598
827296,115,-8,41,1612,1206,-7870,1745202654885554598
827488,122,1,38,1638,1150,-7881,1745202654885554598
827680,121,-2,30,1579,1067,-7910,1745202654885554598
827872,115,-5,41,1571,919,-7864,1745202654885554598
828064,83,73,89,1885,813,-7749,1745202654885554598
828256,65,85,95,1974,811,-7900,1745202654885554598
828448,69,-8,67,1803,826,-7960,1745202654885554598
828640,54,-36,48,1581,841,-8001,1745202654885554598
828832,30,-17,48,1488,860,-8006,1745202654885554598
829024,20,-4,51,1438,932,-7974,1745202654885554598
829216,15,-3,52,1441,1002,-7944,1745202654885554598
829408,13,-6,55,1432,1084,-7917,1745202654953297625
829600,17,-10,56,1449,1132,-7886,1745202654953297625
829792,17,-1,53,1487,1134,-7860,1745202654953297625
829984,17,14,54,1578,1120,-7857,1745202654953297625
830176,28,3,48,1588,1083,-7875,1745202654953297625
830368,33,-2,47,1608,1072,-7906,1745202654953297625
830560,26,12,56,1681,1038,-7902,1745202654953297625
830752,18,32,69,1782,1038,-7903,1745202654953297625
830944,27,6,66,1771,1104,-7893,1745202654953297625
831136,33,-22,54,1688,1123,-7877,1745202654953297625
831328,22,-13,51,1627,1067,-7862,1745202654953297625
831520,12,10,56,1633,1024,-7854,1745202654953297625
831712,30,-16,56,1565,1031,-7879,1745202655002615768
831904,41,-40,51,1467,1039,-7917,1745202655002615768
832096,26,-20,52,1462,986,-7911,1745202655002615768
832288,8,7,56,1531,934,-7911,1745202655002615768
832480,5,8,48,1596,935,-7955,1745202655002615768
832672,6,-4,35,1597,948,-7992,1745202655002615768
832864,2,-14,25,1580,914,-7971,1745202655002615768
833056,-9,-17,21,1545,888,-7969,1745202655002615768
833248,-33,3,21,1585,847,-7953,1745202655002615768
833440,-57,26,25,1646,838,-7929,1745202655002615768
833632,-47,8,19,1613,918,-7992,1745202655002615768
833824,-42,-8,6,1603,989,-8066,1745202655002615768
834016,-65,13,5,1619,1042,-8027,1745202655063733543
834208,-56,4,7,1611,1146,-7964,1745202655063733543
834400,-22,-26,-3,1497,1274,-7983,1745202655063733543
834592,-2,-30,-8,1408,1347,-7945,1745202655063733543
834784,15,-21,-7,1373,1363,-7889,1745202655063733543
834976,33,-7,-3,1374,1303,-7888,1745202655063733543
835168,49,1,1,1418,1201,-7906,1745202655063733543
835360,59,10,8,1498,1123,-7918,1745202655063733543
835552,66,15,11,1576,1035,-7931,1745202655063733543
835744,68,17,9,1623,995,-7914,1745202655063733543
835936,63,13,9,1658,930,-7909,1745202655063733543
836128,58,9,9,1651,873,-7927,1745202655063733543
836320,51,5,7,1633,837,-7921,1745202655179548058
836512,39,2,5,1588,794,-7897,1745202655179548058
836704,26,3,4,1570,763,-7920,1745202655179548058
836896,9,5,3,1544,732,-7910,1745202655179548058
837088,-5,8,4,1541,770,-7920,1745202655179548058
837280,-15,11,2,1579,824,-7911,1745202655179548058
837472,-24,13,0,1605,890,-7913,1745202655179548058
837664,-30,12,-2,1637,965,-7914,1745202655179548058
837856,-28,8,-3,1670,1053,-7951,1745202655179548058
838048,-22,3,-4,1668,1142,-7955,1745202655179548058
838240,-17,-2,-6,1653,1192,-7949,1745202655179548058
838432,-9,-1,-9,1382,1144,-7667,1745202655179548058
838624,-23,59,-27,597,551,-7590,1745202655192287785
838816,-13,147,-53,1085,489,-7643,1745202655192287785
839008,55,235,-60,2064,1034,-7789,1745202655192287785
839200,125,289,-63,2480,1163,-6990,1745202655192287785
839392,284,401,-24,2319,1587,-8284,1745202655192287785
839584,115,173,-31,2153,1244,-9542,1745202655192287785
839776,-49,-135,-29,1823,646,-7421,1745202655192287785
839968,-23,-79,-8,1615,687,-7929,1745202655192287785
840160,-23,-121,-15,1688,956,-7813,1745202655192287785
840352,-19,-111,-7,1769,1324,-7881,1745202655192287785
840544,0,-135,-12,1774,1509,-7682,1745202655192287785
840736,104,-145,-16,1671,1157,-6889,1745202655192287785
840928,405,-159,-22,1448,883,-7520,1745202655241599314
841120,290,-139,-16,1316,1312,-8939,1745202655241599314
841312,56,-116,12,1215,1200,-7789,1745202655241599314
841504,66,-65,5,1056,1081,-7868,1745202655241599314
841696,51,-3,44,1047,808,-7866,1745202655241599314
841888,25,88,116,1299,673,-7837,1745202655241599314
842080,43,85,97,1219,645,-7914,1745202655241599314
842272,45,90,38,1126,715,-7886,1745202655241599314
842464,34,131,1,1073,803,-7817,1745202655241599314
842656,26,173,11,1132,870,-7804,1745202655241599314
842848,31,203,31,1324,1022,-7839,1745202655241599314
843040,40,226,44,1494,1123,-7855,1745202655241599314
844768,142,-235,-33,1738,895,-7975,1745202660545831797
1050016,-26,127,46,2155,160,-7255,1745202660545831797
1050208,-30,172,53,1452,-794,-8183,1745202660545831797
1050400,-198,240,42,2342,249,-7683,1745202660545831797
1050592,-194,270,27,2436,549,-7639,1745202660545831797
1050784,-129,244,33,2544,651,-7653,1745202660545831797
1050976,-89,221,51,2635,589,-7836,1745202660545831797
1051168,-74,218,55,2650,461,-7937,1745202660545831797
1051360,-57,176,54,2669,296,-8017,1745202660545831797
1051552,-53,146,46,2793,163,-8010,1745202660545831797
1051744,-39,108,19,2814,119,-7983,1745202660545831797
1051936,-32,62,-2,2757,171,-7917,1745202660545831797
1052320,15,-4,28,2661,230,-7820,1745202660606164371
1052512,42,-35,44,2616,204,-7839,1745202660606164371
1052704,65,-54,45,2726,197,-7885,1745202660606164371
1052896,94,-90,40,2843,192,-7920,1745202660606164371
1053088,96,-117,29,2784,96,-7885,1745202660606164371
1053280,89,-135,18,2668,-91,-7837,1745202660606164371
1053472,82,-153,11,2585,-217,-7787,1745202660606164371
1053664,78,-161,14,2500,-286,-7748,1745202660606164371
1053856,78,-164,21,2418,-310,-7753,1745202660606164371
1054048,75,-163,26,2318,-337,-7767,1745202660606164371
1054240,66,-153,28,2220,-357,-7800,1745202660606164371
1054432,44,-134,25,2097,-347,-7800,1745202660606164371
1054624,19,-101,20,2015,-357,-7783,1745202660672067207
1054816,18,-67,23,1912,-267,-7804,1745202660672067207
1055008,25,-40,33,1875,-62,-7855,1745202660672067207
1055200,12,-6,35,1968,140,-7898,1745202660672067207
1055392,-22,52,9,2040,180,-7811,1745202660672067207
1055584,-12,109,-16,2008,129,-7791,1745202660672067207
1055776,29,113,-15,1986,212,-7808,1745202660672067207
1055968,57,121,9,2120,411,-7782,1745202660672067207
1056160,80,142,22,1497,-653,-7637,1745202660672067207
1056352,106,247,-8,3252,1039,-7902,1745202660672067207
1056544,245,41,34,2971,1424,-7158,1745202660672067207
1056736,279,66,32,2426,344,-7514,1745202660672067207
1056928,308,17,58,2988,-1484,-7887,1745202660724721778
1057120,136,-143,40,4623,-3708,-7938,1745202660724721778
1057312,34,-261,48,3936,-2842,-7633,1745202660724721778
1057504,-52,-299,64,2854,-1392,-7797,1745202660724721778
1057696,-156,-344,45,2013,-226,-7630,1745202660724721778
1057888,-222,-291,-2,1367,388,-7470,1745202660724721778
1058080,-191,-220,-25,1062,629,-7418,1745202660724721778
1058272,-98,-149,0,1109,708,-7581,1745202660724721778
1058464,-26,-75,37,1399,657,-7796,1745202660724721778
1058656,9,-20,61,1856,467,-7845,1745202660724721778
1058848,39,7,64,2326,242,-7885,1745202660724721778
1059040,50,2,53,2673,27,-7876,1745202660724721778
1059232,40,-21,36,2866,-174,-7870,1745202660788727183
1059424,25,-49,14,2930,-263,-7930,1745202660788727183
1059616,14,-77,-12,2823,-214,-7947,1745202660788727183
1059808,22,-108,-29,2614,-54,-7983,1745202660788727183
1060000,30,-131,-39,2368,41,-7835,1745202660788727183
1060192,45,-138,-36,2141,-13,-7700,1745202660788727183
1060384,45,-119,-39,2040,-196,-7715,1745202660788727183
1060576,34,-80,-60,1996,-404,-7744,1745202660788727183
1060768,43,-60,-76,2032,-520,-7823,1745202660788727183
1060960,33,-49,-82,2135,-546,-7894,1745202660788727183
1061152,5,-25,-82,2253,-509,-7881,1745202660788727183
1061344,8,-55,-63,2277,-393,-7926,1745202660788727183
1061536,-24,-50,-64,2340,-284,-7909,1745202660837964754
1061728,-66,16,-94,2442,-189,-7870,1745202660837964754
1061920,-52,-29,-105,2366,7,-7838,1745202660837964754
1062112,-34,-88,-81,2267,134,-7868,1745202660837964754
1062304,-65,-70,-62,2229,45,-7843,1745202660837964754
1062496,-89,-44,-65,2260,-107,-7797,1745202660837964754
1062688,-82,-66,-70,2213,-221,-7830,1745202660837964754
1062880,-117,-41,-95,2303,-297,-7798,1745202660837964754
1063072,-168,-1,-119,2370,-419,-7946,1745202660837964754
1063264,-174,-69,-107,2269,-395,-8000,1745202660837964754
1063456,-202,-102,-77,2273,-378,-8091,1745202660837964754
1063648,-297,-21,-86,2288,-457,-8095,1745202660837964754
1063840,-374,-17,-107,2359,-461,-7840,1745202660897544105
1064032,-429,-14,-123,2478,-350,-7941,1745202660897544105
1064224,-494,-27,-125,2629,-168,-7948,1745202660897544105
1064416,-610,-23,-128,2815,-84,-7895,1745202660897544105
1064608,-715,-7,-138,2982,-149,-7845,1745202660897544105
1064800,-796,-12,-147,3124,-194,-7881,1745202660897544105
1064992,-871,-17,-155,3289,-239,-8148,1745202660897544105
1065184,-961,-44,-183,3345,-196,-8486,1745202660897544105
1065376,-1077,-72,-236,3306,-102,-8738,1745202660897544105
1065568,-1208,-99,-298,3178,-76,-8914,1745202660897544105
1065760,-1342,-137,-361,2934,-148,-9017,1745202660897544105
1065952,-1474,-157,-408,2622,-289,-9210,1745202660897544105
1066144,-1590,-185,-422,2336,-577,-8158,1745202661022013645
1066336,-1800,-207,-411,1828,-1285,-8453,1745202661022013645
1066528,-2002,-213,-366,1354,-1892,-9406,1745202661022013645
1066720,-2145,-207,-266,1151,-2082,-9306,1745202661022013645
1066912,-2250,-165,-158,1308,-1628,-9110,1745202661022013645
1067104,-2335,-109,-132,1654,-772,-9155,1745202661022013645
1067296,-2423,-67,-191,2027,102,-8925,1745202661022013645
1067488,-2483,-61,-270,2306,787,-8674,1745202661022013645
1067680,-2476,-84,-331,2458,1262,-8513,1745202661022013645
1067872,-2415,-120,-359,2497,1665,-8452,1745202661022013645
1068064,-2347,-154,-380,2631,1954,-8564,1745202661022013645
1068256,-2248,-186,-415,2709,2206,-8747,1745202661022013645
1068448,-2206,-238,-451,2725,2571,-8847,1745202661032549955
1068640,-2273,-290,-501,2720,2893,-8312,1745202661032549955
1068832,-2489,-339,-594,2650,3318,-8555,1745202661032549955
1069024,-2937,-348,-786,2528,3675,-9273,1745202661032549955
1069216,-3537,-372,-1009,2223,3889,-8899,1745202661032549955
1069408,-4000,-411,-1117,2067,4381,-8054,1745202661032549955
1069600,-4188,-465,-1127,1809,5028,-7441,1745202661032549955
1069792,-4177,-535,-1079,1552,5607,-7299,1745202661032549955
1069984,-4082,-573,-1003,1274,6101,-7453,1745202661032549955
1070176,-3987,-579,-930,1019,6457,-7626,1745202661032549955
1070368,-3894,-578,-886,778,6675,-7674,1745202661032549955
1070560,-3768,-575,-870,562,6878,-7498,1745202661032549955
1070752,-3609,-569,-876,328,7196,-7283,1745202661076678354
1070944,-3425,-560,-901,99,7558,-7225,1745202661076678354
1071136,-3222,-546,-933,-24,7863,-7144,1745202661076678354
1071328,-3002,-512,-966,-99,8073,-7021,1745202661076678354
1071520,-2766,-487,-1005,-102,8234,-6853,1745202661076678354
1071712,-2509,-456,-1047,-125,8366,-6578,1745202661076678354
1071904,-2222,-424,-1080,-103,8500,-6208,1745202661076678354
1072096,-1911,-395,-1104,-70,8673,-5865,1745202661076678354
1072288,-1586,-365,-1123,-18,8786,-5521,1745202661076678354
1072480,-1272,-334,-1149,18,8764,-5192,1745202661076678354
1072672,-991,-299,-1179,45,8508,-4978,1745202661076678354
1072864,-752,-263,-1208,114,8011,-4881,1745202661076678354
1073056,-558,-226,-1233,165,7321,-4951,1745202661138983671
1073248,-413,-186,-1249,198,6532,-5032,1745202661138983671
1073440,-317,-147,-1251,319,5820,-5119,1745202661138983671
1073632,-261,-102,-1259,384,5242,-5152,1745202661138983671
1073824,-245,-61,-1272,472,4801,-5143,1745202661138983671
1074016,-264,-24,-1295,530,4576,-5162,1745202661138983671
1074208,-319,3,-1319,598,4470,-5128,1745202661138983671
1074400,-394,29,-1336,663,4480,-5157,1745202661138983671
1074592,-472,51,-1340,698,4575,-5138,1745202661138983671
1074784,-542,74,-1330,711,4777,-5033,1745202661138983671
1074976,-601,98,-1310,701,5029,-4882,1745202661138983671
1075168,-637,121,-1285,700,5313,-4701,1745202661138983671
1075360,-642,142,-1257,680,5586,-4565,1745202661211521446
1075552,-614,161,-1232,676,5825,-4488,1745202661211521446
1075744,-565,178,-1203,678,5922,-4473,1745202661211521446
1075936,-502,190,-1173,666,5883,-4530,1745202661211521446
1076128,-435,199,-1140,668,5711,-4602,1745202661211521446
1076320,-373,208,-1105,670,5434,-4745,1745202661211521446
1076512,-321,217,-1071,672,5142,-4819,1745202661211521446
1076704,-294,226,-1034,687,4839,-4888,1745202661211521446
1076896,-297,233,-997,706,4526,-4926,1745202661211521446
1077088,-328,237,-960,683,4232,-4867,1745202661211521446
1077280,-383,241,-922,660,3918,-4828,1745202661211521446
1077472,-449,245,-884,663,3628,-4776,1745202661211521446
1077664,-523,249,-841,605,3422,-4745,1745202661252263730
1077856,-597,254,-791,553,3336,-4672,1745202661252263730
1078048,-666,263,-735,529,3419,-4630,1745202661252263730
1078240,-730,278,-679,515,3626,-4574,1745202661252263730
1078432,-782,296,-628,523,3849,-4561,1745202661252263730
1078624,-820,316,-590,550,4079,-4601,1745202661252263730
1078816,-840,335,-559,607,4281,-4637,1745202661252263730
1079008,-842,350,-526,683,4413,-4348,1745202661252263730
1079200,-830,355,-483,777,4231,-4031,1745202661252263730
1079392,-824,347,-407,838,3846,-4565,1745202661252263730
1079584,-864,326,-286,887,3322,-5061,1745202661252263730
1079776,-926,309,-144,908,2717,-4750,1745202661252263730
1079968,-964,316,-1,914,2304,-4421,1745202661325128324
1080160,-1000,329,116,980,2131,-4347,1745202661325128324
1080352,-1050,336,194,1048,2110,-4377,1745202661325128324
1080544,-1098,330,248,1136,2152,-4504,1745202661325128324
1080736,-1140,322,287,1207,2304,-4637,1745202661325128324
1080928,-1185,312,312,1319,2533,-4698,1745202661325128324
1081120,-1228,301,328,1369,2777,-4745,1745202661325128324
1081312,-1252,295,342,1452,3075,-4768,1745202661325128324
1081504,-1235,310,352,1632,3594,-4987,1745202661325128324
1081696,-1173,339,354,1803,4390,-5285,1745202661325128324
1081888,-1089,380,351,2029,5389,-5823,1745202661325128324
1082080,-1059,423,336,2295,6238,-6187,1745202661325128324
1082272,-1081,444,306,2631,6841,-6140,1745202661370775512
1082464,-1097,414,257,2944,7344,-6348,1745202661370775512
1082656,-1067,348,182,3186,7540,-7055,1745202661370775512
1082848,-989,270,116,3432,7408,-7520,1745202661370775512
1083040,-776,224,50,3818,7722,-7269,1745202661370775512
1083232,-628,232,-103,3903,7988,-7114,1745202661370775512
1083424,-581,283,-275,3939,8034,-6091,1745202661370775512
1083616,-477,350,-388,3945,7950,-5298,1745202661370775512
1083808,-315,388,-396,3964,7567,-4861,1745202661370775512
1084000,-60,349,-343,3907,6925,-4843,1745202661370775512
1084192,208,288,-290,3872,6279,-5374,1745202661370775512
1084384,370,252,-291,3790,6031,-6511,1745202661370775512
1084576,355,252,-367,3496,6467,-6946,1745202661440073576
1084768,240,297,-469,2998,7126,-6148,1745202661440073576
1084960,193,360,-552,2494,7705,-5287,1745202661440073576
1085152,292,386,-609,2048,8120,-5113,1745202661440073576
1085344,501,417,-636,1800,8444,-5094,1745202661440073576
1085536,720,477,-644,1698,8462,-4705,1745202661440073576
1085728,893,515,-658,1716,8133,-4435,1745202661440073576
1085920,999,537,-697,1827,7631,-4846,1745202661440073576
1086112,1044,570,-739,1963,7084,-5123,1745202661440073576
1086304,1052,604,-763,2117,6652,-4861,1745202661440073576
1086496,1039,645,-771,2366,6340,-4855,1745202661440073576
1086688,991,694,-782,2550,6294,-5254,1745202661440073576
1086880,902,731,-782,2626,6341,-5334,1745202661485765086
1087072,781,740,-768,2604,6307,-5075,1745202661485765086
1087264,651,722,-751,2509,6114,-5137,1745202661485765086
1087456,530,696,-749,2300,5926,-5415,1745202661485765086
1087648,427,671,-747,1993,5818,-5398,1745202661485765086
1087840,343,655,-741,1616,5806,-5170,1745202661485765086
1088032,277,660,-730,1267,5895,-5055,1745202661485765086
1088224,227,678,-720,1007,6052,-5001,1745202661485765086
1088416,202,689,-719,846,6224,-4903,1745202661485765086
1088608,198,714,-721,774,6348,-4956,1745202661485765086
1088800,201,730,-731,736,6528,-5232,1745202661485765086
1088992,207,732,-752,754,6708,-5402,1745202661485765086
1089184,216,725,-771,746,6841,-5276,1745202661548483888
1089376,229,713,-782,762,6828,-5119,1745202661548483888
1089568,252,697,-788,748,6709,-5072,1745202661548483888
1089760,282,673,-783,738,6482,-5077,1745202661548483888
1089952,306,646,-768,683,6193,-5036,1745202661548483888
1090144,308,615,-750,602,5912,-4943,1745202661548483888
1090336,287,590,-730,523,5629,-4931,1745202661548483888
1090528,245,573,-718,449,5370,-5070,1745202661548483888
1090720,189,560,-706,406,5173,-5231,1745202661548483888
1090912,128,552,-687,378,5097,-5498,1745202661548483888
1091104,53,557,-656,304,5131,-5696,1745202661548483888
1091296,-6,552,-597,160,5051,-5386,1745202661548483888
1091488,-6,557,-501,-13,4714,-4664,1745202661609416040
1091680,57,593,-377,-110,4085,-4101,1745202661609416040
1091872,160,650,-249,-130,3328,-3798,1745202661609416040
1092064,253,726,-137,-102,2609,-3521,1745202661609416040
1092256,280,796,-51,-50,1941,-3341,1745202661609416040
1092448,244,872,9,-106,1553,-3251,1745202661609416040
1092640,146,934,45,-157,1362,-3254,1745202661609416040
1092832,10,993,67,-232,1538,-3184,1745202661609416040
1093024,-142,1051,88,-276,1894,-3076,1745202661609416040
1093216,-290,1113,111,-302,2383,-3081,1745202661609416040
1093408,-402,1169,140,-278,2877,-3133,1745202661609416040
1093600,-452,1212,173,-199,3335,-3294,1745202661609416040
1093792,-438,1237,210,-101,3777,-3446,1745202661661206348
1093984,-379,1245,248,34,4150,-3599,1745202661661206348
1094176,-290,1247,288,182,4368,-3720,1745202661661206348
1094368,-189,1246,332,323,4460,-3809,1745202661661206348
1094560,-96,1244,379,442,4368,-3965,1745202661661206348
1094752,-25,1241,430,529,4165,-4141,1745202661661206348
1094944,16,1234,484,588,3912,-4262,1745202661661206348
1095136,30,1220,540,609,3628,-4401,1745202661661206348
1095328,20,1208,597,591,3376,-4580,1745202661661206348
1095520,-14,1200,648,548,3163,-4770,1745202661661206348
1095712,-71,1193,696,459,3033,-4895,1745202661661206348
1095904,-147,1186,741,374,2955,-4926,1745202661661206348
1096096,-233,1177,790,296,2947,-4898,1745202661721526839
1096288,-312,1172,841,209,3017,-4864,1745202661721526839
1096480,-384,1178,895,129,3171,-4830,1745202661721526839
1096672,-447,1194,947,68,3403,-4732,1745202661721526839
1096864,-498,1210,996,44,3648,-4543,1745202661721526839
1097056,-526,1220,1045,64,3816,-4449,1745202661721526839
1097248,-526,1223,1095,121,3961,-4548,1745202661721526839
1097440,-504,1218,1146,198,4107,-4778,1745202661721526839
1097632,-472,1210,1197,309,4234,-5067,1745202661721526839
1097824,-436,1204,1240,456,4306,-5344,1745202661721526839
1098016,-398,1199,1274,654,4308,-5536,1745202661721526839
1098208,-363,1189,1296,868,4246,-5659,1745202661721526839
1098400,-339,1169,1313,1090,4136,-5749,1745202661779623183
1098592,-337,1141,1327,1297,4023,-5827,1745202661779623183
1098784,-357,1113,1341,1442,3970,-5904,1745202661779623183
1098976,-395,1091,1349,1576,4083,-5963,1745202661779623183
1099168,-448,1075,1347,1699,4284,-6003,1745202661779623183
1099360,-501,1069,1343,1806,4603,-6071,1745202661779623183
1099552,-550,1072,1336,1974,4992,-6207,1745202661779623183
1099744,-594,1079,1329,2160,5427,-6367,1745202661779623183
1099936,-632,1084,1322,2356,5793,-6534,1745202661779623183
1100128,-666,1083,1319,2579,6075,-6653,1745202661779623183
1100320,-688,1071,1320,2814,6236,-6718,1745202661779623183
1100512,-690,1042,1328,3023,6327,-6891,1745202661779623183
1100704,-672,998,1337,3251,6406,-7169,1745202661838300772
1100896,-645,938,1340,3433,6506,-7407,1745202661838300772
1101088,-616,871,1328,3574,6642,-7547,1745202661838300772
1101280,-580,807,1303,3666,6869,-7441,1745202661838300772
1101472,-540,753,1268,3695,7120,-7212,1745202661838300772
1101664,-504,704,1230,3696,7271,-6985,1745202661838300772
1101856,-457,649,1198,3721,7239,-6900,1745202661838300772
1102048,-388,585,1172,3771,7046,-6872,1745202661838300772
1102240,-309,514,1148,3790,6793,-6824,1745202661838300772
1102432,-242,446,1121,3799,6489,-6702,1745202661838300772
1102624,-200,394,1091,3818,6263,-6620,1745202661838300772
1102816,-188,365,1055,3844,6154,-6543,1745202661838300772
1103008,-208,358,1015,3904,6213,-6438,1745202661896992684
1103200,-259,360,973,3980,6358,-6352,1745202661896992684
1103392,-333,358,932,4088,6542,-6300,1745202661896992684
1103584,-417,345,894,4184,6724,-6288,1745202661896992684
1103776,-498,323,866,4275,6851,-6304,1745202661896992684
1103968,-575,295,846,4347,6919,-6288,1745202661896992684
1104160,-652,268,835,4423,6930,-6238,1745202661896992684
1104352,-737,248,828,4487,6950,-6166,1745202661896992684
1104544,-837,237,821,4550,6918,-6078,1745202661896992684
1104736,-946,229,812,4579,6885,-5923,1745202661896992684
1104928,-1050,220,805,4584,6833,-5636,1745202661896992684
1105120,-1138,207,800,4583,6703,-5312,1745202661896992684
1105312,-1209,194,796,4538,6582,-5055,1745202661959292219
1105504,-1260,188,798,4490,6483,-4916,1745202661959292219
1105696,-1292,189,800,4457,6476,-4771,1745202661959292219
1105888,-1306,200,793,4432,6597,-4570,1745202661959292219
1106080,-1310,218,774,4425,6799,-4375,1745202661959292219
1106272,-1308,242,745,4420,7047,-4237,1745202661959292219
1106464,-1290,262,709,4475,7273,-4136,1745202661959292219
1106656,-1258,275,670,4532,7448,-4074,1745202661959292219
1106848,-1218,283,633,4545,7546,-4022,1745202661959292219
1107040,-1172,288,605,4602,7585,-4043,1745202661959292219
1107232,-1127,296,580,4651,7596,-3999,1745202661959292219
1107424,-1079,305,557,4700,7556,-3924,1745202661959292219
1107616,-1028,314,537,4749,7498,-3835,1745202662017722518
1107808,-971,321,509,4792,7397,-3742,1745202662017722518
1108000,-908,332,478,4772,7390,-3576,1745202662017722518
1108192,-840,340,466,4788,7311,-3391,1745202662017722518
1108384,-774,343,470,4833,7195,-3250,1745202662017722518
1108576,-719,341,481,4878,7028,-3080,1745202662017722518
1108768,-675,338,483,4933,6898,-2895,1745202662017722518
1108960,-641,339,471,4958,6787,-2658,1745202662017722518
1109152,-614,342,451,4993,6672,-2433,1745202662017722518
1109344,-597,345,430,5037,6558,-2296,1745202662017722518
1109536,-590,345,412,5111,6422,-2253,1745202662017722518
1109728,-593,345,400,5164,6322,-2288,1745202662017722518
1109920,-607,351,393,5216,6248,-2334,1745202662070124696
1110112,-620,364,391,5263,6275,-2407,1745202662070124696
1110304,-631,384,395,5339,6438,-2439,1745202662070124696
1110496,-628,408,394,5414,6683,-2447,1745202662070124696
1110688,-593,424,384,5532,6932,-2430,1745202662070124696
1110880,-519,427,369,5616,7136,-2454,1745202662070124696
1111072,-418,418,357,5674,7224,-2528,1745202662070124696
1111264,-307,399,348,5723,7236,-2608,1745202662070124696
1111456,-202,377,340,5762,7137,-2777,1745202662070124696
1111648,-105,355,329,5810,6988,-2882,1745202662070124696
1111840,-16,335,311,5845,6809,-2894,1745202662070124696
1112032,65,322,288,5892,6674,-2870,1745202662070124696
1112224,130,308,266,5940,6591,-2846,1745202662133355681
1112416,173,295,245,5968,6489,-2802,1745202662133355681
1112608,200,280,231,6014,6368,-2741,1745202662133355681
1112800,221,265,222,6033,6199,-2687,1745202662133355681
1112992,235,256,211,6035,6009,-2652,1745202662133355681
1113184,241,252,193,6011,5821,-2577,1745202662133355681
1113376,238,251,178,5986,5603,-2543,1745202662133355681
1113568,230,255,172,5977,5409,-2539,1745202662133355681
1113760,222,260,173,5906,5289,-2531,1745202662133355681
1113952,213,265,161,5856,5264,-2579,1745202662133355681
1114144,194,285,136,5882,5307,-2664,1745202662133355681
1114336,172,305,121,5951,5354,-2738,1745202662133355681
1114528,154,318,121,6036,5400,-2752,1745202662186952691
1114720,152,326,128,6105,5490,-2764,1745202662186952691
1114912,165,319,133,6166,5650,-2750,1745202662186952691
1115104,184,312,129,6209,5814,-2764,1745202662186952691
1115296,205,306,119,6235,5915,-2808,1745202662186952691
1115488,231,299,111,6259,5972,-2870,1745202662186952691
1115680,264,290,110,6291,5968,-2908,1745202662186952691
1115872,290,279,113,6316,5931,-2947,1745202662186952691
1116064,299,267,118,6341,5865,-2966,1745202662186952691
1116256,297,257,118,6359,5793,-2939,1745202662186952691
1116448,286,252,112,6399,5725,-2918,1745202662186952691
1116640,266,247,100,6409,5633,-2936,1745202662186952691
1116832,237,235,91,6435,5546,-2980,1745202662305648222
1117024,201,216,87,6447,5456,-3037,1745202662305648222
1117216,158,198,89,6439,5388,-3116,1745202662305648222
1117408,113,184,91,6408,5377,-3137,1745202662305648222
1117600,68,175,88,6400,5466,-3133,1745202662305648222
1117792,23,159,70,6470,5679,-3668,1745202662305648222
1117984,-66,118,31,6607,5970,-4782,1745202662305648222
1118176,-205,64,-16,6682,6058,-5221,1745202662305648222
1118368,-313,33,-42,6622,5962,-4398,1745202662305648222
1118560,-352,51,-41,6526,5805,-3362,1745202662305648222
1118752,-328,107,-10,6529,5670,-2701,1745202662305648222
1118944,-277,156,27,6584,5648,-2388,1745202662305648222
1119136,-241,162,41,6632,5737,-2342,1745202662314238664
1119328,-238,123,20,6660,5960,-2403,1745202662314238664
1119520,-255,71,-34,6599,6316,-2492,1745202662314238664
1119712,-272,30,-104,6468,6749,-2638,1745202662314238664
1119904,-283,8,-169,6367,7171,-2754,1745202662314238664
1120096,-281,3,-221,6286,7549,-2848,1745202662314238664
1120288,-262,2,-261,6256,7827,-2919,1745202662314238664
1120480,-227,-1,-290,6279,8008,-3013,1745202662314238664
1120672,-190,-10,-315,6326,8067,-3199,1745202662314238664
1120864,-154,-25,-339,6409,8036,-3351,1745202662314238664
1121056,-126,-43,-365,6477,7907,-3481,1745202662314238664
1121248,-104,-67,-392,6527,7792,-3572,1745202662314238664
1121440,-85,-101,-420,6544,7663,-3598,1745202662382847620
1121632,-58,-140,-453,6517,7552,-3628,1745202662382847620
1121824,-22,-183,-487,6435,7553,-3703,1745202662382847620
1122016,18,-221,-520,6329,7622,-3723,1745202662382847620
1122208,60,-257,-556,6197,7756,-3701,1745202662382847620
1122400,97,-290,-602,6093,7899,-3678,1745202662382847620
1122592,135,-317,-654,5996,7984,-3633,1745202662382847620
1122784,185,-337,-704,5937,8113,-3557,1745202662382847620
1122976,242,-351,-749,5936,8233,-3545,1745202662382847620
1123168,303,-364,-792,5951,8347,-3572,1745202662382847620
1123360,362,-374,-832,6005,8420,-3601,1745202662382847620
1123552,420,-387,-869,6045,8441,-3695,1745202662382847620
1123744,471,-408,-905,6117,8416,-3846,1745202662427070289
1123936,512,-438,-942,6140,8378,-3972,1745202662427070289
1124128,537,-473,-981,6135,8346,-4053,1745202662427070289
1124320,549,-503,-1016,6077,8348,-4103,1745202662427070289
1124512,551,-529,-1052,5983,8391,-4145,1745202662427070289
1124704,556,-550,-1087,5848,8491,-4174,1745202662427070289
1124896,568,-567,-1124,5676,8633,-4201,1745202662427070289
1125088,594,-582,-1163,5519,8780,-4221,1745202662427070289
1125280,635,-595,-1195,5374,8862,-4259,1745202662427070289
1125472,688,-612,-1219,5256,8860,-4313,1745202662427070289
1125664,757,-631,-1241,5198,8774,-4400,1745202662427070289
1125856,834,-654,-1261,5181,8687,-4508,1745202662427070289
1126048,909,-677,-1287,5154,8622,-4586,1745202662478726484
1126240,971,-697,-1317,5143,8599,-4640,1745202662478726484
1126432,1018,-718,-1354,5174,8602,-4681,1745202662478726484
1126624,1049,-741,-1396,5175,8592,-4601,1745202662478726484
1126816,1062,-775,-1438,5177,8538,-4555,1745202662478726484
1127008,1059,-809,-1476,5128,8418,-4593,1745202662478726484
1127200,1056,-842,-1510,5047,8303,-4588,1745202662478726484
1127392,1056,-870,-1543,4917,8239,-4581,1745202662478726484
1127584,1055,-890,-1573,4816,8264,-4605,1745202662478726484
1127776,1043,-905,-1602,4690,8306,-4602,1745202662478726484
1127968,1013,-920,-1631,4573,8327,-4671,1745202662478726484
1128160,972,-935,-1658,4440,8287,-4756,1745202662478726484
1128352,931,-950,-1686,4326,8197,-4841,1745202662539730094
1128544,902,-969,-1708,4191,8102,-4943,1745202662539730094
1128736,886,-991,-1725,4049,8088,-4946,1745202662539730094
1128928,874,-1013,-1738,3890,8079,-4929,1745202662539730094
1129120,865,-1036,-1750,3761,8052,-4925,1745202662539730094
1129312,856,-1057,-1761,3636,8044,-4951,1745202662539730094
1129504,848,-1073,-1776,3457,8014,-4999,1745202662539730094
1129696,843,-1084,-1794,3354,7981,-5009,1745202662539730094
1129888,842,-1093,-1812,3269,7891,-5082,1745202662539730094
1130080,851,-1102,-1827,3204,7770,-5165,1745202662539730094
1130272,876,-1119,-1838,3160,7688,-5215,1745202662539730094
1130464,906,-1137,-1849,3114,7677,-5140,1745202662539730094
1130656,928,-1159,-1863,3092,7706,-5052,1745202662603650603
1130848,934,-1180,-1880,3009,7690,-4966,1745202662603650603
1131040,933,-1204,-1897,2928,7557,-4918,1745202662603650603
1131232,942,-1232,-1909,2781,7361,-4953,1745202662603650603
1131424,978,-1255,-1913,2623,7242,-4989,1745202662603650603
1131616,1030,-1276,-1917,2425,7294,-5039,1745202662603650603
1131808,1070,-1294,-1928,2247,7404,-5129,1745202662603650603
1132000,1079,-1300,-1949,2115,7517,-5225,1745202662603650603
1132192,1062,-1298,-1976,1992,7592,-5294,1745202662603650603
1132384,1046,-1283,-2007,1887,7672,-5349,1745202662603650603
1132576,1039,-1262,-2036,1834,7750,-5354,1745202662603650603
1132768,1038,-1244,-2059,1813,7744,-5316,1745202662603650603
1132960,1055,-1233,-2069,1810,7628,-5259,1745202662658932963
1133152,1102,-1238,-2060,1769,7380,-5178,1745202662658932963
1133344,1186,-1260,-2036,1688,7049,-5102,1745202662658932963
1133536,1296,-1293,-2008,1549,6752,-5062,1745202662658932963
1133728,1413,-1326,-1981,1368,6521,-5028,1745202662658932963
1133920,1525,-1348,-1964,1120,6397,-5035,1745202662658932963
1134112,1628,-1354,-1962,846,6332,-5032,1745202662658932963
1134304,1718,-1350,-1968,558,6323,-5011,1745202662658932963
1134496,1788,-1340,-1977,314,6266,-5049,1745202662658932963
1134688,1834,-1330,-1981,130,6138,-5134,1745202662658932963
1134880,1852,-1320,-1981,-40,5999,-5189,1745202662658932963
1135072,1824,-1306,-1985,-164,5844,-5238,1745202662658932963
1135264,1759,-1289,-1987,-257,5696,-5383,1745202662713616370
1135456,1681,-1271,-1982,-350,5520,-5402,1745202662713616370
1135648,1612,-1251,-1970,-413,5390,-5389,1745202662713616370
1135840,1561,-1236,-1950,-519,5327,-5385,1745202662713616370
1136032,1522,-1217,-1924,-613,5297,-5416,1745202662713616370
1136224,1487,-1199,-1899,-729,5259,-5381,1745202662713616370
1136416,1463,-1182,-1878,-872,5158,-5315,1745202662713616370
1136608,1457,-1164,-1855,-991,4987,-5187,1745202662713616370
1136800,1463,-1145,-1827,-1112,4793,-5097,1745202662713616370
1136992,1468,-1129,-1802,-1199,4569,-5153,1745202662713616370
1137184,1467,-1110,-1776,-1281,4365,-5201,1745202662713616370
1137376,1461,-1086,-1750,-1335,4172,-5178,1745202662713616370
1137568,1454,-1063,-1727,-1328,4023,-5146,1745202662782149598
1137760,1450,-1044,-1710,-1294,3958,-5113,1745202662782149598
1137952,1452,-1027,-1696,-1195,3958,-5119,1745202662782149598
1138144,1460,-1010,-1683,-1104,4075,-5169,1745202662782149598
1138336,1458,-993,-1678,-998,4239,-5154,1745202662782149598
1138528,1444,-978,-1677,-941,4446,-5224,1745202662782149598
1138720,1431,-985,-1682,-930,4599,-5236,1745202662782149598
1138912,1425,-967,-1684,-932,4637,-5293,1745202662782149598
1139104,1433,-960,-1675,-951,4589,-5341,1745202662782149598
1139296,1442,-958,-1662,-1000,4411,-5364,1745202662782149598
1139488,1439,-959,-1645,-1091,4070,-5460,1745202662782149598
1139680,1426,-962,-1616,-1179,3630,-5557,1745202662782149598
1139872,1404,-968,-1576,-1288,3182,-5535,1745202662845842454
1140064,1379,-969,-1532,-1440,2857,-5531,1745202662845842454
1140256,1361,-963,-1484,-1623,2715,-5527,1745202662845842454
1140448,1344,-951,-1446,-1800,2729,-5418,1745202662845842454
1140640,1322,-934,-1423,-1942,2840,-5368,1745202662845842454
1140832,1296,-912,-1413,-2008,2886,-5390,1745202662845842454
1141024,1278,-894,-1411,-2090,2954,-5374,1745202662845842454
1141216,1276,-876,-1410,-2151,3004,-5398,1745202662845842454
1141408,1289,-855,-1403,-2174,3009,-5405,1745202662845842454
1141600,1305,-834,-1390,-2170,2958,-5432,1745202662845842454
1141792,1321,-816,-1371,-2140,2838,-5448,1745202662845842454
1141984,1342,-803,-1345,-2123,2641,-5473,1745202662845842454
1142176,1372,-794,-1313,-2121,2478,-5485,1745202662888355398
1142368,1410,-788,-1280,-2132,2385,-5468,1745202662888355398
1142560,1451,-789,-1250,-2144,2364,-5482,1745202662888355398
1142752,1469,-788,-1230,-2157,2321,-5496,1745202662888355398
1142944,1452,-778,-1220,-2195,2282,-5484,1745202662888355398
1143136,1410,-756,-1213,-2227,2204,-5534,1745202662888355398
1143328,1370,-770,-1206,-2334,2180,-5545,1745202662888355398
1143520,1337,-765,-1202,-2459,2121,-5468,1745202662888355398
1143712,1307,-744,-1187,-2562,2002,-5433,1745202662888355398
1143904,1283,-730,-1163,-2681,1836,-5425,1745202662888355398
1144096,1255,-713,-1137,-2799,1621,-5510,1745202662888355398
1144288,1223,-696,-1113,-2912,1406,-5630,1745202662888355398
1144480,1193,-675,-1087,-3021,1255,-5725,1745202662950848630
1144672,1164,-649,-1058,-3076,1211,-5790,1745202662950848630
1144864,1133,-630,-1034,-3150,1192,-5810,1745202662950848630
1145056,1093,-612,-1014,-3182,1216,-5825,1745202662950848630
1145248,1060,-599,-996,-3166,1196,-5897,1745202662950848630
1145440,1045,-591,-977,-3207,1204,-5916,1745202662950848630
1145632,1050,-581,-952,-3224,1212,-5923,1745202662950848630
1145824,1066,-575,-934,-3224,1209,-5952,1745202662950848630
1146016,1081,-563,-924,-3243,1157,-6065,1745202662950848630
1146208,1090,-546,-911,-3283,1040,-6060,1745202662950848630
1146400,1092,-529,-895,-3294,869,-6055,1745202662950848630
1146592,1084,-512,-876,-3326,709,-6081,1745202662950848630
1146784,1070,-501,-856,-3324,602,-6100,1745202663007262021
1146976,1045,-491,-836,-3331,561,-6065,1745202663007262021
1147168,1017,-480,-817,-3368,615,-5988,1745202663007262021
1147360,993,-470,-807,-3407,726,-5940,1745202663007262021
1147552,981,-461,-802,-3482,807,-5881,1745202663007262021
1147744,979,-452,-794,-3580,861,-5893,1745202663007262021
1147936,980,-442,-781,-3656,784,-5924,1745202663007262021
1148128,972,-431,-762,-3744,581,-5936,1745202663007262021
1148320,951,-422,-736,-3758,304,-5938,1745202663007262021
1148512,927,-412,-705,-3814,32,-5969,1745202663007262021
1148704,902,-400,-668,-3837,-172,-5949,1745202663007262021
1148896,869,-389,-638,-3874,-256,-5905,1745202663007262021
1149088,834,-380,-624,-3946,-264,-5890,1745202663063296092
1149280,806,-371,-616,-3966,-187,-5935,1745202663063296092
1149472,794,-363,-610,-3985,-84,-5977,1745202663063296092
1149664,795,-353,-599,-4009,10,-5952,1745202663063296092
1149856,811,-345,-583,-4037,56,-5994,1745202663063296092
1150048,831,-339,-567,-4044,21,-6036,1745202663063296092
1150240,849,-329,-550,-4068,-14,-6064,1745202663063296092
1150432,857,-316,-533,-4042,-51,-6048,1745202663063296092
1150624,859,-307,-508,-3979,-125,-6077,1745202663063296092
1150816,855,-312,-483,-3927,-197,-6109,1745202663063296092
1151008,845,-325,-473,-3947,-264,-6118,1745202663063296092
1151200,828,-329,-471,-4010,-326,-6022,1745202663063296092
1151392,804,-321,-466,-4070,-309,-5916,1745202663123042994
1151584,772,-309,-453,-4117,-202,-5840,1745202663123042994
1151776,734,-302,-442,-4174,-76,-5776,1745202663123042994
1151968,700,-296,-436,-4214,4,-5714,1745202663123042994
1152160,676,-287,-426,-4276,49,-5703,1745202663123042994
1152352,656,-275,-413,-4338,52,-5773,1745202663123042994
1152544,627,-264,-404,-4383,-13,-5854,1745202663123042994
1152736,592,-255,-397,-4394,-169,-5942,1745202663123042994
1152928,559,-244,-387,-4397,-373,-5986,1745202663123042994
1153120,532,-238,-373,-4426,-603,-5968,1745202663123042994
1153312,513,-235,-357,-4447,-790,-5974,1745202663123042994
1153504,502,-235,-340,-4472,-865,-6007,1745202663123042994
1153696,503,-234,-328,-4486,-800,-6059,1745202663188166566
1153888,516,-232,-320,-4513,-665,-6084,1745202663188166566
1154080,546,-233,-314,-4506,-502,-6076,1745202663188166566
1154272,593,-235,-316,-4518,-393,-6132,1745202663188166566
1154464,652,-237,-326,-4536,-377,-6126,1745202663188166566
1154656,711,-231,-336,-4599,-472,-6149,1745202663188166566
1154848,770,-220,-335,-4533,-578,-6244,1745202663188166566
1155040,833,-240,-318,-4541,-706,-6210,1745202663188166566
1155232,884,-248,-294,-4569,-872,-6065,1745202663188166566
1155424,911,-239,-271,-4604,-1112,-6067,1745202663188166566
1155616,905,-231,-250,-4652,-1351,-5997,1745202663188166566
1155808,869,-215,-221,-4655,-1646,-5865,1745202663188166566
1156000,819,-203,-193,-4652,-1873,-5785,1745202663246574366
1156192,768,-186,-167,-4650,-2025,-5677,1745202663246574366
1156384,720,-172,-138,-4626,-2119,-5609,1745202663246574366
1156576,674,-157,-112,-4598,-2170,-5575,1745202663246574366
1156768,630,-144,-87,-4578,-2166,-5550,1745202663246574366
1156960,587,-133,-65,-4561,-2052,-5494,1745202663246574366
1157152,550,-123,-49,-4572,-1905,-5432,1745202663246574366
1157344,509,-116,-41,-4565,-1788,-5316,1745202663246574366
1157536,466,-107,-35,-4602,-1761,-5235,1745202663246574366
1157728,430,-96,-30,-4646,-1742,-5213,1745202663246574366
1157920,409,-83,-23,-4672,-1666,-5238,1745202663246574366
1158112,398,-67,-13,-4678,-1495,-5344,1745202663246574366
1158304,389,-51,-6,-4640,-1272,-5537,1745202663298386913
1158496,380,-43,-13,-4597,-1024,-5744,1745202663298386913
1158688,376,-38,-26,-4558,-837,-5890,1745202663298386913
1158880,387,-37,-37,-4545,-734,-6007,1745202663298386913
1159072,410,-37,-44,-4573,-680,-6115,1745202663298386913
1159264,442,-35,-43,-4639,-644,-6249,1745202663298386913
1159456,472,-35,-43,-4702,-628,-6361,1745202663298386913
1159648,498,-37,-54,-4787,-660,-6369,1745202663298386913
1159840,524,-37,-65,-4832,-763,-6325,1745202663298386913
1160032,555,-34,-70,-4881,-862,-6294,1745202663298386913
1160224,582,-29,-69,-4895,-946,-6248,1745202663298386913
1160416,592,-24,-65,-4881,-1044,-6171,1745202663298386913
1160608,583,-18,-59,-4861,-1184,-6070,1745202663375153504
1160800,559,-8,-54,-4791,-1335,-6045,1745202663375153504
1160992,522,-15,-44,-4756,-1472,-6000,1745202663375153504
1161184,475,-19,-37,-4766,-1572,-5847,1745202663375153504
1161376,429,-13,-28,-4757,-1659,-5847,1745202663375153504
1161568,391,-22,-19,-4782,-1755,-5734,1745202663375153504
1161760,362,-25,-12,-4828,-1837,-5681,1745202663375153504
1161952,339,-25,-4,-4844,-1857,-5642,1745202663375153504
1162144,319,-21,2,-4847,-1883,-5638,1745202663375153504
1162336,296,-16,7,-4824,-1845,-5653,1745202663375153504
1162528,265,-15,9,-4800,-1817,-5638,1745202663375153504
1162720,237,-16,12,-4784,-1778,-5609,1745202663375153504
1162912,217,-17,15,-4788,-1734,-5614,1745202663416914581
1163104,205,-15,17,-4808,-1704,-5613,1745202663416914581
1163296,200,-10,17,-4848,-1634,-5633,1745202663416914581
1163488,198,-3,18,-4861,-1569,-5668,1745202663416914581
1163680,201,7,22,-4885,-1534,-5719,1745202663416914581
1163872,209,16,30,-4875,-1498,-5828,1745202663416914581
1164064,223,22,40,-4870,-1486,-5918,1745202663416914581
1164256,240,22,43,-4875,-1497,-5985,1745202663416914581
1164448,261,22,36,-4881,-1512,-6003,1745202663416914581
1164640,286,24,33,-4903,-1553,-5962,1745202663416914581
1164832,310,30,34,-4898,-1608,-5908,1745202663416914581
1165024,325,34,36,-4885,-1687,-5833,1745202663416914581
1165216,327,35,37,-4890,-1766,-5714,1745202663474519263
1165408,314,35,36,-4894,-1839,-5675,1745202663474519263
1165600,290,38,34,-4880,-1906,-5692,1745202663474519263
1165792,263,42,33,-4875,-1932,-5706,1745202663474519263
1165984,240,44,38,-4817,-1954,-5672,1745202663474519263
1166176,220,40,48,-4779,-2038,-5658,1745202663474519263
1166368,193,30,59,-4747,-2101,-5541,1745202663474519263
1166560,166,23,67,-4759,-2106,-5460,1745202663474519263
1166752,142,24,69,-4740,-2058,-5452,1745202663474519263
1166944,114,28,61,-4727,-1926,-5522,1745202663474519263
1167136,78,31,48,-4708,-1768,-5616,1745202663474519263
1167328,36,32,37,-4691,-1606,-5697,1745202663474519263
1167520,-2,33,34,-4696,-1490,-5761,1745202663532783418
1167712,-34,35,36,-4737,-1441,-5814,1745202663532783418
1167904,-56,35,41,-4799,-1437,-5867,1745202663532783418
1168096,-68,38,45,-4857,-1447,-5968,1745202663532783418
1168288,-74,41,50,-4927,-1495,-6048,1745202663532783418
1168480,-76,45,55,-4957,-1547,-6083,1745202663532783418
1168672,-80,49,57,-4977,-1633,-6116,1745202663532783418
1168864,-85,50,61,-4962,-1718,-6048,1745202663532783418
1169056,-92,53,64,-4963,-1784,-6009,1745202663532783418
1169248,-97,57,66,-4970,-1755,-6019,1745202663532783418
1169440,-99,62,65,-4970,-1669,-5979,1745202663532783418
1169632,-100,66,63,-4950,-1574,-5920,1745202663532783418
1169824,-100,72,59,-4925,-1525,-5884,1745202663602505333
1170016,-100,75,57,-4904,-1579,-5811,1745202663602505333
1170208,-98,75,56,-4906,-1738,-5773,1745202663602505333
1170400,-93,75,59,-4911,-1899,-5760,1745202663602505333
1170592,-87,75,61,-4902,-2022,-5764,1745202663602505333
1170784,-84,77,63,-4877,-2016,-5784,1745202663602505333
1170976,-85,79,64,-4838,-1946,-5829,1745202663602505333
1171168,-92,76,67,-4795,-1878,-5794,1745202663602505333
1171360,-98,73,68,-4780,-1802,-5778,1745202663602505333
1171552,-99,69,68,-4795,-1745,-5792,1745202663602505333
1171744,-98,65,68,-4810,-1711,-5794,1745202663602505333
1171936,-99,63,67,-4829,-1656,-5776,1745202663602505333
1172128,-103,63,68,-4847,-1627,-5813,1745202663657668110
1172320,-109,63,72,-4880,-1639,-5822,1745202663657668110
1172512,-121,65,77,-4892,-1665,-5834,1745202663657668110
1172704,-141,69,85,-4879,-1677,-5830,1745202663657668110
1172896,-165,74,94,-4835,-1651,-5809,1745202663657668110
1173088,-193,77,104,-4794,-1565,-5761,1745202663657668110
1173280,-217,81,110,-4763,-1478,-5733,1745202663657668110
1173472,-240,86,114,-4722,-1398,-5704,1745202663657668110
1173664,-262,89,114,-4704,-1366,-5718,1745202663657668110
1173856,-282,93,114,-4700,-1405,-5700,1745202663657668110
1174048,-298,98,114,-4679,-1452,-5661,1745202663657668110
1174240,-311,104,118,-4680,-1506,-5649,1745202663657668110
1174432,-324,110,123,-4675,-1489,-5639,1745202663716720227
1174624,-341,118,126,-4659,-1435,-5681,1745202663716720227
1174816,-355,126,125,-4639,-1386,-5710,1745202663716720227
1175008,-361,132,122,-4624,-1352,-5723,1745202663716720227
1175200,-358,135,120,-4595,-1324,-5761,1745202663716720227
1175392,-348,138,118,-4586,-1265,-5753,1745202663716720227
1175584,-336,142,117,-4587,-1216,-5746,1745202663716720227
1175776,-324,146,116,-4591,-1156,-5746,1745202663716720227
1175968,-310,150,113,-4556,-1130,-5785,1745202663716720227
1176160,-298,152,111,-4574,-1153,-5767,1745202663716720227
1176352,-287,155,110,-4568,-1216,-5784,1745202663716720227
1176544,-282,156,109,-4585,-1269,-5816,1745202663716720227
1176736,-284,159,111,-4591,-1281,-5812,1745202663782554574
1176928,-296,163,115,-4579,-1249,-5826,1745202663782554574
1177120,-317,167,119,-4571,-1214,-5793,1745202663782554574
1177312,-340,169,123,-4578,-1165,-5767,1745202663782554574
1177504,-356,171,129,-4576,-1111,-5763,1745202663782554574
1177696,-364,174,135,-4577,-1027,-5778,1745202663782554574
1177888,-367,176,139,-4557,-952,-5794,1745202663782554574
1178080,-369,179,144,-4556,-911,-5760,1745202663782554574
1178272,-365,181,152,-4514,-887,-5743,1745202663782554574
1178464,-360,183,159,-4489,-885,-5731,1745202663782554574
1178656,-356,186,165,-4479,-902,-5739,1745202663782554574
1178848,-357,189,168,-4458,-883,-5778,1745202663782554574
1179040,-363,195,167,-4408,-838,-5817,1745202663824855177
1179232,-372,201,166,-4371,-781,-5842,1745202663824855177
1179424,-379,206,169,-4334,-696,-5858,1745202663824855177
1179616,-376,208,173,-4303,-635,-5854,1745202663824855177
1179808,-366,208,175,-4314,-606,-5887,1745202663824855177
1180000,-353,209,174,-4368,-631,-5947,1745202663824855177
1180192,-344,212,171,-4402,-713,-6011,1745202663824855177
1180384,-338,219,167,-4420,-739,-6040,1745202663824855177
1180576,-338,229,169,-4383,-752,-6065,1745202663824855177
1180768,-345,238,173,-4347,-763,-6091,1745202663824855177
1180960,-354,240,180,-4278,-799,-6072,1745202663824855177
1181152,-365,240,185,-4250,-831,-6046,1745202663824855177
1181344,-380,241,187,-4207,-886,-6058,1745202663884856191
1181536,-399,243,188,-4196,-893,-6021,1745202663884856191
1181728,-423,246,190,-4177,-909,-5953,1745202663884856191
1181920,-452,249,197,-4199,-911,-5921,1745202663884856191
1182112,-486,252,206,-4238,-960,-5880,1745202663884856191
1182304,-522,255,219,-4279,-1005,-5838,1745202663884856191
1182496,-560,259,230,-4329,-1040,-5826,1745202663884856191
1182688,-597,268,239,-4387,-1029,-5881,1745202663884856191
1182880,-628,278,247,-4401,-955,-5947,1745202663884856191
1183072,-647,289,254,-4402,-900,-6005,1745202663884856191
1183264,-657,298,264,-4385,-887,-6099,1745202663884856191
1183456,-662,307,273,-4384,-874,-6207,1745202663884856191
1183648,-668,314,280,-4351,-843,-6278,1745202663939979229
1183840,-672,320,283,-4339,-728,-6347,1745202663939979229
1184032,-679,327,283,-4294,-563,-6442,1745202663939979229
1184224,-685,331,280,-4265,-432,-6510,1745202663939979229
1184416,-683,330,278,-4258,-322,-6548,1745202663939979229
1184608,-669,326,276,-4289,-253,-6551,1745202663939979229
1184800,-651,323,274,-4347,-225,-6587,1745202663939979229
1184992,-634,323,275,-4386,-229,-6644,1745202663939979229
1185184,-621,324,275,-4402,-233,-6678,1745202663939979229
1185376,-612,323,275,-4393,-242,-6716,1745202663939979229
1185568,-610,320,276,-4379,-273,-6747,1745202663939979229
1185760,-616,316,277,-4402,-304,-6796,1745202663939979229
1185952,-628,312,278,-4410,-265,-6813,1745202664004980615
1186144,-643,308,277,-4452,-169,-6764,1745202664004980615
1186336,-660,305,277,-4502,-113,-6715,1745202664004980615
1186528,-676,301,276,-4562,-116,-6669,1745202664004980615
1186720,-686,301,273,-4601,-121,-6612,1745202664004980615
1186912,-686,302,271,-4621,-94,-6620,1745202664004980615
1187104,-682,307,267,-4614,-31,-6801,1745202664004980615
1187296,-675,313,262,-4556,79,-7061,1745202664004980615
1187488,-676,318,257,-4462,225,-7287,1745202664004980615
1187680,-688,317,253,-4394,270,-7380,1745202664004980615
1187872,-713,311,252,-4363,197,-7481,1745202664004980615
1188064,-742,301,255,-4374,79,-7598,1745202664004980615
1188256,-764,288,256,-4399,28,-7612,1745202664063016751
1188448,-776,277,256,-4480,117,-7568,1745202664063016751
1188640,-781,272,253,-4536,299,-7528,1745202664063016751
1188832,-780,271,249,-4533,531,-7468,1745202664063016751
1189024,-773,271,243,-4504,696,-7395,1745202664063016751
1189216,-763,271,241,-4479,800,-7365,1745202664063016751
1189408,-753,272,234,-4470,855,-7415,1745202664063016751
1189600,-746,269,219,-4494,888,-7459,1745202664063016751
1189792,-740,267,198,-4519,930,-7584,1745202664063016751
1189984,-728,263,182,-4550,888,-7654,1745202664063016751
1190176,-704,258,178,-4594,796,-7763,1745202664063016751
1190368,-668,250,182,-4663,686,-7967,1745202664063016751
1190560,-626,244,186,-4710,626,-8087,1745202664124750042
1190752,-593,239,186,-4711,596,-8093,1745202664124750042
1190944,-570,233,186,-4719,548,-8064,1745202664124750042
1191136,-544,222,187,-4722,497,-7988,1745202664124750042
1191328,-508,210,187,-4708,493,-7855,1745202664124750042
1191520,-463,203,184,-4690,516,-7757,1745202664124750042
1191712,-420,202,176,-4642,560,-7669,1745202664124750042
1191904,-386,204,167,-4595,574,-7605,1745202664124750042
1192096,-364,206,162,-4530,579,-7534,1745202664124750042
1192288,-355,208,162,-4471,514,-7445,1745202664124750042
1192480,-361,209,164,-4414,422,-7412,1745202664124750042
1192672,-380,211,171,-4381,361,-7378,1745202664124750042
1192864,-408,213,185,-4318,341,-7348,1745202664178977098
1193056,-440,216,201,-4315,345,-7308,1745202664178977098
1193248,-475,219,216,-4291,355,-7243,1745202664178977098
1193440,-513,225,231,-4304,329,-7198,1745202664178977098
1193632,-549,231,247,-4321,288,-7170,1745202664178977098
1193824,-580,238,264,-4313,248,-7156,1745202664178977098
1194016,-603,243,283,-4282,219,-7169,1745202664178977098
1194208,-618,250,301,-4247,254,-7180,1745202664178977098
1194400,-627,259,318,-4184,297,-7177,1745202664178977098
1194592,-630,269,333,-4107,361,-7188,1745202664178977098
1194784,-626,280,349,-4056,403,-7156,1745202664178977098
1194976,-615,289,366,-4013,446,-7133,1745202664178977098
1195168,-594,297,386,-3947,487,-7122,1745202664244252492
1195360,-564,308,405,-3878,516,-7092,1745202664244252492
1195552,-528,316,421,-3826,500,-7051,1745202664244252492
1195744,-488,323,437,-3791,434,-7030,1745202664244252492
1195936,-451,330,455,-3757,314,-7037,1745202664244252492
1196128,-416,338,477,-3744,154,-7002,1745202664244252492
1196320,-386,344,502,-3733,-43,-6905,1745202664244252492
1196512,-363,350,533,-3711,-227,-6844,1745202664244252492
1196704,-349,356,568,-3694,-403,-6732,1745202664244252492
1196896,-343,364,601,-3668,-477,-6606,1745202664244252492
1197088,-344,375,633,-3635,-444,-6546,1745202664244252492
1197280,-350,386,662,-3569,-354,-6500,1745202664244252492
1197472,-357,396,691,-3485,-215,-6471,1745202664295258224
1197664,-360,406,719,-3442,-70,-6463,1745202664295258224
1197856,-359,415,749,-3389,29,-6475,1745202664295258224
1198048,-355,427,782,-3383,71,-6533,1745202664295258224
1198240,-353,437,821,-3336,62,-6565,1745202664295258224
1198432,-356,448,864,-3294,-10,-6593,1745202664295258224
1198624,-367,457,911,-3279,-125,-6661,1745202664295258224
1198816,-386,468,960,-3243,-247,-6737,1745202664295258224
1199008,-418,479,1009,-3222,-334,-6827,1745202664295258224
1199200,-457,487,1063,-3174,-381,-6960,1745202664295258224
1199392,-498,493,1119,-3120,-346,-7047,1745202664295258224
1199584,-536,496,1175,-3088,-238,-7101,1745202664295258224
1199776,-569,497,1227,-3048,-17,-7108,1745202664354422943
1199968,-592,496,1273,-3015,255,-7079,1745202664354422943
1200160,-611,493,1313,-3015,527,-7005,1745202664354422943
1200352,-629,492,1348,-2992,696,-6915,1745202664354422943
1200544,-644,492,1380,-2985,787,-6879,1745202664354422943
1200736,-652,490,1410,-2958,777,-6873,1745202664354422943
1200928,-652,486,1444,-2934,714,-6908,1745202664354422943
1201120,-643,483,1481,-2904,679,-6977,1745202664354422943
1201312,-633,479,1518,-2866,664,-7073,1745202664354422943
1201504,-631,476,1555,-2824,677,-7146,1745202664354422943
1201696,-637,476,1592,-2764,723,-7225,1745202664354422943
1201888,-640,475,1630,-2681,866,-7287,1745202664354422943
1202080,-638,472,1665,-2612,1075,-7345,1745202664414309271
1202272,-629,468,1695,-2520,1330,-7433,1745202664414309271
1202464,-624,459,1719,-2404,1574,-7523,1745202664414309271
1202656,-622,445,1739,-2303,1720,-7614,1745202664414309271
1202848,-623,426,1762,-2223,1878,-7694,1745202664414309271
1203040,-623,406,1785,-2173,2052,-7825,1745202664414309271
1203232,-623,386,1808,-2133,2209,-7922,1745202664414309271
1203424,-623,367,1834,-2112,2374,-7915,1745202664414309271
1203616,-619,348,1862,-2121,2507,-7884,1745202664414309271
1203808,-617,324,1895,-2118,2545,-7825,1745202664414309271
1204000,-623,303,1926,-2115,2485,-7681,1745202664414309271
1204192,-642,284,1955,-2116,2318,-7584,1745202664414309271
1204384,-667,267,1982,-2086,2123,-7510,1745202664483084112
1204576,-690,252,2004,-2032,1984,-7430,1745202664483084112
1204768,-707,240,2022,-1948,1986,-7423,1745202664483084112
1204960,-717,229,2037,-1785,2167,-7483,1745202664483084112
1205152,-726,221,2049,-1630,2502,-7534,1745202664483084112
1205344,-731,207,2058,-1447,2888,-7571,1745202664483084112
1205536,-724,185,2067,-1265,3311,-7635,1745202664483084112
1205728,-704,155,2071,-1127,3738,-7760,1745202664483084112
1205920,-675,119,2069,-1025,4097,-7881,1745202664483084112
1206112,-644,80,2068,-982,4377,-7919,1745202664483084112
1206304,-616,43,2070,-999,4529,-7782,1745202664483084112
1206496,-591,6,2075,-1026,4543,-7730,1745202664483084112
1206688,-576,-36,2083,-1013,4348,-7780,1745202664539453805
1206880,-570,-81,2093,-1036,3971,-7764,1745202664539453805
1207072,-573,-118,2103,-1106,3608,-7697,1745202664539453805
1207264,-595,-134,2111,-1164,3485,-7549,1745202664539453805
1207456,-645,-132,2114,-1164,3572,-7417,1745202664539453805
1207648,-720,-128,2113,-1109,3838,-7317,1745202664539453805
1207840,-803,-131,2105,-966,4207,-7280,1745202664539453805
1208032,-879,-145,2091,-813,4576,-7304,1745202664539453805
1208224,-941,-165,2070,-595,4905,-7364,1745202664539453805
1208416,-986,-192,2042,-386,5219,-7436,1745202664539453805
1208608,-1011,-226,2015,-196,5448,-7520,1745202664539453805
1208800,-1023,-260,1999,-69,5658,-7633,1745202664539453805
1208992,-1003,-295,1990,17,5824,-7569,1745202664593717320
1209184,-954,-328,1991,41,6034,-7623,1745202664593717320
1209376,-879,-371,1997,46,6247,-7633,1745202664593717320
1209568,-794,-408,1994,29,6437,-7585,1745202664593717320
1209760,-718,-443,1972,-23,6529,-7475,1745202664593717320
1209952,-653,-479,1945,-66,6472,-7334,1745202664593717320
1210144,-604,-515,1918,-80,6267,-7186,1745202664593717320
1210336,-568,-547,1890,-70,5990,-7042,1745202664593717320
1210528,-539,-572,1864,-80,5757,-6905,1745202664593717320
1210720,-515,-581,1840,-91,5666,-6780,1745202664593717320
1210912,-494,-584,1817,-119,5698,-6631,1745202664593717320
1211104,-474,-584,1796,-133,5840,-6510,1745202664593717320
1211296,-453,-585,1772,-113,6034,-6453,1745202664647033552
1211488,-432,-586,1740,-71,6244,-6476,1745202664647033552
1211680,-411,-588,1702,11,6431,-6522,1745202664647033552
1211872,-384,-590,1661,102,6598,-6561,1745202664647033552
1212064,-344,-593,1628,205,6774,-6572,1745202664647033552
1212256,-293,-596,1604,335,6924,-6529,1745202664647033552
1212448,-239,-600,1579,469,7052,-6540,1745202664647033552
1212640,-196,-607,1550,620,7092,-6558,1745202664647033552
1212832,-165,-620,1517,716,7048,-6500,1745202664647033552
1213024,-143,-628,1484,737,6952,-6421,1745202664647033552
1213216,-112,-631,1455,700,6853,-6289,1745202664647033552
1213408,-72,-629,1431,618,6797,-6156,1745202664647033552
1213600,-36,-623,1406,538,6701,-6085,1745202664724975600
1213792,-6,-615,1378,484,6604,-6026,1745202664724975600
1213984,22,-608,1345,426,6483,-5998,1745202664724975600
1214176,48,-602,1304,359,6354,-5994,1745202664724975600
1214368,65,-587,1263,353,6239,-5968,1745202664724975600
1214560,66,-563,1226,400,6085,-5942,1745202664724975600
1214752,64,-548,1202,417,5949,-5927,1745202664724975600
1214944,65,-536,1187,449,5905,-5905,1745202664724975600
1215136,65,-523,1171,453,5975,-5917,1745202664724975600
1215328,55,-504,1149,453,6084,-5897,1745202664724975600
1215520,36,-485,1124,458,6174,-5904,1745202664724975600
1215712,15,-469,1100,466,6168,-5935,1745202664724975600
1215904,-5,-464,1082,542,6044,-5905,1745202664763661653
1216096,-22,-462,1069,565,5881,-5761,1745202664763661653
1216288,-39,-454,1056,555,5745,-5733,1745202664763661653
1216480,-60,-442,1046,527,5604,-5765,1745202664763661653
1216672,-83,-427,1036,476,5541,-5768,1745202664763661653
1216864,-103,-412,1026,452,5526,-5761,1745202664763661653
1217056,-118,-394,1017,420,5574,-5778,1745202664763661653
1217248,-125,-377,1005,406,5650,-5817,1745202664763661653
1217440,-123,-361,992,432,5685,-5848,1745202664763661653
1217632,-106,-349,977,482,5780,-5844,1745202664763661653
1217824,-75,-339,961,540,5840,-5823,1745202664763661653
1218016,-34,-333,945,580,5898,-5803,1745202664763661653
1218208,5,-329,927,618,5954,-5795,1745202664826585766
1218400,29,-325,910,637,5921,-5760,1745202664826585766
1218592,35,-318,892,639,5907,-5509,1745202664826585766
1218784,33,-318,882,730,5796,-5341,1745202664826585766
1218976,-4,-366,887,1065,5498,-6407,1745202664826585766
1219168,-142,-478,853,1427,5348,-8170,1745202664826585766
1219360,-422,-599,745,1340,5548,-8871,1745202664826585766
1219552,-733,-641,634,928,6062,-7873,1745202664826585766
1219744,-867,-581,598,568,6743,-6385,1745202664826585766
1219936,-802,-481,629,546,7401,-5607,1745202664826585766
1220128,-701,-410,673,808,7697,-5344,1745202664826585766
1220320,-655,-382,698,993,7385,-4997,1745202664826585766
1220512,-617,-378,710,915,6663,-4661,1745202664884728047
1220704,-545,-367,716,665,5995,-4438,1745202664884728047
1220896,-463,-339,712,389,5618,-4319,1745202664884728047
1221088,-406,-293,701,188,5574,-4193,1745202664884728047
1221280,-367,-255,694,149,5655,-4365,1745202664884728047
1221472,-344,-261,693,404,5774,-5324,1745202664884728047
1221664,-367,-307,662,749,5955,-6444,1745202664884728047
1221856,-429,-341,579,953,6230,-6692,1745202664884728047
1222048,-429,-322,504,1002,6593,-5922,1745202664884728047
1222240,-294,-272,493,1057,7029,-5082,1745202664884728047
1222432,-84,-240,535,1126,7294,-4998,1745202664884728047
1222624,80,-265,592,1154,7139,-5344,1745202664884728047
1222816,174,-326,608,1075,6536,-5504,1745202664939132446
1223008,255,-351,551,853,5888,-5358,1745202664939132446
1223200,343,-321,462,625,5543,-5077,1745202664939132446
1223392,408,-266,412,406,5480,-4937,1745202664939132446
1223584,414,-239,441,384,5362,-5346,1745202664939132446
1223776,363,-236,497,553,5029,-5705,1745202664939132446
1223968,296,-206,499,742,4724,-5633,1745202664939132446
1224160,249,-161,463,819,4636,-5336,1745202664939132446
1224352,213,-147,453,820,4730,-5390,1745202664939132446
1224544,160,-163,478,861,4766,-5629,1745202664939132446
1224736,86,-164,486,940,4736,-5646,1745202664939132446
1224928,4,-135,461,985,4734,-5456,1745202664939132446
1225120,-76,-111,450,982,4857,-5280,1745202664998878202
1225312,-142,-109,470,990,5031,-5326,1745202664998878202
1225504,-189,-97,486,1046,5275,-5354,1745202664998878202
1225696,-228,-75,479,1128,5546,-5235,1745202664998878202
1225888,-258,-63,460,1188,5806,-5282,1745202664998878202
1226080,-275,-69,442,1246,6036,-5479,1745202664998878202
1226272,-278,-80,421,1290,6154,-5534,1745202664998878202
1226464,-277,-84,399,1334,6144,-5533,1745202664998878202
1226656,-271,-87,385,1327,6084,-5512,1745202664998878202
1226848,-267,-97,381,1315,5998,-5621,1745202664998878202
1227040,-269,-104,377,1293,5866,-5824,1745202664998878202
1227232,-259,-94,359,1274,5821,-5793,1745202664998878202
1227424,-219,-65,326,1300,5919,-5625,1745202665056759809
1227616,-157,-38,287,1302,6126,-5684,1745202665056759809
1227808,-83,-18,248,1372,6410,-5745,1745202665056759809
1228000,4,1,203,1436,6672,-5711,1745202665056759809
1228192,97,11,162,1486,6882,-5717,1745202665056759809
1228384,184,9,130,1503,6952,-5716,1745202665056759809
1228576,258,8,105,1459,6824,-5595,1745202665056759809
1228768,318,2,87,1365,6552,-5476,1745202665056759809
1228960,353,1,72,1340,6198,-5616,1745202665056759809
1229152,354,14,47,1359,5815,-5667,1745202665056759809
1229344,306,52,12,1358,5391,-6148,1745202665056759809
1229536,267,76,33,1033,5006,-5949,1745202665056759809
1229728,362,12,168,712,5187,-5363,1745202665114955892
1229920,428,-9,205,817,5385,-5937,1745202665114955892
1230112,303,87,48,1013,5063,-6526,1745202665114955892
1230304,101,126,-87,1206,4653,-6555,1745202665114955892
1230496,-58,78,-91,1210,4413,-6368,1745202665114955892
1230688,-147,52,-24,1181,4338,-6251,1745202665114955892
1230880,-205,89,60,1157,4368,-6070,1745202665114955892
1231072,-227,153,144,1101,4513,-5710,1745202665114955892
1231264,-202,209,215,1082,4570,-5661,1745202665114955892
1231456,-163,250,254,1110,4541,-5532,1745202665114955892
1231648,-137,289,263,1039,4471,-5027,1745202665114955892
1231840,-106,340,250,888,4417,-4758,1745202665114955892
1232032,-62,402,220,815,4430,-4885,1745202665174518577
1232224,-34,452,177,882,4420,-5044,1745202665174518577
1232416,-27,473,145,986,4396,-5016,1745202665174518577
1232608,-20,480,146,1071,4376,-4942,1745202665174518577
1232800,4,482,176,1146,4372,-4914,1745202665174518577
1232992,55,485,211,1199,4496,-4793,1745202665174518577
1233184,137,501,245,1258,4779,-4593,1745202665174518577
1233376,251,517,271,1274,5096,-4460,1745202665174518577
1233568,381,532,284,1277,5457,-4684,1745202665174518577
1233760,124,528,318,492,5988,-6711,1745202665174518577
1233952,172,359,386,2241,4825,-2240,1745202665174518577
1234144,904,524,337,1314,5350,-4436,1745202665174518577
1234336,1083,576,361,1153,5199,-4731,1745202665237952372
1234528,1278,592,382,1073,5006,-4595,1745202665237952372
1234720,1411,616,409,1231,4811,-4587,1745202665237952372
1234912,1522,638,417,1214,4606,-4657,1745202665237952372
1235104,1611,652,407,1197,4476,-4602,1745202665237952372
1235296,1670,680,386,1151,4382,-4684,1745202665237952372
1235488,1706,711,367,1140,4302,-5011,1745202665237952372
1235680,1738,732,360,1141,4289,-5364,1745202665237952372
1235872,1773,753,361,1169,4407,-5617,1745202665237952372
1236064,1817,771,371,1225,4568,-5876,1745202665237952372
1236256,1878,785,385,1279,4801,-6064,1745202665237952372
1236448,1954,802,389,1319,5039,-6161,1745202665237952372
1236640,2038,820,382,1352,5198,-6234,1745202665292501614
1236832,2110,830,367,1375,5201,-6268,1745202665292501614
1237024,2169,836,349,1369,5057,-6121,1745202665292501614
1237216,2208,834,340,1421,4738,-6136,1745202665292501614
1237408,2219,817,349,1533,4243,-6756,1745202665292501614
1237600,2186,786,359,1669,3716,-7146,1745202665292501614
1237792,2141,764,361,1726,3353,-7064,1745202665292501614
1237984,2139,747,366,1712,3489,-6546,1745202665292501614
1238176,2152,744,351,1696,3778,-6913,1745202665292501614
1238368,2166,718,326,1757,4048,-7556,1745202665292501614
1238560,2222,694,294,1815,4486,-7484,1745202665292501614
1238752,2282,678,249,1862,4904,-7640,1745202665292501614
1238944,2320,679,209,1953,5045,-7683,1745202665347729286
1239136,2351,682,208,2104,4789,-7719,1745202665347729286
1239328,2408,661,223,2271,4474,-7665,1745202665347729286
1239520,2458,640,225,2345,4248,-7676,1745202665347729286
1239712,2468,625,211,2424,4231,-7557,1745202665347729286
1239904,2435,607,185,2507,4092,-7794,1745202665347729286
