timestamp,gyr_x,gyr_y,gyr_z,acc_x,acc_y,acc_z,pkt_time_ns
239009,-124,-102,-63,2905,549,-7934,1745226519389229759
239201,-83,-144,-68,2582,-486,-7695,1745226519389229759
239393,-122,-96,-44,2409,347,-7626,1745226519389229759
239585,-114,-68,-38,2101,612,-8168,1745226519389229759
239777,-59,-82,-55,2493,956,-8019,1745226519389229759
239969,13,-49,-69,2634,889,-8136,1745226519389229759
240161,100,-41,-87,2399,747,-8385,1745226519389229759
240353,184,-36,-113,2092,824,-8343,1745226519389229759
240545,223,26,-122,1919,-275,-8624,1745226519389229759
240737,338,20,-91,2302,1857,-6982,1745226519389229759
240929,338,-36,-97,2702,-295,-7992,1745226519389229759
241121,352,-73,-83,2352,-322,-7615,1745226519389229759
241313,306,-38,-71,1802,-80,-8095,1745226519443946395
241505,262,-35,-76,2135,114,-7830,1745226519443946395
241697,296,-23,-67,2203,852,-7490,1745226519443946395
241889,381,-18,61,1534,2132,-7488,1745226519443946395
242081,441,13,134,3488,-598,-7625,1745226519443946395
242273,363,2,-104,1874,-2389,-7412,1745226519443946395
242465,166,1,-102,2869,-2895,-7240,1745226519443946395
242657,-13,-62,-66,3303,-2704,-7317,1745226519443946395
242849,-164,-135,-55,2815,-1427,-7608,1745226519443946395
243041,-194,-143,-39,1789,1261,-7567,1745226519443946395
243233,-62,-75,-58,2289,2183,-7438,1745226519443946395
243425,66,-63,-68,2801,819,-7268,1745226519443946395
243617,102,-50,-35,2780,-523,-7303,1745226519503847045
243809,64,-49,-15,2395,-849,-7720,1745226519503847045
244001,7,-49,-17,2421,-359,-7970,1745226519503847045
244193,-8,-54,-26,2585,70,-7990,1745226519503847045
244385,5,-52,-30,2633,12,-7985,1745226519503847045
244577,6,-47,-27,2514,-200,-7895,1745226519503847045
244769,-9,-29,-22,2402,-382,-7884,1745226519503847045
244961,-24,-14,-25,2589,-270,-7806,1745226519503847045
245153,-21,-6,-31,2865,38,-7596,1745226519503847045
245345,-18,-3,-37,2860,292,-7601,1745226519503847045
245537,-26,8,-33,2502,303,-7887,1745226519503847045
245729,-32,20,-32,2576,321,-7694,1745226519503847045
245921,-32,33,-32,2565,196,-7733,1745226519560913451
246113,-42,38,-29,2658,254,-7824,1745226519560913451
246305,-49,28,-35,2560,325,-7838,1745226519560913451
246497,-55,30,-33,2355,364,-7977,1745226519560913451
246689,-61,31,-38,2304,403,-7945,1745226519560913451
246881,-62,36,-43,2393,362,-7738,1745226519560913451
247073,-55,39,-49,2352,198,-7818,1745226519560913451
247265,-49,37,-56,2427,126,-7762,1745226519560913451
247457,-43,39,-63,2394,-10,-7788,1745226519560913451
247649,-36,40,-68,2340,-9,-7886,1745226519560913451
247841,-31,37,-78,2484,139,-7880,1745226519560913451
248033,-20,32,-85,2448,196,-7834,1745226519560913451
248225,-12,36,-85,2311,21,-7931,1745226519622997519
248417,-12,41,-85,2301,-46,-7711,1745226519622997519
248609,-21,58,-85,2289,71,-7896,1745226519622997519
248801,-25,64,-92,2299,348,-7999,1745226519622997519
248993,-17,65,-107,2296,457,-8171,1745226519622997519
249185,-2,66,-118,2243,450,-8309,1745226519622997519
249377,4,65,-130,2273,480,-8352,1745226519622997519
249569,9,65,-139,2172,459,-8379,1745226519622997519
249761,7,73,-145,1966,349,-8429,1745226519622997519
249953,11,90,-148,1860,225,-8382,1745226519622997519
250145,28,108,-156,1947,66,-8404,1745226519622997519
250337,58,113,-166,2218,-41,-8234,1745226519622997519
250529,78,108,-188,2107,-190,-8100,1745226519677187754
250721,76,113,-199,2008,-96,-8202,1745226519677187754
250913,74,118,-206,2041,259,-8321,1745226519677187754
251105,87,133,-208,1968,384,-8172,1745226519677187754
251297,114,158,-198,2052,285,-8212,1745226519677187754
251489,150,169,-198,2169,178,-8123,1745226519677187754
251681,179,173,-206,2331,64,-8157,1745226519677187754
251873,192,168,-212,2290,72,-8075,1745226519677187754
252065,189,169,-217,2158,172,-8140,1745226519677187754
252257,188,173,-217,2147,326,-8337,1745226519677187754
252449,201,176,-217,2240,487,-8390,1745226519677187754
252641,217,181,-219,2190,541,-8315,1745226519677187754
252833,228,194,-216,2118,501,-8405,1745226519764724350
253025,242,202,-214,2212,516,-8281,1745226519764724350
253217,257,205,-218,2473,461,-8134,1745226519764724350
253409,273,200,-217,2597,443,-7938,1745226519764724350
253601,279,204,-215,2462,427,-7930,1745226519764724350
253793,279,224,-207,2398,508,-8121,1745226519764724350
253985,285,240,-195,2599,538,-8238,1745226519764724350
254177,302,243,-181,2859,364,-7938,1745226519764724350
254369,315,254,-160,2980,87,-7759,1745226519764724350
254561,305,268,-134,2862,-87,-7695,1745226519764724350
254753,275,294,-116,2876,-110,-7627,1745226519764724350
254945,249,323,-102,2972,-104,-7485,1745226519764724350
255137,242,352,-88,3192,-77,-7289,1745226519792768625
255329,248,384,-80,3366,-38,-7182,1745226519792768625
255521,244,414,-75,3461,66,-7186,1745226519792768625
255713,236,440,-68,3655,240,-7110,1745226519792768625
255905,234,471,-58,3727,360,-7075,1745226519792768625
256097,221,514,-47,3617,375,-7193,1745226519792768625
256289,194,569,-38,3652,240,-7181,1745226519792768625
256481,180,609,-30,3805,-17,-6989,1745226519792768625
256673,184,631,-22,3801,-116,-6748,1745226519792768625
256865,169,663,-22,3774,-287,-6691,1745226519792768625
257057,143,691,-19,3867,-297,-6896,1745226519792768625
257249,118,709,-20,3929,-299,-7225,1745226519792768625
257441,92,711,-14,3838,-280,-7652,1745226519854721236
257633,71,715,-8,3593,-199,-7924,1745226519854721236
257825,52,729,-12,3407,-77,-8193,1745226519854721236
258017,39,770,-19,3161,171,-8478,1745226519854721236
258209,28,832,-27,3080,360,-8755,1745226519854721236
258401,37,884,-31,2984,452,-8719,1745226519854721236
258593,75,927,-27,3153,405,-8767,1745226519854721236
258785,106,952,-44,3285,280,-9199,1745226519854721236
258977,130,958,-78,3401,203,-9804,1745226519854721236
259169,161,928,-123,3121,542,-10780,1745226519854721236
259361,141,905,-210,2281,1313,-11461,1745226519854721236
259553,98,962,-288,1358,2265,-9664,1745226519854721236
259745,140,1148,-306,1317,2357,-7083,1745226519911296761
259937,310,1394,-264,2655,992,-5423,1745226519911296761
260129,577,1558,-192,4508,-1202,-5322,1745226519911296761
260321,759,1605,-100,5730,-3468,-6245,1745226519911296761
260513,600,1554,-46,4805,-4689,-8170,1745226519911296761
260705,188,1642,47,3049,-5489,-7267,1745226519911296761
260897,199,1832,145,2628,-4646,-6802,1745226519911296761
261089,400,1878,136,3182,-2984,-6189,1745226519911296761
261281,464,1944,-10,3668,-1443,-5393,1745226519911296761
261473,482,2094,-100,4221,-103,-5680,1745226519911296761
261665,531,2111,-89,5120,750,-7259,1745226519911296761
261857,616,1947,-15,5870,1114,-7553,1745226519911296761
262049,662,1711,49,6065,987,-7620,1745226519971565117
262241,667,1526,55,5413,831,-8275,1745226519971565117
262433,661,1372,31,4309,931,-8604,1745226519971565117
262625,675,1262,-3,3490,760,-8199,1745226519971565117
262817,721,1208,-60,3102,588,-7717,1745226519971565117
263009,767,1160,-78,2835,420,-7514,1745226519971565117
263201,778,1150,-20,2772,188,-7187,1745226519971565117
263393,773,1148,43,2930,-167,-6535,1745226519971565117
263585,774,1165,60,3183,-531,-6444,1745226519971565117
263777,768,1187,52,3483,-836,-6446,1745226519971565117
263969,772,1220,30,3710,-997,-6128,1745226519971565117
264161,738,1225,3,3982,-1105,-5808,1745226519971565117
264353,682,1204,-14,4292,-1071,-6050,1745226520032839921
264545,656,1160,-14,4523,-853,-5901,1745226520032839921
264737,711,1133,-12,4525,-350,-5744,1745226520032839921
264929,749,1090,-51,4443,4,-4925,1745226520032839921
265121,737,1021,-104,4501,-32,-4634,1745226520032839921
265313,684,921,-108,4683,-324,-4525,1745226520032839921
265505,631,809,-57,4988,-650,-4521,1745226520032839921
265697,635,688,-16,5230,-878,-4194,1745226520032839921
265889,714,571,-39,5309,-984,-3612,1745226520032839921
266081,800,430,-132,5365,-1174,-3066,1745226520032839921
266273,839,266,-245,5510,-1442,-2704,1745226520032839921
266465,833,101,-340,5643,-1632,-2426,1745226520032839921
266657,802,-54,-408,5819,-1709,-2364,1745226520085759855
266849,750,-206,-471,5964,-1757,-2106,1745226520085759855
267041,667,-359,-524,6180,-1907,-1842,1745226520085759855
267233,550,-515,-548,6469,-2252,-2164,1745226520085759855
267425,415,-658,-498,6618,-2346,-2051,1745226520085759855
267617,255,-781,-384,6859,-1978,-1838,1745226520085759855
267809,93,-904,-258,7232,-1589,-1962,1745226520085759855
268001,-69,-1067,-158,7422,-1158,-1988,1745226520085759855
268193,-204,-1253,-103,7358,-463,-1965,1745226520085759855
268385,-286,-1451,-79,7056,351,-2203,1745226520085759855
268577,-349,-1656,-77,6887,867,-2884,1745226520085759855
268769,-402,-1891,-76,7014,943,-3481,1745226520085759855
268961,-423,-2140,-38,7120,719,-3852,1745226520148394022
269153,-421,-2408,32,6878,456,-4108,1745226520148394022
269345,-423,-2619,88,6189,45,-4687,1745226520148394022
269537,-468,-2774,154,5322,-400,-5430,1745226520148394022
269729,-538,-2861,249,4323,-1003,-6374,1745226520148394022
269921,-638,-2816,355,3272,-1504,-7279,1745226520148394022
270113,-755,-2721,457,2384,-1719,-7940,1745226520148394022
270305,-808,-2595,535,2169,-1485,-8291,1745226520148394022
270497,-749,-2454,577,2719,-704,-8234,1745226520148394022
270689,-652,-2357,591,3580,41,-8165,1745226520148394022
270881,-605,-2304,610,3828,216,-8161,1745226520148394022
271073,-599,-2234,668,2975,-84,-8518,1745226520148394022
271265,-615,-2087,710,1583,-609,-9208,1745226520202768369
271457,-603,-1867,682,697,-1128,-10000,1745226520202768369
271649,-527,-1632,610,748,-1457,-10469,1745226520202768369
271841,-434,-1410,524,1320,-1614,-10480,1745226520202768369
272033,-363,-1219,455,1869,-1743,-10279,1745226520202768369
272225,-319,-1069,416,2075,-1932,-10082,1745226520202768369
272417,-311,-937,387,2038,-2154,-10035,1745226520202768369
272609,-338,-811,355,1999,-2172,-9964,1745226520202768369
272801,-360,-694,315,2084,-1765,-9806,1745226520202768369
272993,-345,-585,276,2076,-1111,-9702,1745226520202768369
273185,-301,-461,240,2111,-521,-9663,1745226520202768369
273377,-221,-356,195,2115,-321,-9550,1745226520202768369
273569,-133,-266,135,2054,-508,-9151,1745226520263219171
273761,-68,-173,83,2295,-540,-8950,1745226520263219171
273953,-34,-112,53,2319,-398,-8995,1745226520263219171
274145,6,-57,34,2377,-312,-9013,1745226520263219171
274337,39,-21,10,2355,-380,-8951,1745226520263219171
274529,62,17,5,2326,-444,-8795,1745226520263219171
274721,81,55,0,2359,-489,-8465,1745226520263219171
274913,111,93,-8,2476,-538,-8048,1745226520263219171
275105,127,123,-21,2660,-357,-8019,1745226520263219171
275297,146,136,-12,2620,-132,-8166,1745226520263219171
275489,162,147,-2,2580,-156,-8348,1745226520263219171
275681,183,157,10,2579,-253,-8509,1745226520263219171
275873,201,158,11,2586,-196,-8615,1745226520321797438
276065,230,160,13,2561,-132,-8683,1745226520321797438
276257,271,169,11,2511,-274,-8583,1745226520321797438
276449,303,181,7,2442,-448,-8572,1745226520321797438
276641,319,195,10,2399,-522,-8529,1745226520321797438
276833,335,202,11,2393,-613,-8664,1745226520321797438
277025,358,209,21,2353,-745,-8678,1745226520321797438
277217,384,218,33,2362,-811,-8481,1745226520321797438
277409,394,217,43,2398,-813,-8343,1745226520321797438
277601,385,208,49,2551,-576,-8029,1745226520321797438
277793,384,198,49,2684,-130,-7800,1745226520321797438
277985,424,198,41,2877,121,-7360,1745226520321797438
278177,479,179,39,2968,-231,-7947,1745226520379144727
278369,488,135,68,2851,-788,-8252,1745226520379144727
278561,473,97,90,2753,-1097,-7928,1745226520379144727
278753,468,82,93,2846,-1172,-7168,1745226520379144727
278945,477,92,76,3027,-1061,-6451,1745226520379144727
279137,485,92,55,3392,-912,-6577,1745226520379144727
279329,487,69,51,3426,-905,-7535,1745226520379144727
279521,456,3,86,3157,-1298,-8405,1745226520379144727
279713,409,-59,117,2778,-1775,-8503,1745226520379144727
279905,364,-93,132,2625,-1923,-8397,1745226520379144727
280097,317,-134,127,2497,-1633,-8345,1745226520379144727
280289,289,-169,108,2456,-984,-8306,1745226520379144727
280481,299,-192,85,2485,-680,-8409,1745226520436538317
280673,340,-213,59,2502,-830,-8627,1745226520436538317
280865,389,-233,43,2334,-1240,-8648,1745226520436538317
281057,417,-248,28,2125,-1767,-8702,1745226520436538317
281249,423,-256,16,2076,-2065,-8590,1745226520436538317
281441,420,-261,-4,1893,-1878,-8421,1745226520436538317
281633,407,-260,-34,2011,-1419,-8198,1745226520436538317
281825,419,-285,-79,2013,-1080,-8394,1745226520436538317
282017,442,-304,-109,1945,-948,-8696,1745226520436538317
282209,459,-325,-144,1966,-890,-8631,1745226520436538317
282401,500,-331,-179,2119,-956,-8543,1745226520436538317
282593,548,-331,-213,2063,-1138,-8367,1745226520436538317
282785,577,-328,-242,2244,-1360,-8231,1745226520496730892
282977,596,-327,-268,2341,-1547,-8059,1745226520496730892
283169,595,-335,-283,2380,-1621,-8186,1745226520496730892
283361,581,-351,-296,2490,-1489,-8122,1745226520496730892
283553,587,-357,-304,2423,-1471,-8168,1745226520496730892
283745,586,-358,-302,2374,-1595,-8027,1745226520496730892
283937,591,-349,-304,2329,-1682,-7901,1745226520496730892
284129,596,-343,-298,2281,-1645,-7763,1745226520496730892
284321,619,-326,-288,2185,-1856,-7702,1745226520496730892
284513,646,-293,-292,2156,-2094,-7519,1745226520496730892
284705,654,-267,-298,2093,-2076,-7654,1745226520496730892
284897,647,-245,-316,2420,-1725,-7490,1745226520496730892
285089,666,-223,-359,2870,-1197,-7595,1745226520556362274
285281,709,-231,-365,2851,-943,-8047,1745226520556362274
285473,739,-232,-352,2946,-1344,-8167,1745226520556362274
285665,780,-214,-358,3289,-1778,-7490,1745226520556362274
285857,785,-227,-330,3227,-2060,-8049,1745226520556362274
286049,738,-244,-289,2827,-2004,-7556,1745226520556362274
286241,726,-231,-287,2993,-1899,-7174,1745226520556362274
286433,729,-226,-289,2961,-1594,-7414,1745226520556362274
286625,751,-223,-293,3040,-1437,-7171,1745226520556362274
286817,803,-207,-296,3362,-1763,-6974,1745226520556362274
287009,834,-186,-292,3361,-2185,-6715,1745226520556362274
287201,809,-173,-274,3248,-2383,-6537,1745226520556362274
287393,766,-157,-254,3328,-2424,-6778,1745226520621370014
287585,727,-150,-253,3104,-2215,-6880,1745226520621370014
287777,679,-156,-247,2914,-1848,-7080,1745226520621370014
287969,657,-146,-266,3083,-1528,-7150,1745226520621370014
288161,684,-134,-302,3297,-1413,-6819,1745226520621370014
288353,750,-110,-319,3381,-1620,-6671,1745226520621370014
288545,789,-76,-346,3376,-2228,-6115,1745226520621370014
288737,745,-43,-343,3407,-2615,-6430,1745226520621370014
288929,653,-35,-317,3099,-2212,-7206,1745226520621370014
289121,563,-58,-290,2485,-1614,-7602,1745226520621370014
289313,509,-64,-316,3032,-724,-6804,1745226520621370014
289505,615,-29,-417,4039,-589,-7711,1745226520621370014
289697,704,-99,-366,3171,-1504,-8304,1745226520670054934
289889,732,-64,-341,2941,-2844,-6859,1745226520670054934
290081,803,77,-414,3441,-2884,-2085,1745226520670054934
290273,881,313,-499,4842,-2821,-1940,1745226520670054934
290465,799,405,-541,5407,-2213,-2632,1745226520670054934
290657,865,522,-481,5663,-2937,-2912,1745226520670054934
290849,844,616,-458,6303,-4460,-2828,1745226520670054934
291041,729,653,-354,6180,-4794,-3668,1745226520670054934
291233,538,664,-273,5612,-4127,-3202,1745226520670054934
291425,382,644,-202,5969,-3187,-5038,1745226520670054934
291617,256,545,-156,5424,-2253,-5982,1745226520670054934
291809,190,431,-121,5475,-1723,-6843,1745226520670054934
292001,194,345,-98,4731,-1832,-7405,1745226520735440534
292193,136,261,-79,4341,-2044,-7286,1745226520735440534
292385,140,209,-56,3982,-2062,-7226,1745226520735440534
292577,142,205,-62,3506,-2291,-6769,1745226520735440534
292769,112,195,-54,3476,-2432,-6663,1745226520735440534
292961,99,203,-55,3287,-2450,-6588,1745226520735440534
293153,70,200,-54,3078,-2535,-6435,1745226520735440534
293345,48,214,-60,3367,-2519,-6615,1745226520735440534
293537,30,212,-83,3472,-2132,-6608,1745226520735440534
293729,10,200,-94,3734,-1707,-6775,1745226520735440534
293921,13,176,-95,3870,-1795,-7261,1745226520735440534
294113,4,136,-86,3894,-2261,-7475,1745226520735440534
294305,-2,92,-66,3735,-2502,-7803,1745226520792191006
294497,-20,63,-56,3397,-2342,-7370,1745226520792191006
294689,-16,67,-57,3416,-2188,-6975,1745226520792191006
294881,19,97,-67,3523,-2263,-6693,1745226520792191006
295073,42,111,-80,3652,-2621,-6405,1745226520792191006
295265,41,117,-73,3587,-2875,-6557,1745226520792191006
295457,-2,123,-70,3577,-2873,-6488,1745226520792191006
295649,-41,109,-63,3743,-2501,-6789,1745226520792191006
295841,-59,82,-50,3771,-2218,-7121,1745226520792191006
296033,-67,41,-35,3559,-2187,-7093,1745226520792191006
296225,-78,11,-24,3323,-2171,-7165,1745226520792191006
296417,-87,-8,-30,3301,-2028,-7184,1745226520792191006
296609,-83,-31,-40,3427,-1881,-7331,1745226520848001329
296801,-68,-52,-44,3527,-1937,-7276,1745226520848001329
296993,-54,-73,-44,3629,-2211,-7058,1745226520848001329
297185,-62,-89,-32,3619,-2358,-6894,1745226520848001329
297377,-91,-100,-18,3553,-2333,-6812,1745226520848001329
297569,-118,-98,-4,3434,-2225,-6811,1745226520848001329
297761,-127,-89,1,3453,-2150,-6898,1745226520848001329
297953,-107,-80,-7,3427,-2094,-6953,1745226520848001329
298145,-86,-72,-11,3409,-2205,-6899,1745226520848001329
298337,-68,-60,-10,3527,-2556,-6721,1745226520848001329
298529,-66,-56,-4,3431,-2853,-6713,1745226520848001329
298721,-98,-60,6,3306,-2827,-6874,1745226520848001329
298913,-130,-67,5,3375,-2590,-7008,1745226520910686746
299105,-147,-88,2,3437,-2388,-7212,1745226520910686746
299297,-152,-110,3,3380,-2263,-7251,1745226520910686746
299489,-142,-126,11,3251,-2317,-7191,1745226520910686746
299681,-150,-120,35,3246,-2328,-6774,1745226520910686746
299873,-124,-128,20,3201,-2442,-6882,1745226520910686746
300065,-128,-132,-7,3185,-2873,-6782,1745226520910686746
300257,-149,-116,13,3242,-2659,-6773,1745226520910686746
300449,-156,-115,14,3278,-2474,-6765,1745226520910686746
300641,-151,-115,17,3220,-2574,-7014,1745226520910686746
300833,-140,-105,19,3006,-2767,-7064,1745226520910686746
301025,-124,-83,8,2850,-2907,-7006,1745226520910686746
301217,-135,-55,9,2995,-2926,-6942,1745226520970974477
301409,-144,-31,12,3131,-2989,-6988,1745226520970974477
301601,-156,-27,16,3028,-3045,-7072,1745226520970974477
301793,-173,-21,25,3017,-2975,-7011,1745226520970974477
301985,-183,-15,31,2959,-2906,-6998,1745226520970974477
302177,-199,-4,39,2856,-2818,-7027,1745226520970974477
302369,-205,9,38,2841,-2681,-7137,1745226520970974477
302561,-200,16,31,2839,-2633,-7278,1745226520970974477
302753,-199,13,28,2875,-2609,-7165,1745226520970974477
302945,-192,12,26,2944,-2595,-7123,1745226520970974477
303137,-200,-4,25,2901,-2593,-7174,1745226520970974477
303329,-213,-16,20,2857,-2475,-7228,1745226520970974477
303521,-207,-27,12,2884,-2305,-7230,1745226521025624446
303713,-191,-34,-1,2948,-2200,-7230,1745226521025624446
303905,-178,-32,-7,2884,-2184,-7089,1745226521025624446
304097,-168,-21,-7,3023,-2261,-7101,1745226521025624446
304289,-145,-21,-9,3236,-2417,-7043,1745226521025624446
304481,-143,-29,-5,3121,-2662,-7053,1745226521025624446
304673,-168,-30,11,2964,-2707,-7025,1745226521025624446
304865,-173,-25,15,3059,-2583,-7091,1745226521025624446
305057,-165,-23,9,3140,-2468,-7139,1745226521025624446
305249,-162,-20,16,3154,-2412,-7122,1745226521025624446
305441,-155,-16,26,3175,-2407,-7062,1745226521025624446
305633,-146,-17,32,3158,-2395,-7017,1745226521025624446
305825,-145,-16,39,3151,-2345,-7000,1745226521086057592
306017,-148,-16,50,3122,-2267,-7027,1745226521086057592
306209,-150,-16,56,3070,-2243,-7054,1745226521086057592
306401,-142,-16,56,3102,-2265,-7090,1745226521086057592
306593,-132,-14,52,3042,-2247,-7184,1745226521086057592
306785,-137,-13,47,3106,-2159,-7229,1745226521086057592
306977,-135,-22,42,3178,-2023,-7304,1745226521086057592
307169,-131,-33,37,3172,-1861,-7424,1745226521086057592
307361,-131,-43,34,3117,-1773,-7465,1745226521086057592
307553,-127,-52,40,2991,-1758,-7361,1745226521086057592
307745,-108,-37,54,2868,-1930,-7101,1745226521086057592
307937,-72,-1,73,2861,-2347,-6723,1745226521086057592
308129,-37,42,91,2920,-2920,-6600,1745226521144284925
308321,-32,72,111,2897,-3320,-6526,1745226521144284925
308513,-65,87,116,2975,-3319,-6674,1745226521144284925
308705,-115,84,104,3033,-2777,-6795,1745226521144284925
308897,-169,58,81,2959,-1955,-7136,1745226521144284925
309089,-215,28,65,2656,-1037,-7418,1745226521144284925
309281,-242,2,48,2546,-406,-7574,1745226521144284925
309473,-212,-21,19,3069,-73,-7671,1745226521144284925
309665,-91,-49,-9,3697,-402,-7861,1745226521144284925
309857,61,-86,12,3589,-1565,-7656,1745226521144284925
310049,129,-89,63,3086,-3128,-7261,1745226521144284925
310241,69,-88,96,2634,-4112,-6972,1745226521144284925
310433,-75,-67,99,2844,-3898,-6987,1745226521202458924
310625,-187,-51,77,3491,-2798,-7215,1745226521202458924
310817,-191,-42,51,3971,-1743,-7240,1745226521202458924
311009,-100,-28,46,3892,-1525,-6969,1745226521202458924
311201,-8,2,57,3560,-2151,-6667,1745226521202458924
311393,37,54,79,3540,-3082,-6478,1745226521202458924
311585,41,101,107,3506,-3813,-6514,1745226521202458924
311777,-29,145,139,3201,-4051,-6558,1745226521202458924
311969,-146,186,159,3115,-3695,-6519,1745226521202458924
312161,-236,224,146,3210,-2906,-6579,1745226521202458924
312353,-274,246,114,3338,-2079,-6763,1745226521202458924
312545,-269,255,79,3516,-1458,-6863,1745226521202458924
312737,-226,250,58,3809,-1306,-6937,1745226521259450487
312929,-184,222,58,3845,-1450,-6947,1745226521259450487
313121,-165,209,71,3831,-1808,-6780,1745226521259450487
313313,-173,197,73,3777,-2136,-6473,1745226521259450487
313505,-212,202,90,3817,-2277,-6100,1745226521259450487
313697,-260,215,100,4106,-2286,-5971,1745226521259450487
313889,-279,215,106,4147,-2220,-5948,1745226521259450487
314081,-305,215,115,4064,-2059,-6102,1745226521259450487
314273,-337,217,131,4026,-1859,-6089,1745226521259450487
314465,-354,227,144,3968,-1805,-6027,1745226521259450487
314657,-373,248,155,3938,-1874,-5835,1745226521259450487
314849,-364,294,172,4003,-1992,-5559,1745226521259450487
315041,-342,335,175,4254,-2190,-5529,1745226521317697195
315233,-355,346,171,4414,-2382,-5642,1745226521317697195
315425,-402,348,184,4398,-2433,-5725,1745226521317697195
315617,-460,356,203,4271,-2334,-5722,1745226521317697195
315809,-514,368,219,4228,-2201,-5813,1745226521317697195
316001,-549,379,228,4398,-2135,-5899,1745226521317697195
316193,-562,383,225,4583,-2169,-5883,1745226521317697195
316385,-572,385,226,4495,-2158,-5683,1745226521317697195
316577,-614,391,239,4362,-2106,-5659,1745226521317697195
316769,-659,387,255,4436,-2051,-5841,1745226521317697195
316961,-688,368,264,4701,-2023,-6116,1745226521317697195
317153,-704,335,266,4719,-1999,-6209,1745226521317697195
317345,-738,311,268,4286,-1817,-6260,1745226521378912208
317537,-781,322,280,3863,-1407,-6203,1745226521378912208
317729,-820,324,284,3995,-1072,-6684,1745226521378912208
317921,-811,302,263,4362,-782,-7129,1745226521378912208
318113,-792,265,238,4298,-573,-7262,1745226521378912208
318305,-801,242,230,3893,-463,-7238,1745226521378912208
318497,-821,237,234,3627,-443,-7369,1745226521378912208
318689,-807,244,235,3815,-535,-7460,1745226521378912208
318881,-741,246,221,4179,-776,-7525,1745226521378912208
319073,-685,236,202,3933,-1162,-7324,1745226521378912208
319265,-704,250,199,3561,-1601,-7390,1745226521378912208
319457,-744,248,212,3452,-1825,-7780,1745226521378912208
319649,-769,234,221,3433,-1768,-8288,1745226521435666794
319841,-783,225,222,3447,-1640,-8308,1745226521435666794
320033,-785,218,221,3207,-1530,-7648,1745226521435666794
320225,-788,247,217,3115,-1517,-7309,1745226521435666794
320417,-783,265,211,3062,-1387,-7152,1745226521435666794
320609,-761,294,204,3267,-1162,-7411,1745226521435666794
320801,-723,299,199,3464,-934,-7576,1745226521435666794
320993,-697,290,196,3391,-848,-7688,1745226521435666794
321185,-666,294,209,3371,-775,-7862,1745226521435666794
321377,-652,280,235,3164,-790,-7790,1745226521435666794
321569,-618,281,255,3080,-899,-7855,1745226521435666794
321761,-598,277,252,2937,-998,-7588,1745226521435666794
321953,-600,274,239,2961,-1077,-7577,1745226521496149158
322145,-614,252,232,3058,-1005,-7848,1745226521496149158
322337,-640,212,229,2995,-843,-7792,1745226521496149158
322529,-649,187,235,2994,-786,-7712,1745226521496149158
322721,-634,157,234,2907,-812,-7549,1745226521496149158
322913,-619,140,220,2816,-823,-7504,1745226521496149158
323105,-625,122,200,2763,-815,-7373,1745226521496149158
323297,-631,102,195,2961,-719,-7419,1745226521496149158
323489,-620,65,196,3317,-495,-7674,1745226521496149158
323681,-602,11,189,3355,-213,-7772,1745226521496149158
323873,-591,-32,185,3102,-78,-7675,1745226521496149158
324065,-571,-50,196,2904,-137,-7577,1745226521496149158
324257,-533,-52,209,2905,-272,-7651,1745226521552810099
324449,-488,-56,206,3086,-376,-7884,1745226521552810099
324641,-444,-67,203,3257,-502,-8131,1745226521552810099
324833,-419,-80,210,3254,-713,-8413,1745226521552810099
325025,-427,-84,224,3111,-932,-8514,1745226521552810099
325217,-439,-78,234,2975,-1087,-8489,1745226521552810099
325409,-437,-71,227,2945,-1168,-8409,1745226521552810099
325601,-425,-61,208,3074,-1214,-8242,1745226521552810099
325793,-414,-60,187,3247,-1208,-7996,1745226521552810099
325985,-407,-66,176,3411,-1217,-7787,1745226521552810099
326177,-401,-87,178,3424,-1222,-7652,1745226521552810099
326369,-397,-95,182,3225,-1221,-7510,1745226521552810099
326561,-405,-92,177,3075,-1201,-7461,1745226521612946216
326753,-409,-81,177,3079,-1139,-7461,1745226521612946216
326945,-398,-65,179,3133,-1075,-7452,1745226521612946216
327137,-379,-52,174,3151,-1021,-7408,1745226521612946216
327329,-359,-41,170,3144,-909,-7467,1745226521612946216
327521,-342,-29,174,3163,-788,-7463,1745226521612946216
327713,-325,-9,180,3146,-781,-7447,1745226521612946216
327905,-310,17,178,3224,-844,-7482,1745226521612946216
328097,-295,45,176,3344,-902,-7502,1745226521612946216
328289,-284,75,173,3505,-876,-7581,1745226521612946216
328481,-289,94,172,3612,-791,-7649,1745226521612946216
328673,-300,102,174,3677,-689,-7727,1745226521612946216
328865,-316,104,176,3672,-600,-7573,1745226521670971676
329057,-328,103,170,3787,-524,-7464,1745226521670971676
329249,-328,85,165,3990,-428,-7326,1745226521670971676
329441,-311,58,160,4038,-488,-7281,1745226521670971676
329633,-301,30,153,3799,-662,-7076,1745226521670971676
329825,-318,13,137,3703,-790,-6968,1745226521670971676
330017,-344,-9,124,3785,-694,-7082,1745226521670971676
330209,-359,-34,120,3864,-409,-7309,1745226521670971676
330401,-363,-50,114,3916,-132,-7168,1745226521670971676
330593,-333,-65,113,4020,-73,-7210,1745226521670971676
330785,-296,-84,115,3808,-234,-7040,1745226521670971676
330977,-291,-89,116,3580,-567,-7102,1745226521670971676
331169,-311,-103,122,3390,-737,-6991,1745226521727632252
331361,-336,-110,120,3339,-718,-7175,1745226521727632252
331553,-347,-105,112,3467,-353,-7396,1745226521727632252
331745,-360,-111,114,3390,-33,-7679,1745226521727632252
331937,-356,-102,107,3213,186,-7771,1745226521727632252
332129,-338,-85,90,2979,277,-7698,1745226521727632252
332321,-320,-67,88,3031,364,-7689,1745226521727632252
332513,-316,-57,90,3202,479,-7763,1745226521727632252
332705,-325,-64,89,3332,592,-7957,1745226521727632252
332897,-318,-62,96,3429,697,-7846,1745226521727632252
333089,-301,-77,106,3525,599,-7447,1745226521727632252
333281,-256,-95,110,3822,363,-7111,1745226521727632252
333473,-204,-123,106,3911,37,-6941,1745226521788555237
333665,-177,-138,104,3751,-231,-6921,1745226521788555237
333857,-176,-148,117,3552,-455,-6944,1745226521788555237
334049,-173,-153,139,3469,-585,-7144,1745226521788555237
334241,-179,-157,156,3458,-632,-7114,1745226521788555237
334433,-189,-149,165,3407,-717,-6982,1745226521788555237
334625,-199,-134,163,3392,-775,-7043,1745226521788555237
334817,-215,-119,151,3363,-823,-7205,1745226521788555237
335009,-234,-100,137,3474,-796,-7395,1745226521788555237
335201,-244,-84,126,3602,-725,-7273,1745226521788555237
335393,-254,-73,114,3763,-654,-7418,1745226521788555237
335585,-288,-64,101,3749,-625,-7250,1745226521788555237
335777,-327,-48,102,3947,-584,-7018,1745226521844865452
335969,-363,-60,108,4277,-600,-6539,1745226521844865452
336161,-380,-79,111,4361,-667,-6312,1745226521844865452
336353,-401,-95,102,4148,-680,-6469,1745226521844865452
336545,-441,-101,92,3853,-630,-6626,1745226521844865452
336737,-467,-93,92,3657,-502,-6797,1745226521844865452
336929,-483,-74,96,3517,-334,-6985,1745226521844865452
337121,-502,-47,100,3500,-189,-7211,1745226521844865452
337313,-506,-27,108,3528,-29,-7461,1745226521844865452
337505,-503,-11,106,3459,120,-7609,1745226521844865452
337697,-501,3,99,3396,186,-7804,1745226521844865452
337889,-499,12,96,3415,210,-7974,1745226521844865452
338081,-496,18,94,3412,252,-7964,1745226521908107530
338273,-503,20,83,3319,162,-7881,1745226521908107530
338465,-502,20,63,3279,141,-8038,1745226521908107530
338657,-505,29,53,3244,192,-7823,1745226521908107530
338849,-510,31,35,3258,161,-7635,1745226521908107530
339041,-508,26,19,3333,114,-7314,1745226521908107530
339233,-505,5,13,3360,-76,-7004,1745226521908107530
339425,-484,-17,14,3294,-324,-7008,1745226521908107530
339617,-467,-38,6,3040,-418,-7158,1745226521908107530
339809,-468,-43,-8,2765,-321,-7379,1745226521908107530
340001,-476,-32,-8,2639,-59,-7647,1745226521908107530
340193,-472,-13,7,2673,289,-7804,1745226521908107530
340385,-454,-3,21,2792,576,-7869,1745226521963044112
340577,-428,-2,26,2971,655,-7914,1745226521963044112
340769,-399,-14,28,3030,535,-8015,1745226521963044112
340961,-363,-13,29,3097,489,-8177,1745226521963044112
341153,-366,-22,23,2982,456,-8120,1745226521963044112
341345,-367,-18,25,3061,415,-8005,1745226521963044112
341537,-359,-28,28,3190,371,-7867,1745226521963044112
341729,-353,-41,24,3173,330,-7896,1745226521963044112
341921,-344,-58,20,3072,311,-7890,1745226521963044112
342113,-334,-71,16,3030,231,-7585,1745226521963044112
342305,-330,-86,6,3075,63,-7245,1745226521963044112
342497,-330,-101,-4,3067,-70,-7203,1745226521963044112
342689,-334,-112,-6,3002,-62,-7324,1745226522022004198
342881,-334,-117,-6,2941,148,-7351,1745226522022004198
343073,-338,-124,-7,2979,368,-7363,1745226522022004198
343265,-334,-134,0,3078,535,-7574,1745226522022004198
343457,-320,-139,10,3121,658,-7578,1745226522022004198
343649,-300,-128,13,3138,734,-7530,1745226522022004198
343841,-282,-116,18,3199,797,-7599,1745226522022004198
344033,-272,-99,32,3348,922,-7614,1745226522022004198
344225,-262,-81,48,3579,980,-7790,1745226522022004198
344417,-255,-68,57,3606,1009,-7964,1745226522022004198
344609,-252,-46,64,3486,876,-7854,1745226522022004198
344801,-245,-13,65,3543,633,-7612,1745226522022004198
344993,-231,9,69,3696,464,-7424,1745226522080743349
345185,-220,23,66,3713,395,-7425,1745226522080743349
345377,-224,36,58,3645,305,-7363,1745226522080743349
345569,-238,50,44,3621,235,-7198,1745226522080743349
345761,-257,65,35,3726,222,-7291,1745226522080743349
345953,-279,74,33,3683,362,-7329,1745226522080743349
346145,-301,92,37,3653,494,-7164,1745226522080743349
346337,-318,112,37,3700,500,-6912,1745226522080743349
346529,-341,117,36,3874,406,-6829,1745226522080743349
346721,-366,105,28,3989,478,-7064,1745226522080743349
346913,-386,119,33,4025,753,-6832,1745226522080743349
347105,-421,104,30,3923,867,-6758,1745226522080743349
347297,-429,103,35,3931,912,-6878,1745226522141834562
347489,-438,85,34,3804,963,-7065,1745226522141834562
347681,-445,92,28,3665,1074,-6990,1745226522141834562
347873,-461,105,22,3566,1082,-6768,1745226522141834562
348065,-471,115,27,3678,1011,-6728,1745226522141834562
348257,-466,103,33,3829,959,-6930,1745226522141834562
348449,-456,78,22,3748,985,-7157,1745226522141834562
348641,-462,68,-4,3450,1036,-7074,1745226522141834562
348833,-461,63,-9,3313,1003,-7416,1745226522141834562
349025,-462,88,8,3329,993,-7345,1745226522141834562
349217,-468,89,14,3454,962,-7349,1745226522141834562
349409,-424,48,35,3630,1013,-8818,1745226522141834562
349601,-335,-96,58,3005,1285,-11641,1745226522215039831
349793,-400,-134,-55,1464,2005,-10846,1745226522215039831
349985,-523,-60,-129,1401,2248,-9834,1745226522215039831
350177,-604,-71,-87,1921,2177,-8889,1745226522215039831
350369,-577,-82,-45,2315,2094,-8350,1745226522215039831
350561,-511,-66,-59,2295,1988,-7990,1745226522215039831
350753,-481,-47,-82,2177,1742,-7624,1745226522215039831
350945,-463,-57,-58,2200,1390,-7375,1745226522215039831
351137,-424,-97,-3,2253,975,-7172,1745226522215039831
351329,-360,-121,16,2261,695,-7211,1745226522215039831
351521,-311,-140,-12,2146,704,-7357,1745226522215039831
351713,-289,-148,-42,2054,825,-7486,1745226522215039831
351905,-259,-139,-49,2223,984,-7611,1745226522254546866
352097,-202,-119,-36,2652,1092,-7753,1745226522254546866
352289,-143,-106,-16,3140,1095,-7915,1745226522254546866
352481,-107,-94,-5,3360,964,-8060,1745226522254546866
352673,-93,-85,-4,3301,794,-8178,1745226522254546866
352865,-90,-73,-4,3047,684,-8091,1745226522254546866
353057,-84,-47,1,2831,561,-7808,1745226522254546866
353249,-72,-3,3,2797,332,-7596,1745226522254546866
353441,-62,33,3,2937,61,-7589,1745226522254546866
353633,-65,60,-1,3080,-116,-7514,1745226522254546866
353825,-85,84,-14,3201,-169,-7506,1745226522254546866
354017,-127,99,-34,3287,-12,-7634,1745226522254546866
354209,-180,107,-50,3265,347,-7560,1745226522314955480
354401,-216,119,-58,3245,751,-7263,1745226522314955480
354593,-230,129,-62,3307,1057,-7031,1745226522314955480
354785,-220,125,-64,3423,1230,-6947,1745226522314955480
354977,-193,111,-69,3489,1296,-6906,1745226522314955480
355169,-163,55,-96,3339,1307,-7058,1745226522314955480
355361,-110,77,-126,3322,1445,-7440,1745226522314955480
355553,-90,73,-96,3292,1570,-7508,1745226522314955480
355745,-100,47,-80,3121,1527,-7536,1745226522314955480
355937,-75,60,-69,3064,1387,-7648,1745226522314955480
356129,-47,63,-71,2976,1233,-7469,1745226522314955480
356321,-33,72,-78,3001,1011,-7248,1745226522314955480
356513,-27,69,-80,3152,795,-7060,1745226522371245643
356705,-26,56,-83,3268,638,-6922,1745226522371245643
356897,-36,41,-92,3337,575,-6936,1745226522371245643
357089,-59,24,-98,3345,665,-7141,1745226522371245643
357281,-86,5,-95,3262,878,-7256,1745226522371245643
357473,-111,-3,-89,3151,1095,-7050,1745226522371245643
357665,-118,-9,-79,3146,1183,-6835,1745226522371245643
357857,-107,-30,-71,3278,1141,-6713,1745226522371245643
358049,-89,-54,-78,3384,1134,-6662,1745226522371245643
358241,-77,-75,-90,3403,1189,-6838,1745226522371245643
358433,-75,-102,-94,3377,1372,-7090,1745226522371245643
358625,-79,-123,-96,3301,1644,-7342,1745226522371245643
358817,-83,-136,-95,3215,1900,-7469,1745226522426348838
359009,-77,-141,-91,3123,2005,-7482,1745226522426348838
359201,-54,-142,-81,3111,1935,-7491,1745226522426348838
359393,-23,-146,-70,3090,1728,-7379,1745226522426348838
359585,6,-145,-63,3087,1381,-7307,1745226522426348838
359777,21,-143,-58,3089,979,-7304,1745226522426348838
359969,17,-146,-54,3055,705,-7208,1745226522426348838
360161,-6,-149,-53,3064,615,-7215,1745226522426348838
360353,-48,-155,-64,3096,816,-7221,1745226522426348838
360545,-91,-162,-78,3115,1226,-7305,1745226522426348838
360737,-117,-172,-82,3083,1737,-7457,1745226522426348838
360929,-111,-183,-80,3117,2186,-7546,1745226522426348838
361121,-65,-191,-73,3175,2356,-7572,1745226522489876747
361313,-1,-194,-66,3232,2174,-7502,1745226522489876747
361505,53,-195,-62,3253,1785,-7328,1745226522489876747
361697,77,-202,-59,3197,1383,-6963,1745226522489876747
361889,79,-206,-62,3090,1108,-6763,1745226522489876747
362081,68,-206,-68,3005,1102,-7043,1745226522489876747
362273,48,-210,-72,2890,1333,-7548,1745226522489876747
362465,40,-205,-73,2744,1637,-7991,1745226522489876747
362657,51,-184,-73,2707,1719,-8336,1745226522489876747
362849,71,-158,-73,2757,1683,-8500,1745226522489876747
363041,70,-130,-76,2756,1626,-8220,1745226522489876747
363233,52,-97,-73,2760,1515,-7750,1745226522489876747
363425,53,-77,-60,2847,1384,-7647,1745226522546155035
363617,82,-77,-56,2831,1287,-7634,1745226522546155035
363809,129,-77,-70,2850,1111,-7631,1745226522546155035
364001,173,-80,-79,2935,875,-7747,1745226522546155035
364193,218,-108,-62,2746,580,-8039,1745226522546155035
364385,234,-110,-57,2299,318,-7768,1745226522546155035
364577,234,-90,-59,2303,149,-8120,1745226522546155035
364769,210,-93,-65,2299,315,-8190,1745226522546155035
364961,185,-89,-90,2343,614,-8129,1745226522546155035
365153,176,-69,-104,2636,814,-8139,1745226522546155035
365345,203,-72,-86,2696,927,-8101,1745226522546155035
365537,259,-79,-52,2256,779,-8250,1745226522546155035
365729,269,-52,-41,2028,431,-8002,1745226522614755398
365921,215,-15,-57,2493,294,-7646,1745226522614755398
366113,131,-5,-82,3232,712,-7228,1745226522614755398
366305,73,-10,-103,3523,1463,-6930,1745226522614755398
366497,80,1,-104,3375,2091,-6935,1745226522614755398
366689,127,10,-100,3280,2389,-7040,1745226522614755398
366881,184,9,-102,3373,2366,-7216,1745226522614755398
367073,229,1,-112,3383,2166,-7205,1745226522614755398
367265,247,2,-127,3420,1968,-7204,1745226522614755398
367457,231,1,-144,3570,1962,-7189,1745226522614755398
367649,219,-8,-160,3596,2207,-7200,1745226522614755398
367841,234,-16,-168,3506,2356,-7264,1745226522614755398
368033,283,-16,-160,3213,2119,-7577,1745226522663532869
368225,335,-16,-133,2775,1542,-7745,1745226522663532869
368417,342,-18,-119,2656,952,-7911,1745226522663532869
368609,294,-24,-124,2648,702,-7866,1745226522663532869
368801,229,-15,-125,2576,862,-7886,1745226522663532869
368993,194,-1,-110,2583,1242,-7997,1745226522663532869
369185,215,3,-101,2711,1588,-8150,1745226522663532869
369377,261,2,-107,2736,1666,-8176,1745226522663532869
369569,292,5,-97,2630,1376,-8083,1745226522663532869
369761,295,12,-61,2530,929,-7962,1745226522663532869
369953,280,21,-36,2538,669,-7817,1745226522663532869
370145,261,25,-35,2654,688,-7849,1745226522663532869
370337,258,20,-52,2894,1034,-7932,1745226522741725332
370529,271,2,-77,3007,1410,-7987,1745226522741725332
370721,293,-11,-94,2879,1677,-7974,1745226522741725332
370913,324,-20,-93,2674,1648,-8065,1745226522741725332
371105,361,-21,-83,2523,1492,-8154,1745226522741725332
371297,395,-22,-80,2497,1278,-8234,1745226522741725332
371489,411,-24,-90,2589,1135,-8162,1745226522741725332
371681,400,-31,-106,2639,1081,-8124,1745226522741725332
371873,390,-36,-117,2616,1231,-8192,1745226522741725332
372065,393,-47,-123,2530,1369,-8170,1745226522741725332
372257,418,-55,-127,2508,1361,-8256,1745226522741725332
372449,444,-60,-125,2468,1159,-8249,1745226522741725332
372641,450,-59,-115,2468,801,-8110,1745226522780128106
372833,425,-48,-116,2795,731,-7985,1745226522780128106
373025,377,-43,-126,2883,1088,-8068,1745226522780128106
373217,365,-38,-125,2755,1544,-8326,1745226522780128106
373409,393,-40,-123,2500,1625,-8412,1745226522780128106
373601,437,-41,-119,2375,1238,-8127,1745226522780128106
373793,459,-36,-109,2478,679,-7720,1745226522780128106
373985,450,-27,-92,2636,291,-7358,1745226522780128106
374177,420,-20,-78,2845,120,-7154,1745226522780128106
374369,390,-23,-82,3146,402,-7204,1745226522780128106
374561,385,-37,-105,3242,1078,-7440,1745226522780128106
374753,405,-56,-121,2945,1407,-7780,1745226522780128106
374945,452,-57,-120,2633,1240,-8039,1745226522839854904
375137,492,-47,-105,2531,751,-7960,1745226522839854904
375329,508,-27,-89,2585,205,-7865,1745226522839854904
375521,496,-11,-73,2610,-117,-7752,1745226522839854904
375713,460,-3,-70,2907,-45,-7664,1745226522839854904
375905,422,-12,-83,3113,469,-7664,1745226522839854904
376097,404,-23,-99,3218,1073,-7719,1745226522839854904
376289,415,-37,-109,3098,1416,-7668,1745226522839854904
376481,450,-41,-108,2925,1332,-7543,1745226522839854904
376673,485,-31,-101,2950,995,-7404,1745226522839854904
376865,507,-15,-94,3083,641,-7242,1745226522839854904
377057,512,3,-89,3231,419,-7216,1745226522839854904
377249,504,17,-86,3293,387,-7345,1745226522900392789
377441,486,18,-85,3155,365,-7555,1745226522900392789
377633,482,25,-85,3018,463,-7735,1745226522900392789
377825,474,26,-90,2936,545,-7606,1745226522900392789
378017,466,30,-94,3060,573,-7343,1745226522900392789
378209,462,33,-90,3132,625,-7323,1745226522900392789
378401,470,32,-83,3143,639,-7373,1745226522900392789
378593,484,28,-76,3196,523,-7345,1745226522900392789
378785,492,25,-71,3234,320,-7304,1745226522900392789
378977,479,26,-65,3246,127,-7383,1745226522900392789
379169,452,27,-66,3163,121,-7474,1745226522900392789
379361,432,25,-60,3156,253,-7536,1745226522900392789
379553,427,16,-47,3191,426,-7461,1745226522958650486
379745,442,15,-38,3097,382,-7433,1745226522958650486
379937,458,25,-32,2993,259,-7408,1745226522958650486
380129,468,32,-22,3022,99,-7284,1745226522958650486
380321,479,38,-11,3080,3,-7229,1745226522958650486
380513,499,45,1,2928,54,-7396,1745226522958650486
380705,524,64,19,2788,176,-7463,1745226522958650486
380897,549,99,46,2842,122,-7390,1745226522958650486
381089,575,132,72,3101,-115,-7088,1745226522958650486
381281,600,155,88,3397,-394,-7459,1745226522958650486
381473,602,151,110,2516,-421,-8512,1745226522958650486
381665,571,162,125,2208,-206,-8815,1745226522958650486
381857,557,165,125,2264,-84,-8140,1745226523014387216
382049,588,179,106,2868,-152,-7458,1745226523014387216
382241,637,184,81,3274,-308,-6954,1745226523014387216
382433,667,175,68,3422,-432,-7242,1745226523014387216
382625,659,161,70,3281,-399,-7380,1745226523014387216
382817,633,151,75,3523,-501,-7058,1745226523014387216
383009,613,146,71,3810,-601,-6668,1745226523014387216
383201,569,139,50,4150,-385,-6742,1745226523014387216
383393,514,115,25,4364,321,-7288,1745226523014387216
383585,463,72,-4,3784,1266,-7937,1745226523014387216
383777,444,48,-7,3500,1613,-8207,1745226523014387216
383969,492,27,3,3527,1224,-7630,1745226523014387216
384161,541,26,1,3713,363,-7173,1745226523073894485
384353,528,22,4,3790,-406,-6480,1745226523073894485
384545,482,22,0,4142,-734,-6234,1745226523073894485
384737,436,12,-18,4200,-560,-6228,1745226523073894485
384929,393,7,-24,3903,-203,-6820,1745226523073894485
385121,344,3,-7,3619,-8,-6856,1745226523073894485
385313,319,10,10,3817,9,-6736,1745226523073894485
385505,304,12,10,4078,27,-6457,1745226523073894485
385697,296,17,10,4224,202,-6526,1745226523073894485
385889,288,14,4,4558,355,-6464,1745226523073894485
386081,297,3,13,4507,195,-6644,1745226523073894485
386273,295,2,47,4141,-309,-6840,1745226523073894485
386465,271,13,91,3792,-888,-6767,1745226523133259203
386657,226,38,117,3920,-1273,-6598,1745226523133259203
386849,177,58,118,4251,-1251,-6293,1745226523133259203
387041,149,75,106,4412,-944,-6198,1745226523133259203
387233,141,93,100,4346,-686,-6319,1745226523133259203
387425,139,103,104,4233,-728,-6424,1745226523133259203
387617,131,114,121,4035,-991,-6531,1745226523133259203
387809,101,125,138,3855,-1219,-6673,1745226523133259203
388001,64,133,145,3776,-1249,-6590,1745226523133259203
388193,36,141,140,3753,-1147,-6668,1745226523133259203
388385,5,140,133,3549,-897,-7001,1745226523133259203
388577,-24,133,134,3377,-617,-7357,1745226523133259203
388769,-37,116,130,3418,-475,-7452,1745226523192296528
388961,-40,92,122,3376,-495,-7513,1745226523192296528
389153,-40,74,120,3228,-498,-7548,1745226523192296528
389345,-31,59,119,3158,-427,-7605,1745226523192296528
389537,-14,47,119,2970,-376,-7627,1745226523192296528
389729,-12,39,123,2841,-516,-7468,1745226523192296528
389921,-16,35,117,3022,-624,-7292,1745226523192296528
390113,-3,23,106,3156,-598,-7337,1745226523192296528
390305,16,12,95,3223,-605,-7411,1745226523192296528
390497,36,4,98,3254,-670,-7496,1745226523192296528
390689,47,1,111,3163,-832,-7670,1745226523192296528
390881,38,-1,122,3098,-967,-7539,1745226523192296528
391073,27,2,129,3178,-1041,-7393,1745226523247741334
391265,27,3,128,3228,-951,-7292,1745226523247741334
391457,36,-4,120,3322,-876,-7266,1745226523247741334
391649,37,-22,118,3281,-968,-7291,1745226523247741334
391841,31,-36,128,3337,-1217,-7420,1745226523247741334
392033,30,-54,131,3278,-1457,-7270,1745226523247741334
392225,12,-68,123,3123,-1586,-7285,1745226523247741334
392417,-33,-76,115,3040,-1519,-7115,1745226523247741334
392609,-67,-84,102,3350,-1290,-6941,1745226523247741334
392801,-80,-108,78,3435,-884,-7000,1745226523247741334
392993,-88,-133,68,3223,-315,-7260,1745226523247741334
393185,-84,-155,69,3212,28,-7320,1745226523247741334
393377,-58,-184,69,3106,-67,-7391,1745226523308178334
393569,-39,-193,77,2832,-412,-7347,1745226523308178334
393761,-36,-196,80,2917,-844,-7123,1745226523308178334
393953,-35,-196,71,3192,-1135,-7087,1745226523308178334
394145,-48,-195,60,3162,-1064,-7531,1745226523308178334
394337,-75,-196,57,3111,-675,-7707,1745226523308178334
394529,-72,-191,56,3038,-390,-8044,1745226523308178334
394721,-58,-183,61,2960,-502,-7833,1745226523308178334
394913,-33,-164,70,3240,-885,-7616,1745226523308178334
395105,-18,-147,70,3231,-1181,-7351,1745226523308178334
395297,-46,-132,67,3170,-1057,-7432,1745226523308178334
395489,-76,-120,66,3073,-687,-7664,1745226523308178334
395681,-82,-120,54,2827,-351,-7871,1745226523365219011
395873,-65,-112,43,2566,-237,-8046,1745226523365219011
396065,-33,-104,31,2604,-312,-7933,1745226523365219011
396257,13,-95,16,2676,-507,-7865,1745226523365219011
396449,41,-86,1,2703,-712,-7835,1745226523365219011
396641,52,-76,-4,2782,-825,-7715,1745226523365219011
396833,56,-71,-13,2817,-893,-7723,1745226523365219011
397025,52,-75,-22,2927,-971,-7597,1745226523365219011
397217,49,-82,-31,3185,-1015,-7369,1745226523365219011
397409,38,-90,-40,3248,-956,-7179,1745226523365219011
397601,24,-95,-40,3177,-814,-7212,1745226523365219011
397793,14,-101,-40,3157,-636,-7295,1745226523365219011
397985,22,-105,-45,3070,-575,-7312,1745226523425841583
398177,28,-111,-49,2966,-580,-7522,1745226523425841583
398369,27,-122,-54,2929,-670,-7532,1745226523425841583
398561,30,-140,-60,3013,-783,-7544,1745226523425841583
398753,22,-155,-66,2888,-749,-7756,1745226523425841583
398945,-1,-167,-72,2843,-599,-7663,1745226523425841583
399137,-4,-172,-79,2828,-532,-7735,1745226523425841583
399329,9,-173,-83,2652,-718,-7727,1745226523425841583
399521,22,-169,-87,2732,-1148,-7534,1745226523425841583
399713,30,-160,-86,2833,-1560,-7374,1745226523425841583
399905,0,-149,-82,2868,-1632,-7213,1745226523425841583
400097,-46,-129,-72,3024,-1297,-7109,1745226523425841583
400289,-66,-111,-76,3148,-869,-7146,1745226523481966018
400481,-49,-101,-76,2968,-675,-7302,1745226523481966018
400673,-29,-99,-57,2905,-763,-7417,1745226523481966018
400865,-28,-104,-35,2939,-965,-7459,1745226523481966018
401057,-40,-115,-22,2900,-947,-7569,1745226523481966018
401249,-53,-128,-29,2918,-733,-7600,1745226523481966018
401441,-59,-139,-43,2891,-552,-7602,1745226523481966018
401633,-55,-146,-47,2792,-478,-7644,1745226523481966018
401825,-47,-149,-52,2755,-491,-7548,1745226523481966018
402017,-40,-145,-57,2731,-621,-7571,1745226523481966018
402209,-35,-143,-53,2680,-751,-7614,1745226523481966018
402401,-18,-134,-56,2773,-882,-7496,1745226523481966018
402593,-5,-121,-63,2779,-901,-7622,1745226523543781391
402785,-14,-106,-67,2722,-649,-7815,1745226523543781391
402977,-19,-95,-69,2800,-405,-8029,1745226523543781391
403169,-6,-90,-68,2901,-400,-7975,1745226523543781391
403361,3,-84,-62,2875,-572,-7880,1745226523543781391
403553,-4,-76,-54,2806,-789,-7640,1745226523543781391
403745,-12,-68,-50,2812,-968,-7505,1745226523543781391
403937,-22,-61,-50,2730,-1092,-7415,1745226523543781391
404129,-36,-51,-50,2750,-1094,-7438,1745226523543781391
404321,-46,-41,-51,2809,-996,-7551,1745226523543781391
404513,-47,-37,-52,2753,-843,-7754,1745226523543781391
404705,-47,-34,-50,2703,-689,-7770,1745226523543781391
404897,-36,-27,-45,2725,-710,-7683,1745226523600648736
405089,-19,-17,-41,2646,-852,-7685,1745226523600648736
405281,-9,-24,-39,2215,-988,-6340,1745226523600648736
405473,-44,21,-41,3036,-1615,-8070,1745226523600648736
405665,13,40,-29,3485,30,-7396,1745226523600648736
405857,59,20,-20,2128,-146,-7572,1745226523600648736
406049,50,34,-22,2703,-945,-7607,1745226523600648736
406241,33,15,-19,2946,-655,-7919,1745226523600648736
406433,38,21,-23,2426,-115,-7810,1745226523600648736
406625,74,24,-40,2551,-215,-7590,1745226523600648736
406817,102,22,-54,2881,-539,-7493,1745226523600648736
407009,103,22,-48,2936,-913,-7490,1745226523600648736
407201,93,22,-42,2914,-1130,-7594,1745226523658118263
407393,79,20,-51,2856,-1084,-7677,1745226523658118263
407585,62,26,-53,2783,-926,-7762,1745226523658118263
407777,54,37,-53,2848,-681,-7804,1745226523658118263
407969,57,44,-63,2872,-491,-7927,1745226523658118263
408161,63,50,-67,2846,-476,-7953,1745226523658118263
408353,59,52,-60,2857,-790,-7833,1745226523658118263
408545,34,55,-54,2820,-1127,-7545,1745226523658118263
408737,-4,59,-55,2944,-1232,-7417,1745226523658118263
408929,-31,62,-64,3071,-967,-7503,1745226523658118263
409121,-50,58,-84,2993,-575,-7765,1745226523658118263
409313,-74,53,-91,2927,-449,-7828,1745226523658118263
409505,-87,56,-88,2953,-577,-7735,1745226523720894252
409697,-94,59,-88,2904,-715,-7640,1745226523720894252
409889,-101,61,-93,2958,-573,-7596,1745226523720894252
410081,-96,71,-100,2919,-368,-7556,1745226523720894252
410273,-85,72,-107,2957,-583,-7479,1745226523720894252
410465,-92,58,-107,3193,-1227,-7368,1745226523720894252
410657,-129,47,-107,3034,-1460,-7337,1745226523720894252
410849,-162,56,-104,2769,-1045,-7586,1745226523720894252
411041,-170,73,-107,2662,-459,-7622,1745226523720894252
411233,-144,91,-104,2832,-236,-7518,1745226523720894252
411425,-109,92,-98,2967,-427,-7486,1745226523720894252
411617,-101,83,-91,2790,-563,-7586,1745226523720894252
411809,-113,83,-79,2610,-565,-7615,1745226523789447324
412001,-111,88,-79,2627,-637,-7638,1745226523789447324
412193,-124,103,-98,2632,-1093,-7533,1745226523789447324
412385,-147,100,-107,2891,-1073,-7349,1745226523789447324
412577,-159,95,-102,2979,-795,-7271,1745226523789447324
412769,-163,82,-103,2884,-697,-7238,1745226523789447324
412961,-162,88,-109,2845,-742,-7216,1745226523789447324
413153,-156,93,-113,3035,-597,-7295,1745226523789447324
413345,-141,89,-114,3135,-295,-7404,1745226523789447324
413537,-113,90,-107,3087,17,-7462,1745226523789447324
413729,-84,88,-89,2981,135,-7631,1745226523789447324
413921,-61,88,-68,2870,111,-7727,1745226523789447324
414113,-40,83,-54,3039,111,-7654,1745226523833113800
414305,-20,67,-65,3328,107,-7540,1745226523833113800
414497,2,42,-73,3093,-14,-7760,1745226523833113800
414689,4,20,-60,2835,-213,-7797,1745226523833113800
414881,-8,-1,-43,2865,-521,-7620,1745226523833113800
415073,-23,-10,-38,2924,-624,-7458,1745226523833113800
415265,-30,4,-38,2878,-535,-7351,1745226523833113800
415457,-13,11,-44,2946,-465,-7312,1745226523833113800
415649,15,8,-52,3096,-505,-7359,1745226523833113800
415841,29,1,-51,3166,-692,-7333,1745226523833113800
416033,27,5,-40,2896,-894,-7475,1745226523833113800
416225,13,28,-34,2662,-787,-7651,1745226523833113800
416417,-2,42,-36,2621,-711,-7806,1745226523894274543
416609,-20,52,-43,2647,-938,-7688,1745226523894274543
416801,-39,45,-47,2931,-1251,-7522,1745226523894274543
416993,-60,32,-53,2848,-1422,-7465,1745226523894274543
417185,-97,32,-53,2854,-1400,-7469,1745226523894274543
417377,-131,16,-59,3132,-1184,-7511,1745226523894274543
417569,-169,-27,-88,3293,-828,-7462,1745226523894274543
417761,-202,-84,-117,3193,-523,-7933,1745226523894274543
417953,-216,-55,-98,2906,-458,-7910,1745226523894274543
418145,-219,-42,-71,2779,-468,-7858,1745226523894274543
418337,-226,-49,-47,2796,-605,-7527,1745226523894274543
418529,-205,-46,-24,2917,-841,-7338,1745226523894274543
492257,-93,-19,23,2493,-986,-7140,1745226525822300680
492449,-66,59,1,3191,-1226,-7737,1745226525822300680
492641,-92,28,21,2810,-847,-7704,1745226525822300680
492833,-106,43,15,2813,-816,-7728,1745226525822300680
493025,-113,-2,12,2870,-750,-7739,1745226525822300680
493217,-147,18,23,2729,-677,-7609,1745226525822300680
493409,-136,19,29,2725,-785,-7459,1745226525822300680
493601,-150,19,33,2738,-925,-7345,1745226525822300680
493793,-156,47,38,2779,-925,-7326,1745226525822300680
493985,-143,43,33,2750,-710,-7367,1745226525822300680
494177,-145,39,29,2714,-472,-7491,1745226525822300680
494369,-138,43,28,2740,-311,-7697,1745226525822300680
494561,-132,27,26,2657,-257,-8001,1745226525881678784
494753,-122,20,20,2636,-346,-8142,1745226525881678784
494945,-101,17,17,2582,-506,-8148,1745226525881678784
495137,-81,11,12,2575,-654,-8059,1745226525881678784
495329,-60,16,-2,2571,-622,-7879,1745226525881678784
495521,-28,19,-15,2660,-413,-7784,1745226525881678784
495713,3,19,-30,2823,-232,-7796,1745226525881678784
495905,28,13,-38,2933,-210,-7724,1745226525881678784
496097,54,3,-33,3041,-228,-7719,1745226525881678784
496289,82,-8,-22,3039,-228,-7524,1745226525881678784
496481,120,-6,-13,3089,-315,-7068,1745226525881678784
496673,126,28,-22,3326,-766,-7046,1745226525881678784
496865,171,1,2,3029,574,-6637,1745226525940234811
497057,194,49,-3,3169,-108,-7599,1745226525940234811
497249,214,144,21,3087,-503,-7229,1745226525940234811
497441,197,69,43,2925,-900,-7876,1745226525940234811
497633,93,79,48,1966,-3558,-8603,1745226525940234811
497825,-354,182,-14,3372,-5339,-6744,1745226525940234811
498017,-387,5,64,2994,544,-7871,1745226525940234811
498209,-279,60,20,2236,2675,-8256,1745226525940234811
498401,-64,62,3,2549,1856,-8179,1745226525940234811
498593,62,101,28,2564,-390,-8111,1745226525940234811
498785,52,122,31,2947,-1639,-7713,1745226525940234811
498977,12,99,-15,3136,-1183,-7584,1745226525940234811
499169,-48,85,-49,2908,-531,-7863,1745226525997867983
499361,-67,78,-51,2122,-396,-8736,1745226525997867983
499553,-163,96,54,1765,-1944,-7813,1745226525997867983
499745,-285,114,108,4120,-2907,-7220,1745226525997867983
499937,-287,42,80,3332,-1703,-6189,1745226525997867983
500129,-311,83,24,2442,455,-6884,1745226525997867983
500321,-203,89,-22,2662,1249,-7642,1745226525997867983
500513,-83,105,-14,2909,143,-7298,1745226525997867983
500705,-62,97,18,3092,-1260,-7358,1745226525997867983
500897,-131,67,39,2790,-1209,-7740,1745226525997867983
501089,-171,40,22,2500,-289,-8113,1745226525997867983
501281,-137,26,-10,2416,36,-7807,1745226525997867983
501473,-85,31,-28,2582,-313,-7475,1745226526056438229
501665,-50,30,-44,2754,-520,-7393,1745226526056438229
501857,-31,25,-59,2871,-666,-7498,1745226526056438229
502049,-34,12,-69,3055,-750,-7378,1745226526056438229
502241,-50,3,-70,3104,-706,-7315,1745226526056438229
502433,-69,1,-68,3159,-446,-7313,1745226526056438229
502625,-74,3,-67,3158,-201,-7402,1745226526056438229
502817,-61,8,-59,3167,-232,-7550,1745226526056438229
503009,-40,14,-48,3032,-526,-7687,1745226526056438229
503201,-35,21,-34,3018,-889,-7569,1745226526056438229
503393,-44,27,-22,3023,-1012,-7363,1745226526056438229
503585,-63,32,-18,3011,-675,-7322,1745226526056438229
503777,-73,30,-23,2857,-97,-7469,1745226526112905213
503969,-57,20,-30,2681,202,-7796,1745226526112905213
504161,-23,0,-38,2512,31,-8009,1745226526112905213
504353,2,-18,-43,2413,-513,-7862,1745226526112905213
504545,5,-29,-46,2602,-959,-7668,1745226526112905213
504737,-3,-35,-46,2726,-977,-7434,1745226526112905213
504929,-24,-35,-45,2824,-714,-7491,1745226526112905213
505121,-35,-30,-37,2845,-389,-7539,1745226526112905213
505313,-26,-23,-35,2948,-114,-7754,1745226526112905213
505505,-13,-20,-35,2843,103,-8275,1745226526112905213
505697,-6,-24,-32,2684,294,-8732,1745226526112905213
505889,12,-23,-30,2578,179,-8283,1745226526112905213
506081,32,-7,-32,2617,-264,-7892,1745226526174053092
506273,42,5,-39,2547,-602,-7847,1745226526174053092
506465,46,3,-47,2599,-740,-7984,1745226526174053092
506657,53,1,-52,2573,-718,-7829,1745226526174053092
506849,52,6,-50,2525,-501,-7846,1745226526174053092
507041,54,17,-43,2557,-174,-7877,1745226526174053092
507233,76,30,-37,2635,-102,-7819,1745226526174053092
507425,104,40,-34,2625,-256,-7757,1745226526174053092
507617,117,44,-30,2644,-417,-7784,1745226526174053092
507809,123,41,-23,2592,-580,-7754,1745226526174053092
508001,119,36,-18,2545,-662,-7895,1745226526174053092
508193,106,28,-15,2460,-598,-7978,1745226526174053092
508385,98,20,-15,2376,-502,-8092,1745226526229802948
508577,102,19,-18,2397,-499,-8115,1745226526229802948
508769,116,22,-24,2517,-514,-8169,1745226526229802948
508961,132,21,-31,2579,-467,-8202,1745226526229802948
509153,145,20,-36,2567,-434,-8203,1745226526229802948
509345,153,24,-39,2534,-477,-8145,1745226526229802948
509537,164,25,-46,2465,-507,-8074,1745226526229802948
509729,179,21,-52,2337,-635,-8117,1745226526229802948
509921,191,16,-54,2258,-817,-8186,1745226526229802948
510113,190,12,-54,2308,-862,-8223,1745226526229802948
510305,188,12,-52,2410,-723,-8177,1745226526229802948
510497,187,20,-45,2507,-483,-8262,1745226526229802948
510689,200,39,-29,2537,-236,-8417,1745226526292581593
510881,228,64,-13,2565,-154,-8454,1745226526292581593
511073,263,99,2,2670,-232,-8494,1745226526292581593
511265,291,133,21,2720,-300,-8232,1745226526292581593
511457,311,175,41,2752,-379,-8184,1745226526292581593
511649,320,214,57,2813,-370,-8088,1745226526292581593
511841,330,251,66,2982,-291,-8063,1745226526292581593
512033,346,280,66,3194,-140,-7818,1745226526292581593
512225,357,306,66,3469,-105,-7693,1745226526292581593
512417,358,322,76,3748,-131,-7405,1745226526292581593
512609,346,337,86,4014,-238,-7085,1745226526292581593
512801,326,349,100,4304,-336,-6577,1745226526292581593
512993,294,364,116,4499,-492,-6161,1745226526346498340
513185,263,383,137,4677,-639,-5758,1745226526346498340
513377,233,401,153,4898,-737,-5376,1745226526346498340
513569,197,414,164,5065,-797,-4994,1745226526346498340
513761,154,430,175,5196,-862,-4843,1745226526346498340
513953,105,440,189,5259,-935,-5124,1745226526346498340
514145,49,438,210,5175,-851,-5786,1745226526346498340
514337,-13,430,239,4864,-686,-6375,1745226526346498340
514529,-77,423,263,4534,-476,-6681,1745226526346498340
514721,-121,413,271,4350,-293,-6913,1745226526346498340
514913,-121,401,280,4137,-123,-7237,1745226526346498340
515105,-126,387,271,4171,-241,-8216,1745226526346498340
515297,-198,301,229,3963,-137,-9100,1745226526406934975
515489,-293,264,201,2447,699,-8805,1745226526406934975
515681,-389,296,151,2898,1188,-9050,1745226526406934975
515873,-280,300,101,3354,1437,-7995,1745226526406934975
516065,-170,249,3,4011,883,-9433,1745226526406934975
516257,-141,254,6,2054,576,-7143,1745226526406934975
516449,-189,416,87,2824,-1120,-5861,1745226526406934975
516641,34,532,174,4172,-3114,-2669,1745226526406934975
516833,248,591,114,5588,-4754,-3703,1745226526406934975
517025,126,574,37,5622,-4993,-5506,1745226526406934975
517217,-78,584,61,4905,-3998,-6297,1745226526406934975
517409,-210,590,89,4439,-2581,-6074,1745226526406934975
517601,-315,568,56,4362,-1343,-6294,1745226526465486003
517793,-419,543,27,4293,-17,-7090,1745226526465486003
517985,-488,518,71,3944,1105,-7435,1745226526465486003
518177,-471,483,146,3751,1525,-7426,1745226526465486003
518369,-371,420,192,3814,1302,-6865,1745226526465486003
518561,-257,351,190,3820,550,-5875,1745226526465486003
518753,-192,337,162,3808,-407,-4599,1745226526465486003
518945,-184,371,122,3969,-1317,-3607,1745226526465486003
519137,-207,409,66,4551,-1838,-3660,1745226526465486003
519329,-258,404,14,5191,-1692,-3955,1745226526465486003
519521,-349,366,-16,5600,-1209,-4218,1745226526465486003
519713,-457,296,-10,5745,-701,-4580,1745226526465486003
519905,-556,204,24,5550,-217,-4829,1745226526523613336
520097,-617,110,62,5069,163,-4752,1745226526523613336
520289,-646,13,67,4628,305,-4687,1745226526523613336
520481,-658,-106,39,4471,232,-4782,1745226526523613336
520673,-654,-267,-9,4441,-24,-4811,1745226526523613336
520865,-656,-445,-66,4367,-537,-5238,1745226526523613336
521057,-682,-597,-120,3963,-1112,-6086,1745226526523613336
521249,-720,-706,-146,3027,-1477,-6666,1745226526523613336
521441,-736,-764,-152,2007,-1636,-7295,1745226526523613336
521633,-733,-786,-163,1252,-1648,-8291,1745226526523613336
521825,-714,-788,-170,733,-1593,-9353,1745226526523613336
522017,-656,-765,-165,270,-1490,-10469,1745226526523613336
522209,-585,-712,-156,-116,-1332,-11486,1745226526587292599
522401,-527,-644,-148,-395,-1121,-12276,1745226526587292599
522593,-472,-572,-131,-675,-802,-12897,1745226526587292599
522785,-430,-488,-104,-999,-474,-13314,1745226526587292599
522977,-380,-406,-72,-1268,-269,-13667,1745226526587292599
523169,-287,-329,-54,-1407,-28,-13863,1745226526587292599
523361,-171,-255,-66,-1381,245,-13829,1745226526587292599
523553,-59,-189,-81,-1248,430,-13528,1745226526587292599
523745,45,-133,-73,-958,494,-12716,1745226526587292599
523937,150,-78,-57,-496,388,-11912,1745226526587292599
524129,255,-34,-54,8,263,-11409,1745226526587292599
524321,365,-8,-57,403,217,-11219,1745226526587292599
524513,476,3,-53,566,123,-10985,1745226526641872569
524705,570,18,-43,595,-267,-10335,1745226526641872569
524897,641,54,-37,704,-861,-9886,1745226526641872569
525089,681,83,-32,853,-1299,-10042,1745226526641872569
525281,691,95,-35,1067,-1162,-9655,1745226526641872569
525473,686,106,-60,1632,-755,-8567,1745226526641872569
525665,718,122,-99,2445,-300,-7815,1745226526641872569
525857,776,136,-141,2883,185,-7738,1745226526641872569
526049,815,123,-171,2890,632,-9249,1745226526641872569
526241,813,54,-166,2492,1001,-9853,1745226526641872569
526433,831,3,-126,2127,862,-9782,1745226526641872569
526625,865,-17,-106,1873,346,-9426,1745226526641872569
526817,872,-7,-126,1968,-91,-9096,1745226526710658503
527009,876,0,-150,2499,-162,-8407,1745226526710658503
527201,904,-2,-171,3263,-104,-7811,1745226526710658503
527393,930,-20,-190,3749,-145,-7463,1745226526710658503
527585,934,-32,-190,3794,-301,-7164,1745226526710658503
527777,917,-25,-162,3734,-625,-6669,1745226526710658503
527969,890,8,-134,3824,-1023,-5945,1745226526710658503
528161,858,60,-123,4138,-1299,-5234,1745226526710658503
528353,825,113,-123,4617,-1413,-4611,1745226526710658503
528545,792,151,-131,5235,-1360,-4067,1745226526710658503
528737,763,168,-144,5859,-1195,-3468,1745226526710658503
528929,737,170,-153,6523,-1078,-2874,1745226526710658503
529121,715,160,-145,6988,-1108,-2549,1745226526755754185
529313,666,143,-114,7081,-1284,-2334,1745226526755754185
529505,558,133,-77,7187,-1454,-2141,1745226526755754185
529697,433,120,-40,7637,-1493,-1689,1745226526755754185
529889,330,88,-18,8252,-1360,-1259,1745226526755754185
530081,236,41,6,8595,-1312,-995,1745226526755754185
530273,128,-9,61,8488,-1384,-1092,1745226526755754185
530465,-3,-60,147,8134,-1626,-1605,1745226526755754185
530657,-160,-117,235,7563,-1879,-2537,1745226526755754185
530849,-336,-174,314,6758,-1854,-3263,1745226526755754185
531041,-520,-222,363,5934,-1485,-3966,1745226526755754185
531233,-690,-264,366,5475,-724,-3962,1745226526755754185
531425,-780,-285,310,6053,213,-3669,1745226526827565768
531617,-713,-417,89,6663,904,-3791,1745226526827565768
531809,-714,-481,190,7156,904,-4134,1745226526827565768
532001,-755,-585,481,6609,556,-4100,1745226526827565768
532193,-862,-737,393,4864,-912,-5256,1745226526827565768
532385,-943,-808,318,3991,-1772,-6406,1745226526827565768
532577,-1063,-842,366,3953,-1703,-7258,1745226526827565768
532769,-1136,-861,371,3792,-1035,-7530,1745226526827565768
532961,-1087,-853,311,3137,-628,-7007,1745226526827565768
533153,-956,-787,216,2831,-1002,-6908,1745226526827565768
533345,-845,-729,109,2877,-1762,-7334,1745226526827565768
533537,-777,-692,42,2940,-2287,-7686,1745226526827565768
533729,-747,-642,19,2459,-2423,-7944,1745226526874034250
533921,-771,-560,-9,1585,-2235,-8606,1745226526874034250
534113,-822,-456,-31,972,-1713,-9265,1745226526874034250
534305,-843,-351,-42,931,-1046,-9573,1745226526874034250
534497,-841,-267,-67,1121,-470,-9635,1745226526874034250
534689,-820,-197,-102,1177,-17,-9848,1745226526874034250
534881,-781,-151,-136,1093,478,-10049,1745226526874034250
535073,-728,-117,-162,820,821,-10501,1745226526874034250
535265,-675,-84,-183,308,833,-10655,1745226526874034250
535457,-631,-44,-201,-32,566,-10744,1745226526874034250
535649,-579,-28,-213,-132,380,-11069,1745226526874034250
535841,-525,-27,-222,-391,387,-11258,1745226526874034250
536033,-472,-13,-241,-696,566,-11470,1745226526937546326
536225,-409,2,-240,-973,891,-11790,1745226526937546326
536417,-320,20,-214,-1256,1089,-11974,1745226526937546326
536609,-202,37,-196,-1411,1063,-12019,1745226526937546326
536801,-76,45,-187,-1468,853,-11895,1745226526937546326
536993,34,59,-175,-1330,659,-11582,1745226526937546326
537185,130,79,-157,-995,538,-10978,1745226526937546326
537377,224,101,-145,-560,375,-10703,1745226526937546326
537569,310,119,-133,-65,329,-10520,1745226526937546326
537761,396,128,-115,320,296,-10468,1745226526937546326
537953,482,131,-91,361,78,-10553,1745226526937546326
538145,554,135,-65,359,-319,-10163,1745226526937546326
538337,601,150,-48,607,-882,-9469,1745226526990969380
538529,622,164,-45,856,-1378,-9333,1745226526990969380
538721,603,159,-61,962,-1394,-9115,1745226526990969380
538913,576,153,-88,1464,-934,-8437,1745226526990969380
539105,584,145,-116,2270,-322,-7815,1745226526990969380
539297,631,129,-149,2929,165,-7310,1745226526990969380
539489,684,121,-184,3179,347,-6716,1745226526990969380
539681,712,115,-196,3153,212,-7748,1745226526990969380
539873,687,59,-164,2796,222,-8775,1745226526990969380
540065,653,2,-113,2448,84,-8697,1745226526990969380
540257,636,-29,-80,2204,-377,-8238,1745226526990969380
540449,605,-38,-76,2298,-776,-7805,1745226526990969380
540641,573,-50,-85,2870,-700,-7300,1745226527048932079
540833,575,-78,-103,3561,-394,-6949,1745226527048932079
541025,607,-118,-125,3811,-176,-6951,1745226527048932079
541217,631,-155,-129,3630,-213,-6908,1745226527048932079
541409,630,-165,-106,3451,-493,-6848,1745226527048932079
541601,610,-154,-78,3567,-882,-6613,1745226527048932079
541793,592,-140,-65,3985,-1201,-6100,1745226527048932079
541985,579,-129,-73,4400,-1424,-5563,1745226527048932079
542177,547,-116,-86,4709,-1509,-5172,1745226527048932079
542369,493,-107,-96,5035,-1486,-4747,1745226527048932079
542561,436,-100,-104,5397,-1403,-4462,1745226527048932079
542753,378,-88,-107,5772,-1256,-4244,1745226527048932079
542945,317,-85,-108,6132,-1061,-3960,1745226527110868597
543137,254,-92,-107,6482,-858,-3689,1745226527110868597
543329,189,-97,-94,6737,-719,-3465,1745226527110868597
543521,151,-112,-104,6708,-206,-3678,1745226527110868597
543713,241,-187,-340,6330,-416,-3163,1745226527110868597
543905,1,22,9,7882,-1699,-3111,1745226527110868597
544097,-219,-73,165,7032,-2006,-3358,1745226527110868597
544289,-323,-190,53,6035,-1206,-4194,1745226527110868597
544481,-408,-215,60,5558,-551,-4639,1745226527110868597
544673,-544,-191,115,5050,-386,-4604,1745226527110868597
544865,-671,-173,77,5461,-61,-4476,1745226527110868597
545057,-728,-230,36,6785,586,-4756,1745226527110868597
545249,-676,-352,30,6923,1271,-5309,1745226527164859406
545441,-592,-505,-62,5324,1243,-5722,1745226527164859406
545633,-608,-465,8,4309,-266,-5953,1745226527164859406
545825,-743,-363,197,4111,-1599,-6803,1745226527164859406
546017,-884,-405,151,3552,-1686,-7438,1745226527164859406
546209,-934,-386,122,3333,-1032,-7619,1745226527164859406
546401,-954,-361,100,2853,-554,-7385,1745226527164859406
546593,-903,-295,66,2687,-509,-6638,1745226527164859406
546785,-828,-226,22,2971,-926,-6711,1745226527164859406
546977,-778,-182,-4,3205,-1260,-7106,1745226527164859406
547169,-761,-156,-5,2924,-1342,-7419,1745226527164859406
547361,-769,-114,0,2218,-1305,-7671,1745226527164859406
547553,-816,-66,13,1796,-1328,-7996,1745226527225383592
547745,-860,-28,14,2025,-903,-8219,1745226527225383592
547937,-887,-14,10,2096,-277,-8167,1745226527225383592
548129,-893,3,2,1867,122,-7974,1745226527225383592
548321,-873,11,-16,1910,436,-8195,1745226527225383592
548513,-826,-8,-42,1963,952,-8615,1745226527225383592
548705,-750,-24,-51,1677,1529,-9113,1745226527225383592
548897,-665,-21,-36,1073,1712,-9404,1745226527225383592
549089,-595,0,-19,540,1402,-9806,1745226527225383592
549281,-551,14,-9,409,938,-10173,1745226527225383592
549473,-525,11,0,592,601,-10224,1745226527225383592
549665,-504,6,13,576,393,-10166,1745226527225383592
549857,-487,12,26,267,338,-10271,1745226527282030835
550049,-467,10,31,92,526,-10505,1745226527282030835
550241,-414,3,31,-47,790,-10787,1745226527282030835
550433,-335,0,39,-815,466,-11081,1745226527282030835
550625,-266,4,33,-1400,-154,-10836,1745226527282030835
550817,-221,3,4,-1291,-411,-10694,1745226527282030835
551009,-180,-11,-13,-1124,6,-10752,1745226527282030835
551201,-107,-33,-17,-1258,614,-11005,1745226527282030835
551393,-8,-43,-20,-1587,822,-11143,1745226527282030835
551585,89,-24,-19,-1465,594,-10595,1745226527282030835
551777,164,2,-20,-762,326,-10250,1745226527282030835
551969,217,0,-24,52,607,-10056,1745226527282030835
552161,291,-21,-25,379,1148,-10091,1745226527343661002
552353,404,-26,-18,-123,1107,-10267,1745226527343661002
552545,505,-3,-13,-544,285,-10216,1745226527343661002
552737,543,31,-10,-69,-586,-9837,1745226527343661002
552929,538,44,-9,955,-903,-9191,1745226527343661002
553121,532,28,-17,1335,-902,-8992,1745226527343661002
553313,536,13,-36,1186,-642,-9034,1745226527343661002
553505,555,21,-52,1274,-412,-8541,1745226527343661002
553697,584,51,-71,1741,-565,-7845,1745226527343661002
553889,613,76,-89,2380,-708,-7291,1745226527343661002
554081,622,98,-108,2931,-559,-6609,1745226527343661002
554273,619,114,-117,2989,-391,-6999,1745226527343661002
554465,616,93,-119,2979,39,-7913,1745226527399870749
554657,640,51,-119,2658,359,-8333,1745226527399870749
554849,655,35,-98,2197,-189,-8107,1745226527399870749
555041,621,37,-65,2379,-967,-7749,1745226527399870749
555233,556,22,-48,2941,-988,-7538,1745226527399870749
555425,508,-7,-39,3087,-405,-7460,1745226527399870749
555617,498,-24,-37,2850,76,-7484,1745226527399870749
555809,514,-29,-40,2704,3,-7490,1745226527399870749
556001,532,-24,-34,2777,-403,-7285,1745226527399870749
556193,533,-13,-16,3037,-908,-6944,1745226527399870749
556385,510,-4,-4,3227,-1186,-6585,1745226527399870749
556577,470,4,1,3423,-1126,-6420,1745226527399870749
556769,431,4,-7,3679,-755,-6369,1745226527459112239
556961,409,-4,-28,3897,-316,-6274,1745226527459112239
557153,403,-10,-46,3981,18,-6299,1745226527459112239
557345,397,-18,-53,4033,67,-6302,1745226527459112239
557537,395,-20,-50,4168,-56,-6267,1745226527459112239
557729,405,-27,-49,4302,-212,-5787,1745226527459112239
557921,354,-10,-18,4711,-886,-5715,1745226527459112239
558113,279,-31,-37,4593,-1327,-5285,1745226527459112239
558305,210,-17,-6,4951,-766,-5206,1745226527459112239
558497,153,7,44,5020,-293,-5254,1745226527459112239
558689,123,19,42,4980,-55,-5269,1745226527459112239
558881,137,26,28,5061,-3,-5332,1745226527459112239
559073,125,59,52,5115,-609,-5429,1745226527520950215
559265,55,86,93,4888,-1053,-5820,1745226527520950215
559457,-33,77,107,4651,-726,-6412,1745226527520950215
559649,-98,82,146,4561,-359,-6538,1745226527520950215
559841,-145,95,171,3987,-313,-6691,1745226527520950215
560033,-202,115,178,3527,-161,-6201,1745226527520950215
560225,-278,148,148,4218,459,-5683,1745226527520950215
560417,-309,147,94,5323,1561,-6020,1745226527520950215
560609,-219,102,75,5285,2022,-7220,1745226527520950215
560801,-107,63,102,4267,506,-7706,1745226527520950215
560993,-142,67,157,3685,-1831,-7188,1745226527520950215
561185,-348,84,211,4128,-2441,-6241,1745226527520950215
561377,-524,85,223,4648,-1310,-5738,1745226527574560194
561569,-563,69,191,4255,35,-6251,1745226527574560194
561761,-519,59,165,3306,327,-7500,1745226527574560194
561953,-479,56,163,2749,-551,-8054,1745226527574560194
562145,-477,57,175,2400,-2012,-8030,1745226527574560194
562337,-525,55,190,2321,-2660,-8018,1745226527574560194
562529,-577,45,179,1994,-2091,-7970,1745226527574560194
562721,-609,58,148,1681,-1095,-7918,1745226527574560194
562913,-588,95,120,1752,-403,-7866,1745226527574560194
563105,-530,139,96,1835,-233,-7966,1745226527574560194
563297,-465,171,83,2016,-196,-7901,1745226527574560194
563489,-415,196,88,2020,-243,-8172,1745226527574560194
563681,-377,208,107,1906,-279,-8547,1745226527636562909
563873,-349,212,121,1639,-140,-8846,1745226527636562909
564065,-348,217,127,1398,145,-9010,1745226527636562909
564257,-342,217,133,1325,500,-8998,1745226527636562909
564449,-298,212,129,1294,759,-9120,1745226527636562909
564641,-234,204,117,1130,806,-9272,1745226527636562909
564833,-176,195,114,1014,617,-9505,1745226527636562909
565025,-130,179,117,913,394,-9675,1745226527636562909
565217,-100,163,116,874,227,-9797,1745226527636562909
565409,-74,151,113,785,229,-9845,1745226527636562909
565601,-46,149,104,659,195,-9735,1745226527636562909
565793,-10,150,86,791,127,-9598,1745226527636562909
565985,35,142,62,993,210,-9627,1745226527693982749
566177,88,129,49,921,348,-9649,1745226527693982749
566369,138,125,42,844,301,-9379,1745226527693982749
566561,193,140,43,1016,1,-8971,1745226527693982749
566753,232,169,40,1426,-204,-8771,1745226527693982749
566945,256,198,38,1833,-85,-8686,1745226527693982749
567137,296,227,44,1968,60,-8820,1745226527693982749
567329,351,263,56,1668,-136,-9057,1745226527693982749
567521,371,309,63,1575,-481,-9085,1745226527693982749
567713,356,349,71,1802,-563,-8843,1745226527693982749
567905,345,390,73,2152,-317,-8661,1745226527693982749
568097,363,425,70,2051,-59,-9025,1745226527693982749
568289,403,461,80,1636,8,-9632,1745226527754531832
568481,463,502,93,1815,-208,-9087,1745226527754531832
568673,547,564,87,2379,-754,-7687,1745226527754531832
568865,586,645,76,2723,-1097,-7513,1745226527754531832
569057,587,710,83,2815,-560,-8003,1745226527754531832
569249,629,762,84,2792,431,-8355,1745226527754531832
569441,719,819,71,2777,928,-8584,1745226527754531832
569633,827,873,69,2935,807,-8643,1745226527754531832
569825,933,923,75,3103,336,-8454,1745226527754531832
570017,998,968,78,3327,-182,-8080,1745226527754531832
570209,1024,1016,78,3610,-529,-7688,1745226527754531832
570401,1039,1073,75,3995,-550,-7468,1745226527754531832
570593,1041,1119,72,4211,-338,-7378,1745226527810359811
570785,1026,1201,81,4132,-75,-7381,1745226527810359811
570977,974,1306,108,4535,19,-7351,1745226527810359811
571169,946,1411,128,5554,43,-6129,1745226527810359811
571361,974,1543,134,6142,-80,-5708,1745226527810359811
571553,916,1627,120,6295,-266,-6849,1745226527810359811
571745,772,1684,134,5868,-346,-7056,1745226527810359811
571937,656,1737,149,5508,-504,-7315,1745226527810359811
572129,560,1780,158,5038,-676,-6834,1745226527810359811
572321,563,1760,36,5426,-1190,-7626,1745226527810359811
572513,569,1592,-232,5531,-1980,-7669,1745226527810359811
572705,597,1497,-375,5835,-2450,-7604,1745226527810359811
572897,688,1288,-428,5932,-2587,-7108,1745226527869510469
573089,712,1038,-536,5691,-2735,-6051,1745226527869510469
573281,689,779,-660,5412,-3057,-4681,1745226527869510469
573473,612,504,-757,5239,-3527,-3928,1745226527869510469
573665,394,243,-790,4656,-4166,-2572,1745226527869510469
573857,94,63,-691,4474,-5237,-1518,1745226527869510469
574049,-81,-161,-612,4146,-5669,-606,1745226527869510469
574241,-269,-333,-596,3621,-5372,-105,1745226527869510469
574433,-477,-482,-623,3050,-4765,266,1745226527869510469
574625,-690,-598,-657,2518,-4257,443,1745226527869510469
574817,-873,-689,-621,2168,-3767,-16,1745226527869510469
575009,-993,-814,-478,2562,-3154,-1378,1745226527869510469
575201,-1071,-896,-382,2968,-2762,-3072,1745226527942313866
575393,-1209,-957,-382,2733,-2211,-4588,1745226527942313866
575585,-1320,-994,-355,2344,-1472,-5909,1745226527942313866
575777,-1350,-1030,-304,1946,-522,-6877,1745226527942313866
575969,-1399,-1020,-189,1791,601,-7744,1745226527942313866
576161,-1428,-976,-53,2060,1786,-8534,1745226527942313866
576353,-1392,-977,42,2443,2715,-8829,1745226527942313866
576545,-1257,-976,101,2767,3275,-9011,1745226527942313866
576737,-1026,-973,143,3187,3287,-9082,1745226527942313866
576929,-741,-981,156,3390,2811,-8877,1745226527942313866
577121,-472,-906,159,3245,1980,-8937,1745226527942313866
577313,-321,-727,216,2700,955,-9154,1745226527942313866
577505,-290,-527,336,2330,71,-9439,1745226527990749934
577697,-265,-415,430,2467,-383,-9438,1745226527990749934
577889,-175,-297,414,2893,-458,-9564,1745226527990749934
578081,-55,-165,288,3711,-318,-10214,1745226527990749934
578273,92,-71,123,4304,53,-10468,1745226527990749934
578465,247,12,-1,4223,550,-10193,1745226527990749934
578657,330,125,-70,3491,893,-9785,1745226527990749934
578849,343,249,-101,3190,986,-9990,1745226527990749934
579041,385,336,-99,3817,1182,-10028,1745226527990749934
579233,474,386,-101,4415,1382,-9668,1745226527990749934
579425,516,433,-112,4074,1400,-9518,1745226527990749934
579617,490,481,-78,3525,1255,-9933,1745226527990749934
579809,488,519,-4,3517,1052,-9902,1745226528042627273
580001,541,560,28,3957,708,-9314,1745226528042627273
580193,598,608,-9,4101,160,-8536,1745226528042627273
580385,619,666,-58,3866,-463,-8063,1745226528042627273
580577,587,714,-72,3847,-1015,-7924,1745226528042627273
580769,519,731,-71,4077,-1340,-7597,1745226528042627273
580961,448,730,-78,4392,-1326,-7205,1745226528042627273
581153,387,712,-90,4407,-981,-6670,1745226528042627273
581345,315,707,-101,4250,-669,-6451,1745226528042627273
581537,237,696,-107,4221,-553,-6210,1745226528042627273
581729,181,653,-97,4469,-628,-5716,1745226528042627273
581921,150,572,-61,4825,-831,-5101,1745226528042627273
582113,132,480,-18,5141,-1062,-4699,1745226528104090357
582305,91,377,-4,5262,-1341,-4502,1745226528104090357
582497,25,252,-3,5377,-1610,-4423,1745226528104090357
582689,-51,104,16,5448,-1824,-4068,1745226528104090357
582881,-129,-44,49,5487,-1995,-3634,1745226528104090357
583073,-210,-174,69,5349,-1984,-3434,1745226528104090357
583265,-290,-286,77,5135,-1830,-3639,1745226528104090357
583457,-357,-402,89,5081,-1685,-4117,1745226528104090357
583649,-403,-533,111,5153,-1578,-4375,1745226528104090357
583841,-431,-666,131,5201,-1580,-4271,1745226528104090357
584033,-445,-803,142,5162,-1662,-4255,1745226528104090357
584225,-475,-948,153,5007,-1713,-4430,1745226528104090357
584417,-514,-1082,174,4708,-1594,-4635,1745226528160009378
584609,-544,-1186,202,4383,-1261,-4664,1745226528160009378
584801,-568,-1265,226,4154,-804,-4681,1745226528160009378
584993,-591,-1337,243,4120,-348,-4840,1745226528160009378
585185,-608,-1414,265,4269,17,-5094,1745226528160009378
585377,-617,-1508,297,4488,309,-5215,1745226528160009378
585569,-623,-1595,334,4455,513,-5188,1745226528160009378
585761,-637,-1646,365,4220,578,-5314,1745226528160009378
585953,-651,-1663,397,4009,525,-5823,1745226528160009378
586145,-630,-1648,424,3846,456,-6639,1745226528160009378
586337,-569,-1594,431,3521,353,-7557,1745226528160009378
586529,-488,-1503,413,2840,130,-8414,1745226528160009378
586721,-407,-1362,385,2331,-192,-9028,1745226528220635751
586913,-362,-1221,340,2126,-722,-9468,1745226528220635751
587105,-324,-1032,318,2277,-1275,-9559,1745226528220635751
587297,-330,-821,339,2485,-1582,-9821,1745226528220635751
587489,-386,-658,327,2382,-1673,-9743,1745226528220635751
587681,-428,-505,265,2256,-1684,-9526,1745226528220635751
587873,-451,-359,186,2426,-1611,-9066,1745226528220635751
588065,-477,-223,109,2791,-1566,-8151,1745226528220635751
588257,-502,-103,50,3154,-1631,-7193,1745226528220635751
588449,-520,-12,3,3565,-1570,-6818,1745226528220635751
588641,-533,43,-28,3726,-1220,-6932,1745226528220635751
588833,-546,71,-40,3511,-721,-7207,1745226528220635751
589025,-565,93,-41,3062,-231,-7290,1745226528278825480
589217,-586,122,-44,3094,177,-7294,1745226528278825480
589409,-582,133,-52,3445,517,-7333,1745226528278825480
589601,-554,131,-64,3506,811,-7434,1745226528278825480
589793,-536,122,-74,3278,946,-7761,1745226528278825480
589985,-549,118,-33,3063,864,-7940,1745226528278825480
590177,-592,104,37,2950,747,-7882,1745226528278825480
590369,-553,66,-1,2681,825,-8210,1745226528278825480
590561,-506,63,-94,2564,409,-7981,1745226528278825480
590753,-577,55,-23,2413,240,-7953,1745226528278825480
590945,-565,57,39,2018,742,-8277,1745226528278825480
591137,-521,73,-41,2093,778,-8305,1745226528278825480
591329,-435,38,-103,2140,587,-8483,1745226528340602207
591521,-376,41,-90,1792,338,-8967,1745226528340602207
591713,-368,47,-28,1476,426,-9036,1745226528340602207
591905,-344,49,-3,1583,770,-9229,1745226528340602207
592097,-298,44,-21,1925,1036,-9211,1745226528340602207
592289,-265,27,7,1899,1047,-9434,1745226528340602207
592481,-205,19,69,1290,962,-9813,1745226528340602207
592673,-175,27,91,803,575,-9782,1745226528340602207
592865,-173,16,74,811,388,-9576,1745226528340602207
593057,-172,14,54,1076,613,-9263,1745226528340602207
593249,-135,3,21,1075,922,-9346,1745226528340602207
593441,-60,-8,-11,694,1000,-9547,1745226528340602207
593633,16,-15,-39,338,691,-9562,1745226528393402975
593825,73,-18,-69,230,162,-9429,1745226528393402975
594017,122,-27,-104,399,-168,-9389,1745226528393402975
594209,169,-46,-154,641,-62,-9025,1745226528393402975
594401,223,-52,-201,1114,259,-8812,1745226528393402975
594593,291,-59,-225,1503,623,-8914,1745226528393402975
594785,366,-67,-226,1741,695,-8843,1745226528393402975
594977,433,-70,-214,1896,271,-8586,1745226528393402975
595169,479,-70,-193,2107,-384,-8153,1745226528393402975
595361,493,-62,-173,2294,-947,-7937,1745226528393402975
595553,471,-64,-154,2443,-1154,-7992,1745226528393402975
595745,423,-75,-141,2679,-865,-7886,1745226528393402975
595937,387,-88,-133,2781,-390,-7960,1745226528454640749
596129,375,-99,-119,2712,-47,-8091,1745226528454640749
596321,370,-108,-104,2573,-28,-8322,1745226528454640749
596513,357,-119,-91,2509,-99,-8164,1745226528454640749
596705,331,-121,-81,2537,-114,-8020,1745226528454640749
596897,312,-123,-70,2633,37,-7887,1745226528454640749
597089,312,-124,-73,2736,190,-7644,1745226528454640749
597281,330,-120,-86,2855,185,-7548,1745226528454640749
597473,340,-117,-92,3035,31,-7386,1745226528454640749
597665,337,-112,-94,3292,-147,-7111,1745226528454640749
597857,322,-107,-89,3449,-334,-7091,1745226528454640749
598049,293,-107,-79,3426,-431,-7134,1745226528454640749
598241,257,-108,-67,3313,-531,-7327,1745226528512027464
598433,219,-120,-55,3164,-536,-7654,1745226528512027464
598625,178,-136,-50,3054,-409,-7628,1745226528512027464
598817,145,-142,-49,3081,-243,-7489,1745226528512027464
599009,125,-149,-54,3219,-104,-7339,1745226528512027464
599201,120,-160,-63,3361,57,-7212,1745226528512027464
599393,131,-171,-68,3427,14,-7063,1745226528512027464
599585,144,-180,-65,3411,-271,-6853,1745226528512027464
599777,141,-176,-53,3411,-709,-6616,1745226528512027464
599969,113,-163,-42,3449,-954,-6448,1745226528512027464
600161,66,-144,-30,3591,-890,-6370,1745226528512027464
600353,32,-129,-21,3818,-650,-6220,1745226528512027464
600545,21,-116,-15,3968,-417,-6094,1745226528570626043
600737,4,-103,-10,3999,-279,-6056,1745226528570626043
600929,-21,-86,1,4157,-157,-5928,1745226528570626043
601121,-45,-73,11,4451,-121,-5816,1745226528570626043
601313,-67,-67,19,4688,-65,-5856,1745226528570626043
601505,-100,-69,33,4590,29,-6216,1745226528570626043
601697,-146,-70,56,4316,83,-6448,1745226528570626043
601889,-191,-64,74,4184,27,-6455,1745226528570626043
602081,-233,-56,85,4147,-48,-6566,1745226528570626043
602273,-278,-48,90,3965,-21,-6716,1745226528570626043
602465,-327,-41,88,3925,144,-6619,1745226528570626043
602657,-362,-36,77,4028,242,-6609,1745226528570626043
602849,-377,-41,73,3890,174,-6754,1745226528630562944
603041,-385,-45,75,3628,-34,-6831,1745226528630562944
603233,-407,-46,77,3342,-227,-7081,1745226528630562944
603425,-442,-42,79,3190,-171,-7328,1745226528630562944
603617,-465,-38,79,3160,102,-7354,1745226528630562944
603809,-463,-29,76,3130,333,-7493,1745226528630562944
604001,-445,-21,73,3013,364,-7471,1745226528630562944
604193,-418,-16,72,2815,234,-7749,1745226528630562944
604385,-402,-21,75,2390,149,-8339,1745226528630562944
604577,-408,-28,82,1978,266,-8660,1745226528630562944
604769,-411,-24,89,1651,342,-8645,1745226528630562944
604961,-395,-12,94,1386,184,-8990,1745226528630562944
605153,-384,-12,91,1208,136,-9074,1745226528686982064
605345,-377,-12,69,1336,230,-8829,1745226528686982064
605537,-347,-13,46,1394,346,-8727,1745226528686982064
605729,-297,-14,28,1368,418,-8761,1745226528686982064
605921,-246,-12,0,1374,530,-8721,1745226528686982064
606113,-211,4,-14,1455,407,-8750,1745226528686982064
606305,-172,15,-11,1438,514,-8796,1745226528686982064
606497,-125,17,-11,1484,412,-8663,1745226528686982064
606689,-73,16,-33,1460,189,-8663,1745226528686982064
606881,-44,24,-38,1380,89,-8761,1745226528686982064
607073,-35,32,-24,1370,102,-8756,1745226528686982064
607265,-27,32,-22,1529,180,-8682,1745226528686982064
607457,-14,21,-38,1700,205,-8460,1745226528749268370
607649,10,10,-57,1746,236,-8210,1745226528749268370
607841,28,6,-78,1714,292,-8014,1745226528749268370
608033,55,5,-74,1808,336,-8073,1745226528749268370
608225,97,7,-62,1842,184,-8091,1745226528749268370
608417,135,1,-60,1837,-297,-7985,1745226528749268370
608609,147,-4,-57,1886,-807,-7829,1745226528749268370
608801,124,-3,-42,2033,-941,-7795,1745226528749268370
608993,101,3,-44,2137,-519,-7757,1745226528749268370
609185,117,4,-73,2223,-2,-7945,1745226528749268370
609377,130,0,-98,2333,191,-8174,1745226528749268370
609569,150,-10,-92,2422,328,-8190,1745226528749268370
609761,174,-7,-86,2379,306,-8167,1745226528803164336
609953,185,-12,-85,2253,83,-8139,1745226528803164336
610145,189,-11,-82,2187,-125,-7980,1745226528803164336
610337,182,6,-74,2167,-317,-7835,1745226528803164336
610529,177,20,-62,2299,-460,-7767,1745226528803164336
610721,179,26,-54,2346,-498,-7779,1745226528803164336
610913,171,31,-55,2291,-454,-7898,1745226528803164336
611105,153,30,-58,2372,-253,-7981,1745226528803164336
611297,143,30,-62,2416,83,-7955,1745226528803164336
611489,151,28,-62,2393,321,-8013,1745226528803164336
611681,167,21,-60,2428,338,-8019,1745226528803164336
611873,185,15,-54,2430,163,-7874,1745226528803164336
612065,196,15,-46,2486,-90,-7621,1745226528863065611
612257,200,21,-39,2551,-249,-7557,1745226528863065611
612449,201,30,-34,2655,-205,-7551,1745226528863065611
612641,203,32,-30,2697,-87,-7614,1745226528863065611
612833,212,24,-31,2727,3,-7642,1745226528863065611
613025,219,14,-35,2642,77,-7522,1745226528863065611
613217,222,6,-38,2614,213,-7630,1745226528863065611
613409,225,-5,-41,2595,519,-7696,1745226528863065611
613601,243,-15,-41,2564,717,-7860,1745226528863065611
613793,273,-21,-35,2414,641,-8037,1745226528863065611
613985,296,-26,-24,2294,302,-8178,1745226528863065611
614177,299,-35,-16,2225,-52,-8242,1745226528863065611
614369,288,-47,-9,2017,-250,-8478,1745226528921502213
614561,267,-57,-6,1777,-210,-8536,1745226528921502213
614753,255,-70,-18,1771,-33,-8412,1745226528921502213
614945,269,-75,-34,1751,52,-8368,1745226528921502213
615137,293,-70,-58,2417,173,-7398,1745226528921502213
615329,351,-71,-78,2215,-164,-7550,1745226528921502213
615521,376,-66,-82,2245,-468,-8135,1745226528921502213
615713,382,-80,-89,2105,-684,-7950,1745226528921502213
615905,386,-65,-97,2337,-1119,-7753,1745226528921502213
616097,369,-58,-100,2593,-1525,-7242,1745226528921502213
616289,330,-46,-113,2921,-1696,-6978,1745226528921502213
616481,276,-50,-126,3100,-1500,-6567,1745226528921502213
616673,238,-50,-145,3597,-999,-6581,1745226528977998520
616865,219,-74,-177,3708,-222,-6175,1745226528977998520
617057,206,-71,-197,3589,317,-6706,1745226528977998520
617249,193,-97,-184,3604,626,-7400,1745226528977998520
617441,201,-112,-163,3297,524,-7410,1745226528977998520
617633,190,-119,-132,3098,-273,-7229,1745226528977998520
617825,149,-108,-89,3020,-1041,-7108,1745226528977998520
618017,82,-102,-62,3064,-1230,-6895,1745226528977998520
618209,29,-90,-67,3184,-805,-6896,1745226528977998520
618401,5,-84,-85,3132,-258,-6939,1745226528977998520
618593,12,-61,-91,3059,164,-7369,1745226528977998520
618785,35,-39,-81,2908,358,-7737,1745226528977998520
618977,59,-14,-66,2888,249,-8059,1745226529038340208
619169,69,3,-45,2799,-45,-8043,1745226529038340208
619361,57,17,-28,2858,-259,-7950,1745226529038340208
619553,29,24,-18,2899,-285,-7728,1745226529038340208
619745,1,27,-13,3023,-184,-7660,1745226529038340208
619937,-22,26,-11,3082,-96,-7453,1745226529038340208
620129,-44,27,-7,3206,-9,-7269,1745226529038340208
620321,-64,33,0,3241,109,-7140,1745226529038340208
620513,-79,45,11,3236,253,-7098,1745226529038340208
620705,-73,69,24,3207,218,-7061,1745226529038340208
620897,-56,97,35,3189,49,-7098,1745226529038340208
621089,-43,123,45,3164,-140,-7180,1745226529038340208
621281,-40,145,54,3188,-252,-7327,1745226529094757922
621473,-47,163,60,3109,-204,-7464,1745226529094757922
621665,-60,177,69,3014,-13,-7750,1745226529094757922
621857,-65,180,76,2925,158,-8072,1745226529094757922
622049,-64,176,80,2767,273,-8179,1745226529094757922
622241,-58,175,81,2686,252,-8147,1745226529094757922
622433,-50,172,76,2597,200,-8178,1745226529094757922
622625,-39,167,66,2459,153,-8135,1745226529094757922
622817,-24,161,52,2371,56,-8070,1745226529094757922
623009,-6,155,39,2368,-133,-7971,1745226529094757922
623201,10,150,29,2395,-318,-7802,1745226529094757922
623393,19,146,25,2475,-559,-7470,1745226529094757922
623585,0,139,17,2880,-289,-7634,1745226529158028177
623777,0,121,21,2647,298,-7651,1745226529158028177
623969,25,115,29,2624,416,-8042,1745226529158028177
624161,62,113,46,2471,129,-7707,1745226529158028177
624353,74,126,69,2727,-382,-7547,1745226529158028177
624545,71,133,94,2756,-481,-7423,1745226529158028177
624737,63,140,116,2730,-324,-7717,1745226529158028177
624929,77,148,136,2702,135,-7878,1745226529158028177
625121,80,149,154,2622,38,-8003,1745226529158028177
625313,98,149,169,2715,-43,-8016,1745226529158028177
625505,97,149,186,2672,-150,-7934,1745226529158028177
625697,95,146,199,2642,-196,-7800,1745226529158028177
625889,101,140,204,2651,-205,-7663,1745226529222321288
626081,107,131,210,2635,-265,-7474,1745226529222321288
626273,103,122,216,2614,-364,-7294,1745226529222321288
626465,95,114,229,2728,-440,-7152,1745226529222321288
626657,92,102,241,2797,-426,-7173,1745226529222321288
626849,89,88,255,2781,-373,-7248,1745226529222321288
627041,88,72,268,2721,-314,-7431,1745226529222321288
627233,85,57,277,2779,-186,-7612,1745226529222321288
627425,97,37,282,2740,-101,-7740,1745226529222321288
627617,112,26,285,2685,-84,-7843,1745226529222321288
627809,127,22,290,2711,-121,-7868,1745226529222321288
628001,142,23,292,2725,-315,-7952,1745226529222321288
628193,150,22,288,2690,-496,-7966,1745226529270570691
628385,146,28,281,2690,-607,-7877,1745226529270570691
628577,133,37,269,2750,-693,-7857,1745226529270570691
628769,128,37,251,2703,-744,-7801,1745226529270570691
628961,119,32,226,2772,-779,-7804,1745226529270570691
629153,105,24,204,2736,-679,-7709,1745226529270570691
629345,92,19,186,2785,-461,-7811,1745226529270570691
629537,91,11,172,2706,-255,-7882,1745226529270570691
629729,105,7,160,2639,-432,-7937,1745226529270570691
629921,112,7,149,2576,-736,-7802,1745226529270570691
630113,107,10,137,2671,-853,-7678,1745226529270570691
630305,99,11,127,2668,-812,-7620,1745226529270570691
630497,94,16,117,2645,-725,-7641,1745226529330782745
630689,94,18,102,2694,-708,-7620,1745226529330782745
630881,94,16,85,2752,-724,-7591,1745226529330782745
631073,84,6,67,2827,-643,-7672,1745226529330782745
631265,84,-2,57,2737,-517,-7746,1745226529330782745
631457,85,-8,49,2602,-658,-7941,1745226529330782745
631649,89,-13,44,2464,-936,-7766,1745226529330782745
631841,79,-15,29,2570,-1201,-7490,1745226529330782745
632033,61,-19,10,2628,-1157,-7271,1745226529330782745
632225,43,-22,-12,2692,-1237,-7414,1745226529330782745
632417,-25,-33,-19,2661,-1591,-7825,1745226529330782745
632609,-96,-60,17,2919,-1057,-7543,1745226529330782745
632801,-18,-67,5,2661,608,-7284,1745226529393957793
632993,92,-59,-83,2354,493,-7996,1745226529393957793
633185,76,-65,-74,2633,-1509,-8265,1745226529393957793
633377,23,-81,-8,2700,-1543,-7761,1745226529393957793
633569,68,-85,-24,2799,292,-7378,1745226529393957793
633761,127,-85,-84,2515,91,-7807,1745226529393957793
633953,97,-84,-52,2717,-1006,-7795,1745226529393957793
634145,104,-87,-30,2723,-245,-7372,1745226529393957793
634337,129,-87,-60,2692,-148,-7566,1745226529393957793
634529,104,-94,-44,2735,-435,-7637,1745226529393957793
634721,109,-106,-36,2762,13,-7590,1745226529393957793
634913,147,-116,-50,2609,-99,-7618,1745226529393957793
635105,147,-118,-41,2590,-682,-7808,1745226529453490114
635297,132,-124,-29,2596,-778,-7709,1745226529453490114
635489,135,-121,-34,2703,-789,-7635,1745226529453490114
635681,136,-113,-41,2833,-744,-7515,1745226529453490114
635873,135,-105,-45,2965,-530,-7542,1745226529453490114
636065,145,-95,-44,2936,-416,-7607,1745226529453490114
636257,153,-81,-37,2920,-554,-7592,1745226529453490114
636449,159,-71,-29,3006,-730,-7584,1745226529453490114
636641,162,-64,-17,2881,-1029,-7495,1745226529453490114
636833,133,-52,-7,2735,-1288,-7450,1745226529453490114
637025,99,-41,3,2701,-1386,-7221,1745226529453490114
637217,58,-30,-5,2893,-1362,-7189,1745226529453490114
637409,35,-22,-9,3091,-894,-7219,1745226529509507623
637601,22,-21,-5,3047,-559,-7357,1745226529509507623
637793,14,-19,-6,2951,-694,-7478,1745226529509507623
637985,5,-27,-4,3109,-585,-7479,1745226529509507623
638177,-10,-15,2,2799,-908,-7494,1745226529509507623
638369,-36,-7,-3,2974,-840,-7314,1745226529509507623
638561,-17,-18,8,3208,-189,-7422,1745226529509507623
638753,21,-8,28,2902,-304,-7199,1745226529509507623
638945,72,-25,28,3076,-357,-7281,1745226529509507623
639137,68,19,22,2983,-1132,-7125,1745226529509507623
639329,66,-20,29,3229,-549,-7431,1745226529509507623
639521,46,6,39,2984,-624,-7523,1745226529509507623
639713,40,-22,41,2676,-703,-7569,1745226529568167764
639905,16,-6,38,2719,-910,-7551,1745226529568167764
640097,18,-19,28,2610,-888,-7573,1745226529568167764
640289,-1,-1,15,2626,-1290,-7517,1745226529568167764
640481,-20,-22,15,2764,-1100,-7575,1745226529568167764
640673,-44,-26,28,2771,-970,-7697,1745226529568167764
640865,-65,-52,14,2162,-1552,-7425,1745226529568167764
641057,-104,14,0,2843,-1645,-7404,1745226529568167764
641249,-129,5,2,2747,-854,-7485,1745226529568167764
641441,-126,-9,2,2486,-504,-7697,1745226529568167764
641633,-139,6,-14,2504,-972,-7713,1745226529568167764
641825,-155,-3,-25,2661,-896,-7842,1745226529568167764
642017,-160,-23,-36,2559,-649,-7739,1745226529627820240
642209,-147,-29,-32,2404,-692,-7692,1745226529627820240
642401,-137,-36,-3,2666,-636,-7504,1745226529627820240
642593,-110,-46,6,2708,-401,-7532,1745226529627820240
642785,-91,-48,4,2653,-519,-7485,1745226529627820240
642977,-106,-52,-2,2722,-1064,-7563,1745226529627820240
643169,-153,-58,2,2741,-1192,-7557,1745226529627820240
643361,-184,-60,14,2687,-667,-7710,1745226529627820240
643553,-187,-63,17,2586,-229,-7683,1745226529627820240
643745,-170,-61,13,2553,-141,-7717,1745226529627820240
643937,-146,-61,9,2600,-277,-7721,1745226529627820240
644129,-123,-67,9,2660,-518,-7701,1745226529627820240
645665,-78,-90,32,2589,-549,-7844,1745226531605214416
719969,-20,-74,12,2496,-460,-7810,1745226531605214416
720161,37,-103,11,2431,-1019,-7872,1745226531605214416
720353,-80,-20,17,2446,-820,-7607,1745226531605214416
720545,-91,-29,26,2422,-823,-7548,1745226531605214416
720737,-95,-13,24,2540,-674,-7558,1745226531605214416
720929,-81,-26,30,2463,-564,-7629,1745226531605214416
721121,-84,-28,36,2437,-499,-7635,1745226531605214416
721313,-67,-16,36,2461,-467,-7678,1745226531605214416
721505,-46,-25,32,2529,-314,-7652,1745226531605214416
721697,-28,-25,28,2575,-166,-7669,1745226531605214416
721889,10,-27,24,2572,-97,-7613,1745226531605214416
722081,41,-32,20,2518,-387,-7657,1745226531660611514
722273,49,-26,20,2541,-742,-7672,1745226531660611514
722465,48,-22,23,2514,-1000,-7611,1745226531660611514
722657,37,-20,26,2488,-1091,-7650,1745226531660611514
722849,22,-20,22,2443,-1096,-7706,1745226531660611514
723041,10,-27,21,2314,-1105,-7844,1745226531660611514
723233,-11,-25,18,2343,-1256,-7928,1745226531660611514
723425,-28,-29,14,2363,-1133,-7979,1745226531660611514
723617,-16,-37,14,2224,-742,-8103,1745226531660611514
723809,39,-36,6,2191,-566,-8045,1745226531660611514
724001,100,-32,-8,2241,-729,-7844,1745226531660611514
724193,132,-26,-9,2293,-804,-7836,1745226531660611514
724385,146,-28,-6,2030,-1226,-7806,1745226531722447356
724577,118,-6,-10,3014,-394,-7637,1745226531722447356
724769,171,-45,8,2060,-550,-7799,1745226531722447356
724961,153,-13,-2,2668,-760,-8237,1745226531722447356
725153,124,96,12,2340,-822,-6969,1745226531722447356
725345,87,-4,22,2436,-1164,-7575,1745226531722447356
725537,39,-10,22,2414,-1417,-7453,1745226531722447356
725729,-76,17,24,1972,-2531,-7339,1745226531722447356
725921,-217,10,28,3389,-1121,-7563,1745226531722447356
726113,-174,-50,63,2385,387,-7629,1745226531722447356
726305,-106,-35,52,2568,158,-7543,1745226531722447356
726497,-62,-45,39,2641,-553,-7487,1745226531722447356
726689,-65,-34,55,2717,-805,-7527,1745226531775129374
726881,-63,-42,44,2653,-700,-7707,1745226531775129374
727073,-59,-55,20,2673,-608,-7663,1745226531775129374
727265,-57,-58,10,2744,-530,-7577,1745226531775129374
727457,-48,-52,6,2666,-577,-7610,1745226531775129374
727649,-40,-41,1,2617,-590,-7762,1745226531775129374
727841,-28,-32,-9,2693,-412,-7713,1745226531775129374
728033,-16,-21,-21,2776,-432,-7842,1745226531775129374
728225,-44,-7,7,2375,-1628,-8039,1745226531775129374
728417,-127,0,36,2805,-776,-7757,1745226531775129374
728609,-113,-9,-2,2415,151,-7790,1745226531775129374
728801,-105,14,-2,1944,-325,-8795,1745226531775129374
728993,-325,-6,78,1907,-2102,-8572,1745226531836297201
729185,-372,0,142,3430,-1360,-7160,1745226531836297201
729377,-150,-35,30,1789,-445,-7542,1745226531836297201
729569,-166,-4,-41,1843,247,-7640,1745226531836297201
729761,-117,1,-61,2674,269,-7654,1745226531836297201
729953,-52,2,-43,2820,-1081,-7524,1745226531836297201
730145,-117,-20,-7,2662,-1508,-7547,1745226531836297201
730337,-166,-34,-10,2651,-126,-7694,1745226531836297201
730529,-95,-31,-51,2436,748,-7849,1745226531836297201
730721,2,-10,-85,2369,79,-7822,1745226531836297201
730913,29,8,-88,2590,-829,-7661,1745226531836297201
731105,10,14,-78,2626,-1030,-7824,1745226531836297201
731297,-14,8,-77,2542,-743,-8018,1745226531890432956
731489,-28,1,-85,2316,-363,-8145,1745226531890432956
731681,-26,-2,-92,2165,-123,-8211,1745226531890432956
731873,-9,-6,-105,2226,-68,-8230,1745226531890432956
732065,13,-14,-114,2319,-103,-8150,1745226531890432956
732257,30,-27,-122,2375,-194,-8138,1745226531890432956
732449,38,-42,-130,2344,-224,-8081,1745226531890432956
732641,45,-51,-136,2543,-420,-7924,1745226531890432956
732833,57,-54,-136,2634,-652,-7695,1745226531890432956
733025,53,-61,-128,2755,-635,-7474,1745226531890432956
733217,45,-60,-114,2752,-630,-7457,1745226531890432956
733409,40,-52,-97,2772,-612,-7306,1745226531890432956
733601,39,-37,-85,2986,-565,-7265,1745226531950637250
733793,46,-22,-71,3168,-556,-7161,1745226531950637250
733985,45,-6,-52,3296,-621,-7105,1745226531950637250
734177,33,13,-27,3325,-759,-7011,1745226531950637250
734369,14,33,-5,3391,-867,-7098,1745226531950637250
734561,-14,46,15,3303,-842,-7333,1745226531950637250
734753,-44,52,31,3197,-708,-7388,1745226531950637250
734945,-66,61,43,3099,-687,-7267,1745226531950637250
735137,-95,67,51,3139,-718,-7347,1745226531950637250
735329,-127,65,59,3246,-681,-7405,1745226531950637250
735521,-153,59,69,3413,-645,-7337,1745226531950637250
735713,-180,51,85,3536,-529,-7092,1745226531950637250
735905,-220,44,106,3586,-322,-6849,1745226532012324916
736097,-265,48,133,3704,-214,-6645,1745226532012324916
736289,-292,59,158,3916,-248,-6561,1745226532012324916
736481,-299,70,171,4096,-224,-6523,1745226532012324916
736673,-300,84,182,4230,-88,-6453,1745226532012324916
736865,-304,99,190,4419,68,-6313,1745226532012324916
737057,-317,111,198,4453,110,-6242,1745226532012324916
737249,-336,128,210,4357,-42,-6300,1745226532012324916
737441,-359,142,219,4378,-320,-6403,1745226532012324916
737633,-378,155,218,4477,-568,-6361,1745226532012324916
737825,-401,165,212,4568,-683,-6277,1745226532012324916
738017,-428,172,210,4370,-631,-6412,1745226532012324916
738209,-454,169,209,3800,-365,-7162,1745226532065866614
738401,-469,148,200,3050,134,-8244,1745226532065866614
738593,-460,109,174,2239,610,-9164,1745226532065866614
738785,-459,78,149,1517,723,-8859,1745226532065866614
738977,-525,65,151,1314,337,-8455,1745226532065866614
739169,-537,48,187,1149,-339,-8359,1745226532065866614
739361,-466,82,194,1319,-1025,-7698,1745226532065866614
739553,-414,123,166,1479,-1981,-7235,1745226532065866614
739745,-411,164,145,1816,-2574,-7091,1745226532065866614
739937,-454,187,128,2209,-2534,-7073,1745226532065866614
740129,-518,193,103,2332,-1998,-7179,1745226532065866614
740321,-570,192,78,2194,-1201,-7393,1745226532065866614
740513,-590,187,59,1893,-376,-7750,1745226532127493916
740705,-583,178,46,1684,356,-8082,1745226532127493916
740897,-539,162,39,1485,844,-8282,1745226532127493916
741089,-469,149,39,1327,912,-8333,1745226532127493916
741281,-393,135,40,1314,623,-8405,1745226532127493916
741473,-337,110,28,1324,229,-8401,1745226532127493916
741665,-315,70,7,1318,39,-8559,1745226532127493916
741857,-316,27,-9,1156,164,-8783,1745226532127493916
742049,-309,-1,-18,931,450,-9013,1745226532127493916
742241,-262,-17,-23,702,601,-9309,1745226532127493916
742433,-182,-25,-25,622,359,-9605,1745226532127493916
742625,-108,-30,-30,611,-97,-9608,1745226532127493916
742817,-68,-31,-34,479,-591,-9554,1745226532190106469
743009,-59,-30,-34,295,-814,-9578,1745226532190106469
743201,-54,-26,-34,183,-512,-9711,1745226532190106469
743393,-25,-24,-41,73,-52,-9705,1745226532190106469
743585,16,-17,-49,232,128,-9358,1745226532190106469
743777,55,-7,-57,549,20,-8869,1745226532190106469
743969,86,0,-58,638,-105,-8571,1745226532190106469
744161,120,4,-58,679,-43,-8534,1745226532190106469
744353,176,6,-69,777,61,-8585,1745226532190106469
744545,253,8,-85,934,-98,-8575,1745226532190106469
744737,328,8,-96,1038,-542,-8620,1745226532190106469
744929,375,1,-101,1094,-861,-8689,1745226532190106469
745121,395,-5,-96,1262,-835,-8624,1745226532241156784
745313,398,-20,-102,1400,-649,-8535,1745226532241156784
745505,423,-28,-103,1673,-393,-8622,1745226532241156784
745697,463,-41,-102,1965,-166,-8626,1745226532241156784
745889,508,-54,-106,1934,4,-8687,1745226532241156784
746081,531,-62,-105,1803,245,-8812,1745226532241156784
746273,539,-63,-94,1887,507,-8777,1745226532241156784
746465,570,-60,-73,2105,496,-8664,1745226532241156784
746657,625,-54,-53,2457,25,-8243,1745226532241156784
746849,666,-38,-40,2911,-608,-7591,1745226532241156784
747041,665,-12,-27,3265,-967,-6997,1745226532241156784
747233,632,27,-15,3607,-810,-6441,1745226532241156784
747425,599,69,-8,4041,-408,-6283,1745226532301373317
747617,586,85,2,4219,-111,-7180,1745226532301373317
747809,562,55,26,3679,70,-8211,1745226532301373317
748001,511,28,66,2990,-56,-8287,1745226532301373317
748193,438,27,108,2711,-477,-7872,1745226532301373317
748385,375,33,125,2899,-650,-7608,1745226532301373317
748577,352,11,103,3674,-342,-7957,1745226532301373317
748769,365,-58,62,3245,196,-8450,1745226532301373317
748961,343,-118,23,2931,754,-9526,1745226532301373317
749153,295,-182,0,1651,1282,-9454,1745226532301373317
749345,275,-157,-23,1886,1189,-8643,1745226532301373317
749537,345,-104,-69,3077,36,-6751,1745226532301373317
749921,508,51,-142,4823,-2752,-3752,1745226532364564563
750113,402,136,-127,5226,-3098,-3498,1745226532364564563
750305,245,202,-83,5926,-2709,-3787,1745226532364564563
750497,126,218,-34,6481,-2181,-4272,1745226532364564563
750689,14,191,12,6278,-1568,-4698,1745226532364564563
750881,-142,151,64,5733,-535,-5228,1745226532364564563
751073,-294,110,109,5530,741,-5845,1745226532364564563
751265,-356,47,137,5616,1536,-6492,1745226532364564563
751457,-344,-41,140,5399,1482,-6577,1745226532364564563
751649,-350,-112,141,4749,784,-6226,1745226532364564563
751841,-407,-134,154,4140,105,-5678,1745226532364564563
752033,-467,-118,154,4300,-307,-5357,1745226532364564563
752225,-469,-95,135,4697,-786,-5235,1745226532424107092
752417,-445,-72,107,4983,-1380,-5156,1745226532424107092
752609,-475,-44,86,4865,-1696,-5147,1745226532424107092
752801,-573,-4,79,4538,-1461,-5353,1745226532424107092
752993,-680,44,77,4587,-782,-5828,1745226532424107092
753185,-729,78,64,4912,-174,-6170,1745226532424107092
753377,-722,102,43,5016,18,-6271,1745226532424107092
753569,-719,111,39,4297,-40,-6757,1745226532424107092
753761,-763,111,54,3225,186,-7944,1745226532424107092
753953,-802,114,66,2583,713,-8773,1745226532424107092
754145,-775,134,66,2395,728,-8507,1745226532424107092
754337,-714,188,57,2467,-221,-6960,1745226532424107092
754529,-704,261,45,2960,-1405,-5999,1745226532479667574
754721,-760,292,38,2955,-1627,-6422,1745226532479667574
754913,-799,287,26,2810,-654,-7536,1745226532479667574
755105,-770,264,14,2340,255,-8074,1745226532479667574
755297,-713,253,24,1935,-83,-8025,1745226532479667574
755489,-705,261,55,1652,-606,-7865,1745226532479667574
755681,-737,276,88,1729,-653,-7645,1745226532479667574
755873,-747,285,105,2035,-113,-7805,1745226532479667574
756065,-692,280,105,2127,552,-8056,1745226532479667574
756257,-614,269,88,1844,866,-8441,1745226532479667574
756449,-547,264,78,1445,799,-8560,1745226532479667574
756641,-501,265,91,1384,783,-8815,1745226532479667574
756833,-455,266,118,1330,781,-9111,1745226532544579377
757025,-393,248,129,1143,728,-9444,1745226532544579377
757217,-327,218,114,888,706,-9669,1745226532544579377
757409,-281,201,134,444,356,-9963,1745226532544579377
757601,-237,178,126,162,207,-10208,1745226532544579377
757793,-198,162,133,47,164,-10391,1745226532544579377
757985,-156,141,133,29,260,-10464,1745226532544579377
758177,-112,114,121,-113,334,-10603,1745226532544579377
758369,-60,92,109,-373,375,-10771,1745226532544579377
758561,7,76,90,-590,428,-10957,1745226532544579377
758753,90,62,67,-633,482,-11108,1745226532544579377
758945,175,51,47,-548,380,-10918,1745226532544579377
759137,250,50,33,-270,64,-10173,1745226532609022017
759329,305,55,25,99,-210,-9709,1745226532609022017
759521,356,53,19,419,-54,-9464,1745226532609022017
759713,417,46,4,730,173,-9185,1745226532609022017
759905,480,45,-6,1050,247,-9114,1745226532609022017
760097,532,31,-7,1275,174,-9346,1745226532609022017
760289,581,12,-2,1367,-14,-9076,1745226532609022017
760481,596,2,7,1495,-531,-8695,1745226532609022017
760673,559,-21,17,1777,-704,-8792,1745226532609022017
760865,523,-71,19,1979,7,-8699,1745226532609022017
761057,554,-105,5,2020,662,-8426,1745226532609022017
761249,625,-114,-5,2197,349,-7818,1745226532609022017
761441,666,-99,-5,2543,-290,-7051,1745226532657024443
761633,668,-58,13,3073,-613,-6811,1745226532657024443
761825,600,-90,51,3109,-796,-7660,1745226532657024443
762017,499,-155,92,2472,-453,-8866,1745226532657024443
762209,460,-214,92,2141,282,-9111,1745226532657024443
762401,509,-239,57,2010,466,-8566,1745226532657024443
762593,568,-234,11,2273,197,-8061,1745226532657024443
762785,595,-230,-21,2583,95,-8009,1745226532657024443
762977,617,-235,-39,2733,118,-8141,1745226532657024443
763169,643,-235,-49,2825,-149,-7972,1745226532657024443
763361,650,-223,-53,2941,-583,-7687,1745226532657024443
763553,625,-206,-51,3112,-778,-7403,1745226532657024443
763745,586,-198,-57,3273,-623,-7240,1745226532716768741
763937,556,-192,-68,3427,-372,-7088,1745226532716768741
764129,546,-181,-81,3642,-306,-6929,1745226532716768741
764321,550,-164,-95,3960,-463,-6565,1745226532716768741
764513,549,-142,-108,4361,-513,-5998,1745226532716768741
764705,533,-107,-118,4996,-499,-5276,1745226532716768741
764897,512,-62,-124,5718,-596,-4491,1745226532716768741
765089,480,-18,-121,6415,-795,-3884,1745226532716768741
765281,420,20,-105,7094,-808,-3389,1745226532716768741
765473,336,54,-68,7696,-713,-2861,1745226532716768741
765665,233,81,-15,8023,-822,-2476,1745226532716768741
765857,92,98,54,8288,-1158,-2357,1745226532716768741
766049,-91,90,141,8236,-1444,-2869,1745226532785460093
766241,-277,63,234,7691,-1301,-3237,1745226532785460093
766433,-449,42,312,6686,-1179,-3366,1745226532785460093
766625,-647,38,361,6430,-781,-2647,1745226532785460093
766817,-825,39,364,6890,336,-2456,1745226532785460093
767009,-897,-1,332,6238,1608,-4851,1745226532785460093
767201,-832,-111,174,5280,1189,-5876,1745226532785460093
767393,-770,3,404,5277,169,-5880,1745226532785460093
767585,-788,56,344,3868,-2537,-6162,1745226532785460093
767777,-892,-15,307,3698,-2610,-7413,1745226532785460093
767969,-1067,-59,391,2366,-1306,-8346,1745226532785460093
768161,-1132,-41,409,1603,-334,-8651,1745226532785460093
768353,-1057,12,344,2103,-171,-6828,1745226532832382998
768545,-904,104,279,2878,-735,-6734,1745226532832382998
768737,-800,148,258,2192,-373,-7993,1745226532832382998
768929,-730,170,238,1715,54,-9067,1745226532832382998
769121,-655,205,251,1638,-415,-9249,1745226532832382998
769313,-621,230,278,1495,-860,-9108,1745226532832382998
769505,-642,240,289,1427,-490,-9183,1745226532832382998
769697,-644,233,287,1138,170,-9209,1745226532832382998
769889,-586,235,266,1093,231,-9053,1745226532832382998
770081,-501,223,240,899,85,-9337,1745226532832382998
770273,-442,198,221,601,294,-9631,1745226532832382998
770465,-410,171,209,453,670,-9873,1745226532832382998
770657,-356,143,190,167,725,-10511,1745226532896042624
770849,-286,113,171,-391,440,-10744,1745226532896042624
771041,-243,89,143,-474,192,-10460,1745226532896042624
771233,-224,66,107,-276,729,-10404,1745226532896042624
771425,-179,38,75,-461,1666,-10929,1745226532896042624
771617,-80,1,45,-833,1812,-11394,1745226532896042624
771809,26,-34,11,-969,1208,-11352,1745226532896042624
772001,86,-66,-20,-913,911,-10959,1745226532896042624
772193,123,-85,-53,-622,1354,-10389,1745226532896042624
772385,184,-95,-89,-266,1737,-10350,1745226532896042624
772577,287,-111,-119,-4,1786,-10561,1745226532896042624
772769,415,-121,-140,341,1113,-10273,1745226532896042624
772961,527,-119,-145,714,136,-9765,1745226532955867651
773153,586,-120,-132,745,-529,-9823,1745226532955867651
773345,586,-149,-113,674,-551,-10350,1745226532955867651
773537,591,-189,-103,842,-327,-9945,1745226532955867651
773729,611,-219,-103,1260,-114,-9292,1745226532955867651
773921,646,-228,-117,1931,470,-8259,1745226532955867651
774113,694,-214,-132,2309,753,-8247,1745226532955867651
774305,756,-193,-132,2253,604,-8062,1745226532955867651
774497,810,-160,-114,2264,-157,-8788,1745226532955867651
774689,755,-210,-98,1856,-475,-9869,1745226532955867651
774881,700,-270,-92,1736,12,-9781,1745226532955867651
775073,691,-291,-96,1727,-27,-9220,1745226532955867651
775265,681,-296,-123,1660,55,-8922,1745226533007596137
775457,660,-297,-150,1763,609,-8882,1745226533007596137
775649,684,-302,-180,2042,792,-8936,1745226533007596137
775841,738,-298,-200,2237,273,-8618,1745226533007596137
776033,763,-283,-212,2339,-353,-8344,1745226533007596137
776225,768,-274,-218,2392,-819,-8005,1745226533007596137
776417,761,-261,-226,2633,-1234,-7413,1745226533007596137
776609,736,-253,-228,2780,-1290,-6981,1745226533007596137
776801,708,-238,-229,2911,-941,-6776,1745226533007596137
776993,693,-233,-239,3099,-946,-6773,1745226533007596137
777185,687,-233,-250,3252,-1130,-6451,1745226533007596137
777377,657,-231,-250,3194,-1157,-6321,1745226533007596137
777569,612,-233,-250,3234,-978,-6196,1745226533071411074
777761,561,-242,-268,3892,-860,-5813,1745226533071411074
777953,541,-255,-279,4297,-896,-5813,1745226533071411074
778145,536,-273,-278,4212,-1177,-6073,1745226533071411074
778337,505,-289,-268,4208,-1663,-5860,1745226533071411074
778529,445,-295,-264,4486,-1870,-5241,1745226533071411074
778721,374,-302,-261,4805,-1504,-5213,1745226533071411074
778913,328,-308,-270,5379,-1081,-5041,1745226533071411074
779105,318,-310,-265,5740,-1107,-5092,1745226533071411074
779297,300,-303,-239,5891,-1421,-4739,1745226533071411074
779489,252,-283,-203,6165,-1877,-4026,1745226533071411074
779681,172,-256,-154,6294,-2024,-3656,1745226533071411074
779873,98,-226,-113,6213,-1694,-3677,1745226533129751010
780065,24,-177,-70,6334,-2084,-3632,1745226533129751010
780257,-62,-116,-3,6078,-2105,-3486,1745226533129751010
780449,-169,-85,19,5465,-1928,-4463,1745226533129751010
780641,-293,-75,45,5047,-1065,-5357,1745226533129751010
780833,-360,-61,83,4382,-642,-5987,1745226533129751010
781025,-384,-44,96,3331,-599,-6431,1745226533129751010
781217,-458,-25,89,3246,-111,-6099,1745226533129751010
781409,-492,0,31,4333,804,-5570,1745226533129751010
781601,-460,-7,-17,4461,1441,-6846,1745226533129751010
781793,-394,-30,-16,3791,754,-8122,1745226533129751010
781985,-365,-33,3,3314,-907,-7802,1745226533129751010
782177,-427,-21,28,3384,-1582,-7255,1745226533186343827
782369,-532,-27,52,3129,-603,-7879,1745226533186343827
782561,-593,-44,79,2248,593,-9453,1745226533186343827
782753,-564,-60,66,1462,970,-9961,1745226533186343827
782945,-491,-40,49,1088,419,-10059,1745226533186343827
783137,-392,-13,13,1240,-282,-9391,1745226533186343827
783329,-327,26,21,896,-913,-9289,1745226533186343827
783521,-318,55,35,654,-968,-8969,1745226533186343827
783713,-324,88,49,640,-644,-8934,1745226533186343827
783905,-306,103,49,349,-120,-9360,1745226533186343827
784097,-242,109,14,292,88,-9548,1745226533186343827
784289,-175,119,-20,404,-127,-9308,1745226533186343827
784481,-125,116,-51,472,-259,-9102,1745226533271708463
784673,-90,103,-73,594,-326,-9211,1745226533271708463
784865,-55,78,-87,710,-216,-9630,1745226533271708463
785057,-27,40,-92,639,53,-9956,1745226533271708463
785249,-5,7,-96,384,321,-9823,1745226533271708463
785441,15,-2,-106,159,468,-9200,1745226533271708463
785633,75,33,-120,312,42,-8809,1745226533271708463
785825,159,42,-139,1087,-350,-9486,1745226533271708463
786017,245,13,-129,560,-862,-9898,1745226533271708463
786209,266,1,-108,407,-1389,-9024,1745226533271708463
786401,221,13,-91,606,-1137,-8555,1745226533271708463
786593,218,25,-82,1026,-374,-8480,1745226533271708463
786785,283,22,-92,1238,-88,-8800,1745226533301354547
786977,367,20,-95,1339,-517,-8440,1745226533301354547
787169,395,25,-93,1297,-897,-8101,1745226533301354547
787361,386,19,-78,1300,-959,-8292,1745226533301354547
787553,381,-1,-80,1819,-812,-8330,1745226533301354547
787745,395,-32,-77,2008,-788,-8420,1745226533301354547
787937,394,-63,-83,2102,-676,-8423,1745226533301354547
788129,379,-79,-88,2288,-488,-7732,1745226533301354547
788321,371,-75,-100,2669,-457,-7379,1745226533301354547
788513,389,-61,-110,2987,-629,-7032,1745226533301354547
788705,402,-44,-109,3405,-1050,-6768,1745226533301354547
788897,403,-31,-87,3367,-1686,-7156,1745226533301354547
789089,350,-31,-58,3107,-1886,-7269,1745226533366291558
789281,260,-44,-28,2828,-1588,-7516,1745226533366291558
789473,205,-40,-16,2831,-1117,-7067,1745226533366291558
789665,204,-23,-32,2967,-949,-6659,1745226533366291558
789857,214,-9,-56,3092,-842,-6634,1745226533366291558
790049,216,-7,-75,3242,-746,-6719,1745226533366291558
790241,215,-9,-79,3264,-874,-6840,1745226533366291558
790433,202,-6,-76,3486,-1032,-6794,1745226533366291558
790625,180,-6,-68,3823,-1012,-6619,1745226533366291558
790817,158,-10,-58,4076,-868,-6498,1745226533366291558
791009,135,-15,-48,4289,-767,-6302,1745226533366291558
791201,110,-10,-38,4590,-787,-6047,1745226533366291558
791393,70,-3,-24,4848,-771,-5745,1745226533420377626
791585,17,-2,-5,5210,-700,-5514,1745226533420377626
791777,-32,0,22,5374,-764,-5386,1745226533420377626
791969,-97,-3,54,5161,-936,-5570,1745226533420377626
792161,-183,-5,85,4873,-922,-5515,1745226533420377626
792353,-259,6,102,4850,-832,-5373,1745226533420377626
792545,-294,6,82,4500,-488,-5702,1745226533420377626
792737,-351,12,82,4637,-722,-5807,1745226533420377626
792929,-413,59,147,4190,-972,-5735,1745226533420377626
793121,-465,59,75,3959,-1551,-5771,1745226533420377626
793313,-547,60,67,4115,-1318,-5968,1745226533420377626
793505,-626,62,83,3689,-896,-6429,1745226533420377626
793697,-644,59,69,3566,-796,-6657,1745226533480564733
793889,-636,53,47,3356,-971,-6918,1745226533480564733
794081,-644,38,49,2691,-982,-7671,1745226533480564733
794273,-676,14,55,1857,-752,-8477,1745226533480564733
794465,-688,-14,54,1279,-580,-9046,1745226533480564733
794657,-656,-16,44,890,-701,-8557,1745226533480564733
794849,-598,11,21,895,-959,-8049,1745226533480564733
795041,-549,61,-4,1149,-801,-7617,1745226533480564733
795233,-501,103,-21,1425,-412,-8250,1745226533480564733
795425,-431,119,-22,1198,40,-9239,1745226533480564733
795617,-369,119,-8,868,103,-9717,1745226533480564733
795809,-333,118,9,726,-212,-9586,1745226533480564733
796001,-325,113,15,584,-255,-9405,1745226533540130386
796193,-318,98,-5,444,230,-9547,1745226533540130386
796385,-284,73,-42,287,767,-9851,1745226533540130386
796577,-219,43,-83,234,979,-10106,1745226533540130386
796769,-145,15,-117,161,752,-10155,1745226533540130386
796961,-80,-11,-143,122,313,-10129,1745226533540130386
797153,-29,-39,-158,62,-30,-10074,1745226533540130386
797345,9,-63,-161,43,15,-10062,1745226533540130386
797537,45,-75,-161,66,314,-9814,1745226533540130386
797729,99,-61,-158,318,431,-9521,1745226533540130386
797921,167,-43,-153,497,316,-9486,1745226533540130386
798113,238,-26,-146,659,80,-9279,1745226533540130386
798305,298,-4,-136,796,-373,-9085,1745226533595560036
798497,334,10,-127,1015,-596,-8849,1745226533595560036
798689,359,24,-121,1368,-601,-8540,1745226533595560036
798881,391,37,-115,1632,-666,-8250,1745226533595560036
799073,411,37,-111,1857,-751,-8186,1745226533595560036
799265,411,25,-105,1979,-844,-8251,1745226533595560036
799457,397,4,-97,2184,-794,-8093,1745226533595560036
799649,387,-14,-92,2338,-550,-7838,1745226533595560036
799841,382,-23,-89,2396,-375,-7698,1745226533595560036
800033,389,-31,-89,2576,-407,-7644,1745226533595560036
800225,409,-37,-93,2826,-608,-7260,1745226533595560036
800417,409,-39,-92,3006,-919,-7054,1745226533595560036
800609,385,-38,-85,3306,-817,-6700,1745226533666109809
800801,372,-26,-77,3626,-780,-6526,1745226533666109809
800993,371,-12,-64,3638,-1073,-6589,1745226533666109809
801185,335,-8,-45,3627,-1389,-6707,1745226533666109809
801377,267,-4,-23,3662,-1327,-6545,1745226533666109809
801569,199,-3,-4,3615,-994,-6590,1745226533666109809
801761,157,-7,3,3587,-592,-6603,1745226533666109809
801953,144,-2,0,3722,-379,-6322,1745226533666109809
802145,142,13,-3,3900,-488,-6158,1745226533666109809
802337,136,30,-3,4144,-737,-6041,1745226533666109809
802529,112,41,3,4338,-990,-6008,1745226533666109809
802721,56,40,16,4453,-1137,-6069,1745226533666109809
802913,-17,29,33,4466,-1193,-6215,1745226533712577613
803105,-90,10,52,4257,-1195,-6295,1745226533712577613
803297,-153,0,63,4096,-995,-6302,1745226533712577613
803489,-201,-7,67,4090,-805,-6418,1745226533712577613
803681,-228,-18,71,4021,-820,-6646,1745226533712577613
803873,-258,-36,79,3894,-850,-6724,1745226533712577613
804065,-302,-49,90,3851,-656,-6495,1745226533712577613
804257,-335,-40,98,3862,-590,-6274,1745226533712577613
804449,-347,-27,100,3799,-557,-6339,1745226533712577613
804641,-353,-17,92,3714,-433,-6485,1745226533712577613
804833,-359,-12,89,3547,-408,-6613,1745226533712577613
805025,-364,-5,87,3480,-470,-6723,1745226533712577613
805217,-370,5,83,3504,-452,-6692,1745226533774412517
805409,-379,17,83,3384,-501,-6870,1745226533774412517
805601,-402,24,91,2953,-648,-7506,1745226533774412517
805793,-455,9,101,2501,-581,-8117,1745226533774412517
805985,-508,-10,104,2232,-331,-8202,1745226533774412517
806177,-534,-30,93,1712,-188,-8582,1745226533774412517
806369,-530,-45,67,1185,-70,-8735,1745226533774412517
806561,-521,-54,29,1087,164,-8683,1745226533774412517
806753,-471,-34,-6,1268,386,-7979,1745226533774412517
806945,-388,6,-35,1513,149,-8160,1745226533774412517
807137,-316,24,-49,1407,19,-8892,1745226533774412517
807329,-270,31,-40,1320,-62,-9286,1745226533774412517
807521,-239,47,-17,1308,-449,-9122,1745226533823924200
807521,-239,47,-17,1308,-449,-9122,1745226533823924200
807713,-239,63,4,1337,-632,-8871,1745226533823924200
807905,-255,75,17,1267,-198,-8854,1745226533823924200
