timestamp,gyr_x,gyr_y,gyr_z,acc_x,acc_y,acc_z,pkt_time_ns
121313,195,100,-83,1033,3203,-7273,1745203091567360040
121505,265,89,-103,1018,2679,-8137,1745203091567360040
121697,436,31,-96,1000,2487,-7507,1745203091567360040
121889,439,0,-68,1021,2190,-7657,1745203091567360040
122081,410,-2,-42,1076,1994,-7653,1745203091567360040
122273,415,-30,-30,1088,2041,-7706,1745203091567360040
122465,381,-47,-29,986,2123,-7752,1745203091567360040
122657,367,-46,-37,885,2158,-7757,1745203091567360040
122849,361,-54,-42,747,2128,-7739,1745203091567360040
123041,342,-41,-38,661,2123,-7762,1745203091567360040
123233,347,-31,-29,692,2237,-7769,1745203091567360040
123425,365,-36,-17,780,2446,-7705,1745203091567360040
123617,386,-33,-11,902,2515,-7642,1745203091621266683
123809,391,-51,-12,1095,2185,-7649,1745203091621266683
124001,355,-76,-19,1014,1771,-7659,1745203091621266683
124193,306,-74,-12,675,1562,-7696,1745203091621266683
124385,269,-63,10,412,1557,-7753,1745203091621266683
124577,241,-47,30,387,1645,-7803,1745203091621266683
124769,213,-36,38,564,1651,-7853,1745203091621266683
124961,181,-34,37,751,1678,-7859,1745203091621266683
125153,144,-33,37,881,1654,-8104,1745203091621266683
125345,103,-32,36,913,1549,-8215,1745203091621266683
125537,50,-28,36,824,1367,-8240,1745203091621266683
125729,-18,-20,36,739,1196,-8282,1745203091621266683
125921,-78,-17,48,776,1311,-8298,1745203091677788563
126113,-114,-17,66,828,1630,-8286,1745203091677788563
126305,-131,-12,70,858,1943,-8260,1745203091677788563
126497,-129,-9,59,973,2352,-8253,1745203091677788563
126689,-89,-17,47,979,2689,-8248,1745203091677788563
126881,-44,-10,28,916,2828,-8335,1745203091677788563
127073,4,14,8,597,2795,-8379,1745203091677788563
127265,39,49,-2,279,1994,-6999,1745203091677788563
127457,65,131,-3,-271,3010,-10417,1745203091677788563
127649,121,240,40,-609,2378,-7527,1745203091677788563
127841,7,316,17,222,-229,-8331,1745203091677788563
128033,-309,240,-7,1586,-1293,-7251,1745203091677788563
128225,-475,130,53,1938,-1143,-7249,1745203091731171356
128417,-648,58,144,2010,-720,-7452,1745203091731171356
128609,-805,-5,154,1717,-105,-7682,1745203091731171356
128801,-996,-27,109,1297,499,-7880,1745203091731171356
128993,-1173,-56,56,924,1000,-8090,1745203091731171356
129185,-1317,-52,18,609,1446,-8239,1745203091731171356
129377,-1439,-10,-4,457,1665,-8379,1745203091731171356
129569,-1550,30,-15,510,1771,-8550,1745203091731171356
129761,-1646,59,-21,698,1741,-8552,1745203091731171356
129953,-1731,64,-22,961,1619,-8593,1745203091731171356
130145,-1816,54,-15,1215,1498,-8641,1745203091731171356
130337,-1891,45,7,1465,1431,-8576,1745203091731171356
130529,-1975,49,31,1702,1415,-8674,1745203091796813725
130721,-2082,39,54,1915,1479,-9145,1745203091796813725
130913,-2212,34,67,1997,1745,-9430,1745203091796813725
131105,-2351,56,66,1945,2228,-9425,1745203091796813725
131297,-2500,63,61,1877,2756,-9232,1745203091796813725
131489,-2659,57,65,1896,3225,-9187,1745203091796813725
131681,-2808,42,65,2018,3585,-9344,1745203091796813725
131873,-2926,43,28,2249,3924,-9254,1745203091796813725
132065,-3001,65,-54,2590,4195,-9426,1745203091796813725
132257,-3039,55,-162,3124,4397,-9852,1745203091796813725
132449,-3070,14,-297,3597,4740,-9743,1745203091796813725
132641,-3084,-42,-437,3956,5281,-9021,1745203091796813725
132833,-3153,81,-614,5075,5814,-6329,1745203091858221862
133025,-3997,528,-1061,4823,6880,-3193,1745203091858221862
133217,-5144,800,-1326,5191,8620,-5657,1745203091858221862
133409,-6057,500,-1443,5940,9678,-4206,1745203091858221862
133601,-5765,169,-1588,5911,11882,-3957,1745203091858221862
133793,-5367,-29,-1742,5543,13952,-3306,1745203091858221862
133985,-4719,-149,-1909,5165,16372,-2968,1745203091858221862
134177,-3928,-203,-2081,3821,14360,-2257,1745203091858221862
134369,-2752,-414,-2300,5751,20243,-3752,1745203091858221862
134561,-2463,-313,-2592,4991,20223,-4010,1745203091858221862
134753,-2533,-276,-2833,4612,20031,-5027,1745203091858221862
134945,-2441,-424,-3065,4020,19096,-4946,1745203091858221862
135137,-2206,-471,-3255,3418,17939,-4865,1745203091909341760
135329,-1851,-465,-3386,2783,16476,-5110,1745203091909341760
135521,-1459,-451,-3451,2254,15112,-5283,1745203091909341760
135713,-1164,-412,-3465,1862,13850,-5553,1745203091909341760
135905,-1015,-387,-3454,1529,12705,-5853,1745203091909341760
136097,-980,-366,-3434,1340,11607,-6029,1745203091909341760
136289,-1018,-351,-3424,1145,10598,-5924,1745203091909341760
136481,-1096,-341,-3437,896,9707,-5696,1745203091909341760
136673,-1177,-329,-3461,563,9036,-5364,1745203091909341760
136865,-1252,-308,-3487,146,8541,-5080,1745203091909341760
137057,-1321,-274,-3513,-411,8191,-4889,1745203091909341760
137249,-1383,-234,-3533,-990,7945,-4755,1745203091909341760
137441,-1433,-189,-3539,-1563,7751,-4638,1745203091972024104
137633,-1460,-151,-3534,-2132,7571,-4612,1745203091972024104
137825,-1461,-124,-3524,-2605,7427,-4716,1745203091972024104
138017,-1441,-95,-3506,-3068,7235,-4792,1745203091972024104
138209,-1405,-68,-3488,-3479,6922,-4927,1745203091972024104
138401,-1336,-35,-3481,-3815,6550,-5113,1745203091972024104
138593,-1225,-9,-3473,-4098,6160,-5351,1745203091972024104
138785,-1073,9,-3459,-4337,5792,-5579,1745203091972024104
138977,-902,22,-3429,-4476,5457,-5764,1745203091972024104
139169,-727,41,-3382,-4592,5127,-5985,1745203091972024104
139361,-548,63,-3323,-4655,4804,-6121,1745203091972024104
139553,-367,77,-3260,-4632,4470,-6171,1745203091972024104
139745,-174,70,-3194,-4578,4103,-6205,1745203092040956755
139937,24,56,-3126,-4578,3735,-6182,1745203092040956755
140129,209,30,-3057,-4509,3321,-6158,1745203092040956755
140321,367,-16,-2991,-4469,2834,-6130,1745203092040956755
140513,494,-55,-2924,-4465,2341,-6115,1745203092040956755
140705,584,-91,-2857,-4495,1810,-6049,1745203092040956755
140897,642,-122,-2787,-4509,1248,-5892,1745203092040956755
141089,668,-140,-2722,-4594,698,-5713,1745203092040956755
141281,675,-162,-2649,-4716,147,-5562,1745203092040956755
141473,665,-181,-2564,-4831,-412,-5400,1745203092040956755
141665,640,-189,-2475,-4917,-930,-5218,1745203092040956755
141857,597,-206,-2377,-4973,-1433,-5091,1745203092040956755
142049,528,-204,-2275,-4656,-1787,-5176,1745203092087057949
142241,381,-209,-2169,-3282,-2019,-5503,1745203092087057949
142433,199,-304,-1967,-6143,-2981,-4671,1745203092087057949
142625,-60,-701,-1587,-5040,-2408,-5245,1745203092087057949
142817,-580,-573,-1448,-4715,-2036,-5197,1745203092087057949
143009,-622,-462,-1497,-4580,-3989,-3219,1745203092087057949
143201,-251,-275,-1516,-4640,-2950,-3237,1745203092087057949
143393,-261,-83,-1486,-4711,-2854,-3766,1745203092087057949
143585,-393,-21,-1376,-4545,-2560,-3822,1745203092087057949
143777,-501,-24,-1198,-4240,-2023,-3444,1745203092087057949
143969,-615,-10,-1000,-3904,-1418,-3184,1745203092087057949
144161,-722,-7,-817,-3657,-797,-3075,1745203092087057949
144353,-824,-19,-656,-3516,-210,-3040,1745203092152347665
144545,-922,-74,-525,-3387,393,-3055,1745203092152347665
144737,-984,-178,-415,-3345,573,-2731,1745203092152347665
144929,-1105,-307,-392,-2469,2941,-2219,1745203092152347665
145121,-1262,-421,-483,-2835,1836,-1525,1745203092152347665
145313,-1151,-398,-397,-1556,3381,619,1745203092152347665
145505,-978,48,-437,-1843,4105,713,1745203092152347665
145697,-1009,384,-389,-2085,5012,-270,1745203092152347665
145889,-1060,475,-376,-2093,6079,-504,1745203092152347665
146081,-1060,540,-406,-1915,7259,-479,1745203092152347665
146273,-1036,626,-472,-1806,8521,-396,1745203092152347665
146465,-978,642,-587,-1691,9814,-472,1745203092152347665
146657,-895,621,-743,-1578,11049,-797,1745203092203970527
146849,-796,603,-927,-1674,11068,-1223,1745203092203970527
147041,-519,526,-1118,-1254,12981,-2305,1745203092203970527
147233,-458,500,-1274,-1328,13343,-2705,1745203092203970527
147425,-497,509,-1386,-1697,12665,-3072,1745203092203970527
147617,-360,450,-1446,-2263,11884,-3600,1745203092203970527
147809,-165,380,-1432,-2759,10688,-3766,1745203092203970527
148001,84,298,-1422,-3467,9387,-4196,1745203092203970527
148193,331,229,-1422,-4271,8255,-4549,1745203092203970527
148385,503,160,-1424,-5115,7354,-4868,1745203092203970527
148577,617,145,-1394,-5841,6515,-5158,1745203092203970527
148769,718,146,-1319,-6295,5509,-5343,1745203092203970527
148961,803,145,-1327,-6893,4711,-5550,1745203092268253846
149153,854,147,-1388,-7446,4138,-5803,1745203092268253846
149345,920,130,-1446,-7877,3775,-6269,1745203092268253846
149537,966,138,-1479,-8263,3397,-6699,1745203092268253846
149729,994,148,-1525,-8481,3152,-7089,1745203092268253846
149921,991,160,-1553,-8536,2877,-7335,1745203092268253846
150113,967,177,-1558,-8530,2479,-7545,1745203092268253846
150305,930,199,-1538,-8381,1999,-7613,1745203092268253846
150497,913,232,-1471,-8088,1392,-7711,1745203092268253846
150689,907,265,-1364,-7743,768,-7754,1745203092268253846
150881,895,251,-1261,-7372,183,-7875,1745203092268253846
151073,854,184,-1190,-7047,-386,-7973,1745203092268253846
151265,788,90,-1140,-6767,-912,-7954,1745203092325898580
151457,703,2,-1108,-6511,-1468,-7811,1745203092325898580
151649,610,-56,-1074,-6406,-2000,-7646,1745203092325898580
151841,526,-83,-1012,-6376,-2569,-7452,1745203092325898580
152033,464,-107,-912,-6313,-2999,-7292,1745203092325898580
152225,411,-140,-795,-6310,-3370,-7102,1745203092325898580
152417,354,-172,-665,-6279,-3575,-6967,1745203092325898580
152609,275,-190,-517,-6238,-3668,-6854,1745203092325898580
152801,186,-193,-349,-6178,-3705,-6724,1745203092325898580
152993,87,-185,-169,-6083,-3633,-6540,1745203092325898580
153185,-9,-162,7,-5927,-3452,-6362,1745203092325898580
153377,-85,-121,176,-5711,-3257,-6171,1745203092325898580
153569,-139,-80,331,-5480,-3034,-5937,1745203092388835765
153761,-165,-35,472,-5195,-2800,-5662,1745203092388835765
153953,-164,3,604,-4976,-2662,-5325,1745203092388835765
154145,-147,36,731,-4672,-2487,-4934,1745203092388835765
154337,-109,85,853,-4606,-2264,-4648,1745203092388835765
154529,-80,190,947,-4451,-2105,-4263,1745203092388835765
154721,-63,241,993,-3997,-2034,-3646,1745203092388835765
154913,-42,259,1016,-3714,-1817,-3025,1745203092388835765
155105,-4,258,1052,-3432,-1695,-2589,1745203092388835765
155297,50,239,1088,-3098,-1595,-2247,1745203092388835765
155489,112,180,1101,-2834,-1426,-2058,1745203092388835765
155681,165,133,1087,-2626,-1121,-2079,1745203092388835765
155873,189,107,1070,-2437,-640,-2190,1745203092437352093
156065,167,106,1072,-2242,-38,-2232,1745203092437352093
156257,97,141,1101,-2046,608,-2201,1745203092437352093
156449,-11,182,1149,-1897,1287,-2086,1745203092437352093
156641,-125,230,1207,-1731,1901,-1855,1745203092437352093
156833,-210,291,1271,-1541,2504,-1563,1745203092437352093
157025,-261,345,1326,-1274,3123,-1272,1745203092437352093
157217,-293,407,1364,-949,3746,-970,1745203092437352093
157409,-324,477,1368,-670,4391,-616,1745203092437352093
157601,-367,538,1367,-260,5307,-415,1745203092437352093
157793,-453,600,1333,-5,6526,-201,1745203092437352093
157985,-530,653,1270,258,7864,-80,1745203092437352093
158177,-580,684,1195,460,9319,-2,1745203092495803902
158369,-597,700,1112,606,10661,106,1745203092495803902
158561,-537,689,1021,698,12123,29,1745203092495803902
158753,-467,680,897,574,13195,-181,1745203092495803902
158945,-398,626,768,469,13749,-495,1745203092495803902
159137,-183,547,592,142,11952,-328,1745203092495803902
159329,284,436,368,-143,14661,-1307,1745203092495803902
159521,199,415,219,-1243,13198,-1256,1745203092495803902
159713,57,401,172,-2093,12402,-1561,1745203092495803902
159905,-1,382,129,-2971,11508,-1817,1745203092495803902
160097,-65,389,95,-3767,10491,-1986,1745203092495803902
160289,-61,413,72,-4266,9437,-2223,1745203092495803902
160481,-89,433,12,-4997,8863,-2617,1745203092560327480
160673,-192,564,37,-5734,8716,-3210,1745203092560327480
160865,-328,735,172,-5849,8000,-3772,1745203092560327480
161057,-465,922,282,-6094,7611,-4278,1745203092560327480
161249,-551,1048,300,-6504,7783,-5041,1745203092560327480
161441,-570,1062,295,-6763,8214,-5730,1745203092560327480
161633,-554,1008,255,-6945,8659,-6365,1745203092560327480
161825,-528,946,144,-7209,8993,-6968,1745203092560327480
162017,-468,856,-23,-7467,9205,-7461,1745203092560327480
162209,-353,763,-211,-7715,9208,-7884,1745203092560327480
162401,-183,661,-385,-7921,8967,-8229,1745203092560327480
162593,18,544,-525,-8063,8564,-8502,1745203092560327480
162785,202,442,-623,-8194,7889,-8841,1745203092614712660
162977,345,349,-687,-8289,7101,-9247,1745203092614712660
163169,449,254,-745,-8333,6336,-9450,1745203092614712660
163361,511,188,-783,-8331,5502,-9536,1745203092614712660
163553,531,113,-802,-8322,4698,-9610,1745203092614712660
163745,515,32,-806,-8274,3999,-9670,1745203092614712660
163937,494,-47,-813,-8285,3425,-9676,1745203092614712660
164129,475,-125,-819,-8218,2978,-9632,1745203092614712660
164321,450,-196,-813,-8191,2542,-9502,1745203092614712660
164513,414,-261,-798,-8176,2121,-9391,1745203092614712660
164705,375,-318,-781,-8091,1721,-9227,1745203092614712660
164897,339,-366,-763,-7957,1298,-9018,1745203092614712660
165089,305,-411,-740,-7850,853,-8824,1745203092671012823
165281,263,-458,-713,-7717,420,-8605,1745203092671012823
165473,208,-506,-680,-7552,-38,-8377,1745203092671012823
165665,132,-544,-652,-7419,-466,-8152,1745203092671012823
165857,39,-576,-620,-7271,-881,-7847,1745203092671012823
166049,-56,-613,-573,-7100,-1254,-7527,1745203092671012823
166241,-153,-640,-520,-6958,-1558,-7206,1745203092671012823
166433,-236,-651,-437,-6873,-1803,-6885,1745203092671012823
166625,-281,-662,-318,-6852,-1958,-6610,1745203092671012823
166817,-302,-661,-182,-6845,-2091,-6348,1745203092671012823
167009,-301,-665,-17,-6601,-2216,-5980,1745203092671012823
167201,-274,-687,145,-6754,-2213,-5816,1745203092671012823
167393,-239,-580,279,-6746,-2141,-5689,1745203092735951448
167585,-223,-473,324,-6626,-2179,-5389,1745203092735951448
167777,-216,-402,271,-6186,-2196,-4909,1745203092735951448
167969,-210,-364,161,-6029,-2116,-4776,1745203092735951448
168161,-195,-322,97,-5802,-1717,-4708,1745203092735951448
168353,-155,-345,125,-5340,-1555,-4622,1745203092735951448
168545,-113,-317,157,-5002,-1138,-4617,1745203092735951448
168737,-76,-232,236,-4577,-651,-4668,1745203092735951448
168929,-54,-200,338,-3718,-313,-4486,1745203092735951448
169121,-73,-252,398,-2811,-253,-4228,1745203092735951448
169313,-107,-257,409,-2475,172,-4340,1745203092735951448
169505,-120,-255,480,-2322,614,-4277,1745203092735951448
169697,-106,-333,608,-2054,813,-3902,1745203092787362802
169889,-71,-373,726,-1840,960,-3709,1745203092787362802
170081,-51,-364,809,-2039,1236,-3768,1745203092787362802
170273,-78,-384,857,-1882,1237,-3601,1745203092787362802
170465,-176,-476,841,-1751,1331,-3254,1745203092787362802
170657,-307,-423,843,-2105,1683,-3070,1745203092787362802
170849,-431,-336,926,-2376,2019,-2525,1745203092787362802
171041,-513,-277,1047,-2417,2371,-1794,1745203092787362802
171233,-574,-135,1140,-2267,2751,-1408,1745203092787362802
171425,-643,2,1150,-2053,3229,-1311,1745203092787362802
171617,-737,101,1091,-1741,4070,-1272,1745203092787362802
171809,-867,191,980,-1312,4982,-1045,1745203092787362802
172001,-1031,282,868,-954,6112,-880,1745203092849558379
172193,-1186,410,817,-518,7346,-558,1745203092849558379
172385,-1269,526,803,-29,8609,-448,1745203092849558379
172577,-1261,641,814,457,9807,-343,1745203092849558379
172769,-1165,749,807,851,10888,-369,1745203092849558379
172961,-987,820,771,1411,11989,-334,1745203092849558379
173153,-880,842,657,1753,12827,-498,1745203092849558379
173345,-789,818,508,2024,13261,-735,1745203092849558379
173537,-687,726,310,2131,13138,-1010,1745203092849558379
173729,-552,652,118,1469,13259,-1278,1745203092849558379
173921,-399,523,50,1847,11734,-1300,1745203092849558379
174113,-241,432,-161,215,11462,-1711,1745203092849558379
174305,-123,408,-151,-397,10340,-1575,1745203092904461888
174497,42,398,-185,-1833,10037,-1758,1745203092904461888
174689,90,473,-89,-2775,9763,-1887,1745203092904461888
174881,147,522,70,-3490,9710,-2283,1745203092904461888
175073,205,577,215,-3871,9539,-2819,1745203092904461888
175265,245,623,282,-4164,9424,-3433,1745203092904461888
175457,276,654,272,-4364,9201,-3994,1745203092904461888
175649,313,655,199,-4577,8891,-4506,1745203092904461888
175841,354,636,93,-4796,8466,-4891,1745203092904461888
176033,398,596,-20,-5078,7982,-5284,1745203092904461888
176225,445,546,-129,-5405,7425,-5798,1745203092904461888
176417,486,477,-239,-5778,6932,-6287,1745203092904461888
176609,505,409,-348,-6159,6496,-6755,1745203092962868542
176801,493,351,-436,-6575,6159,-7148,1745203092962868542
176993,463,303,-482,-6973,5923,-7488,1745203092962868542
177185,423,276,-462,-7307,5750,-7740,1745203092962868542
177377,390,261,-393,-7568,5616,-7946,1745203092962868542
177569,374,246,-299,-7774,5491,-8070,1745203092962868542
177761,380,226,-197,-7897,5334,-8195,1745203092962868542
177953,401,195,-116,-7965,5131,-8319,1745203092962868542
178145,425,148,-76,-8016,4865,-8462,1745203092962868542
178337,442,83,-78,-8083,4505,-8561,1745203092962868542
178529,449,8,-116,-8088,4072,-8582,1745203092962868542
178721,436,-92,-186,-8171,3644,-8577,1745203092962868542
178913,403,-205,-278,-8275,3214,-8528,1745203093022627319
179105,342,-306,-381,-8346,2815,-8393,1745203093022627319
179297,263,-396,-484,-8407,2530,-8314,1745203093022627319
179489,190,-471,-569,-8534,2329,-8116,1745203093022627319
179681,124,-514,-585,-8596,2166,-7795,1745203093022627319
179873,62,-531,-524,-8580,2024,-7539,1745203093022627319
180065,21,-548,-396,-8553,1883,-7281,1745203093022627319
180257,19,-552,-242,-8435,1738,-7035,1745203093022627319
180449,51,-549,-80,-8336,1684,-6809,1745203093022627319
180641,101,-564,73,-8116,1552,-6585,1745203093022627319
180833,144,-553,183,-7904,1469,-6393,1745203093022627319
181025,161,-541,246,-7720,1428,-6209,1745203093022627319
181217,146,-522,288,-7482,1169,-6008,1745203093079443936
181409,163,-529,270,-7134,935,-5801,1745203093079443936
181601,168,-536,253,-7124,942,-5791,1745203093079443936
181793,186,-444,290,-7312,1059,-5702,1745203093079443936
181985,210,-377,314,-6769,499,-5477,1745203093079443936
182177,162,-337,142,-6479,-126,-5197,1745203093079443936
182369,97,-297,-25,-6260,272,-5210,1745203093079443936
182561,86,-313,35,-5878,438,-5087,1745203093079443936
182753,119,-344,222,-5596,604,-4929,1745203093079443936
182945,162,-294,434,-5514,839,-4774,1745203093079443936
183137,212,-234,627,-5044,1022,-4532,1745203093079443936
183329,268,-218,761,-4019,848,-4243,1745203093079443936
183521,294,-293,729,-3272,686,-4365,1745203093138194545
183713,297,-327,629,-3100,1076,-4566,1745203093138194545
183905,288,-361,581,-3014,1408,-4268,1745203093138194545
184097,274,-421,573,-2853,1562,-3825,1745203093138194545
184289,245,-414,577,-2787,1647,-3614,1745203093138194545
184481,200,-413,594,-2959,1807,-3618,1745203093138194545
184673,164,-391,643,-2993,1956,-3441,1745203093138194545
184865,106,-435,683,-2750,2035,-3182,1745203093138194545
185057,20,-421,691,-2700,2302,-3073,1745203093138194545
185249,-104,-393,699,-2720,2660,-2951,1745203093138194545
185441,-245,-375,717,-2741,3051,-2783,1745203093138194545
185633,-401,-299,737,-2736,3383,-2680,1745203093138194545
185825,-560,-224,747,-2604,3672,-2512,1745203093198267746
186017,-701,-160,748,-2407,3998,-2275,1745203093198267746
186209,-808,-99,749,-2118,4497,-1993,1745203093198267746
186401,-879,-31,758,-1866,5238,-1759,1745203093198267746
186593,-930,73,761,-1641,6230,-1498,1745203093198267746
186785,-988,208,745,-1457,7396,-1287,1745203093198267746
186977,-1068,349,698,-1010,8682,-1080,1745203093198267746
187169,-1157,453,579,-512,9788,-1064,1745203093198267746
187361,-1212,515,391,-155,10654,-1087,1745203093198267746
187553,-1209,518,169,332,11510,-1074,1745203093198267746
187745,-1153,491,-82,490,12020,-1026,1745203093198267746
187937,-1025,488,-230,500,12765,-1099,1745203093198267746
188129,-864,411,-315,1347,11360,-968,1745203093254647179
188321,-472,316,-626,641,10150,-1008,1745203093254647179
188513,-155,330,-671,212,12948,-1895,1745203093254647179
188705,-434,320,-551,-11,10792,-1274,1745203093254647179
188897,-485,364,-477,-709,10712,-1551,1745203093254647179
189089,-497,387,-319,-1180,10345,-1181,1745203093254647179
189281,-452,406,-137,-1479,9660,-1117,1745203093254647179
189473,-331,389,-4,-1759,9105,-1204,1745203093254647179
189665,-240,350,50,-2065,8692,-1269,1745203093254647179
189857,-227,322,26,-2414,8351,-1554,1745203093254647179
190049,-277,307,-49,-2759,7979,-1869,1745203093254647179
190241,-364,317,-160,-3143,7612,-2158,1745203093254647179
190433,-466,343,-279,-3499,7279,-2430,1745203093314755223
190625,-568,375,-394,-3834,7063,-2721,1745203093314755223
190817,-667,417,-486,-4160,6995,-2999,1745203093314755223
191009,-758,454,-547,-4435,7044,-3312,1745203093314755223
191201,-828,476,-578,-4700,7225,-3694,1745203093314755223
191393,-864,490,-584,-4954,7493,-4023,1745203093314755223
191585,-850,493,-573,-5200,7794,-4384,1745203093314755223
191777,-792,480,-563,-5431,8030,-4794,1745203093314755223
191969,-697,453,-563,-5690,8173,-5142,1745203093314755223
192161,-568,417,-570,-5963,8203,-5446,1745203093314755223
192353,-413,367,-588,-6233,8039,-5732,1745203093314755223
192545,-251,311,-619,-6509,7707,-5988,1745203093314755223
192737,-102,256,-658,-6812,7234,-6234,1745203093390572395
192929,26,209,-703,-7133,6667,-6465,1745203093390572395
193121,126,163,-752,-7476,6039,-6659,1745203093390572395
193313,201,119,-796,-7784,5390,-6859,1745203093390572395
193505,253,75,-831,-8070,4765,-7103,1745203093390572395
193697,281,29,-858,-8357,4196,-7283,1745203093390572395
193889,284,-18,-859,-8642,3700,-7336,1745203093390572395
194081,267,-63,-833,-8847,3332,-7327,1745203093390572395
194273,238,-105,-780,-9074,2954,-7309,1745203093390572395
194465,202,-131,-696,-9235,2729,-7292,1745203093390572395
194657,157,-146,-597,-9374,2590,-7296,1745203093390572395
194849,104,-151,-495,-9435,2507,-7324,1745203093390572395
195041,44,-155,-409,-9429,2436,-7424,1745203093430329168
195233,-7,-125,-357,-9409,2402,-7491,1745203093430329168
195425,-42,-114,-327,-9366,2378,-7457,1745203093430329168
195617,-56,-102,-305,-9261,2304,-7436,1745203093430329168
195809,-48,-102,-276,-9048,2119,-7399,1745203093430329168
196001,-20,-120,-252,-8786,1929,-7361,1745203093430329168
196193,22,-113,-218,-8513,1860,-7292,1745203093430329168
196385,78,-124,-161,-8135,1657,-7178,1745203093430329168
196577,141,-148,-101,-7767,1639,-7048,1745203093430329168
196769,207,-131,-13,-7702,1766,-7074,1745203093430329168
196961,282,-42,69,-7305,1610,-6975,1745203093430329168
197153,317,-35,14,-6907,887,-6644,1745203093430329168
197345,298,-58,-135,-6709,1250,-6471,1745203093489917842
197537,319,-88,-101,-6328,1441,-6312,1745203093489917842
197729,377,-132,23,-6115,1517,-6187,1745203093489917842
197921,427,-103,169,-5984,1761,-5996,1745203093489917842
198113,485,-51,330,-5749,1973,-5774,1745203093489917842
198305,558,-8,468,-4891,2029,-5446,1745203093489917842
198497,577,-81,458,-3890,1400,-5370,1745203093489917842
198689,550,-170,340,-3673,1731,-5598,1745203093489917842
198881,538,-249,328,-3563,1872,-5353,1745203093489917842
199073,555,-338,374,-3493,1897,-5005,1745203093489917842
199265,568,-392,433,-3426,1818,-4828,1745203093489917842
199457,569,-415,506,-3508,1801,-4784,1745203093489917842
199649,576,-391,585,-3730,1840,-4763,1745203093554845895
199841,590,-369,676,-3796,2030,-4567,1745203093554845895
200033,614,-357,761,-3761,2055,-4429,1745203093554845895
200225,616,-323,792,-3695,2043,-4438,1745203093554845895
200417,575,-315,761,-3514,2049,-4362,1745203093554845895
200609,491,-329,681,-3177,1911,-4215,1745203093554845895
200801,373,-345,588,-2940,1835,-4111,1745203093554845895
200993,259,-360,545,-2675,1791,-3911,1745203093554845895
201185,185,-375,580,-2442,1884,-3709,1745203093554845895
201377,165,-331,705,-2242,2172,-3489,1745203093554845895
201569,180,-268,883,-1933,2562,-3213,1745203093554845895
201761,191,-199,1030,-1728,3050,-3070,1745203093554845895
201953,158,-88,1099,-1668,3684,-3032,1745203093605181477
202145,78,-33,1099,-1471,4228,-2890,1745203093605181477
202337,-14,-11,1036,-1308,4677,-2796,1745203093605181477
202529,-98,-8,926,-1139,4983,-2743,1745203093605181477
202721,-159,-31,803,-946,5294,-2702,1745203093605181477
202913,-205,-37,666,-827,5587,-2723,1745203093605181477
203105,-257,-47,553,-493,5816,-2624,1745203093605181477
203297,-334,-66,406,-443,5907,-2503,1745203093605181477
203489,-433,-13,253,-685,6503,-2437,1745203093605181477
203681,-527,67,213,-955,7462,-2160,1745203093605181477
203873,-570,179,381,-853,8545,-1808,1745203093605181477
204065,-577,258,589,-217,8558,-1587,1745203093605181477
204257,-576,343,618,-316,9599,-1815,1745203093666520864
204449,-554,394,647,-84,10491,-1710,1745203093666520864
204641,-518,392,670,166,11231,-1587,1745203093666520864
204833,-492,393,659,429,11670,-1544,1745203093666520864
205025,-469,375,594,579,11847,-1564,1745203093666520864
205217,-452,335,486,633,11783,-1647,1745203093666520864
205409,-430,292,363,518,11467,-1773,1745203093666520864
205601,-394,246,253,327,10952,-1899,1745203093666520864
205793,-343,205,167,11,10313,-2042,1745203093666520864
205985,-283,184,112,-396,9699,-2157,1745203093666520864
206177,-225,174,83,-811,9209,-2214,1745203093666520864
206369,-181,178,65,-1248,8873,-2248,1745203093666520864
206561,-155,194,44,-1654,8702,-2302,1745203093722478426
206753,-148,216,14,-2011,8565,-2417,1745203093722478426
206945,-151,241,-20,-2315,8453,-2552,1745203093722478426
207137,-136,261,-54,-2542,8218,-2697,1745203093722478426
207329,-91,280,-87,-2734,7878,-2869,1745203093722478426
207521,-22,291,-117,-2835,7442,-3067,1745203093722478426
207713,53,295,-142,-2956,6951,-3316,1745203093722478426
207905,116,291,-159,-3049,6444,-3536,1745203093722478426
208097,150,276,-167,-3137,5928,-3745,1745203093722478426
208289,154,251,-161,-3285,5414,-3982,1745203093722478426
208481,136,216,-137,-3416,4958,-4183,1745203093722478426
208673,107,172,-96,-3589,4565,-4359,1745203093722478426
208865,77,123,-44,-3791,4234,-4507,1745203093791956906
209057,51,74,18,-3987,4023,-4667,1745203093791956906
209249,26,25,84,-4186,3853,-4796,1745203093791956906
209441,3,-26,151,-4381,3717,-4923,1745203093791956906
209633,-17,-66,217,-4598,3659,-5005,1745203093791956906
209825,-30,-107,293,-4766,3616,-5082,1745203093791956906
210017,-40,-142,364,-4922,3493,-5228,1745203093791956906
210209,-52,-162,413,-5057,3417,-5435,1745203093791956906
210401,-66,-184,441,-5202,3382,-5633,1745203093791956906
210593,-81,-199,458,-5335,3348,-5784,1745203093791956906
210785,-95,-214,479,-5449,3356,-5974,1745203093791956906
210977,-103,-236,513,-5526,3358,-6152,1745203093791956906
211169,-101,-262,560,-5602,3406,-6275,1745203093840215007
211361,-78,-305,625,-5626,3397,-6350,1745203093840215007
211553,-29,-346,688,-5732,3402,-6496,1745203093840215007
211745,37,-399,761,-5791,3379,-6565,1745203093840215007
211937,116,-454,825,-5938,3309,-6698,1745203093840215007
212129,192,-492,872,-6077,3179,-6736,1745203093840215007
212321,267,-536,901,-6233,3138,-6687,1745203093840215007
212513,337,-571,931,-6413,3039,-6637,1745203093840215007
212705,397,-601,971,-6605,3023,-6623,1745203093840215007
212897,448,-615,1029,-6748,3028,-6617,1745203093840215007
213089,493,-621,1100,-6884,3084,-6544,1745203093840215007
213281,549,-604,1171,-7049,3161,-6518,1745203093840215007
213473,607,-540,1226,-7194,3261,-6541,1745203093903526512
213665,652,-506,1234,-6959,2949,-6464,1745203093903526512
213857,663,-521,1149,-6890,2874,-6577,1745203093903526512
214049,663,-532,1105,-6849,3088,-6681,1745203093903526512
214241,683,-569,1146,-6777,3222,-6623,1745203093903526512
214433,703,-597,1214,-6685,3259,-6546,1745203093903526512
214625,715,-598,1283,-6651,3354,-6483,1745203093903526512
214817,738,-592,1353,-6618,3469,-6487,1745203093903526512
215009,772,-589,1416,-6572,3542,-6508,1745203093903526512
215201,812,-593,1471,-6496,3603,-6535,1745203093903526512
215393,848,-606,1514,-6418,3624,-6542,1745203093903526512
215585,883,-626,1537,-6348,3605,-6519,1745203093903526512
215777,925,-652,1547,-6270,3510,-6388,1745203093964514132
215969,977,-679,1550,-6190,3422,-6195,1745203093964514132
216161,1036,-696,1551,-6112,3394,-6038,1745203093964514132
216353,1089,-694,1556,-6028,3473,-5923,1745203093964514132
216545,1122,-674,1573,-5880,3661,-5843,1745203093964514132
216737,1132,-646,1607,-5700,3905,-5769,1745203093964514132
216929,1139,-621,1663,-5539,4163,-5652,1745203093964514132
217121,1167,-614,1731,-5350,4392,-5438,1745203093964514132
217313,1227,-597,1804,-5156,4537,-5182,1745203093964514132
217505,1311,-583,1862,-4979,4589,-5017,1745203093964514132
217697,1391,-568,1892,-4805,4574,-4934,1745203093964514132
217889,1435,-551,1897,-4657,4498,-4902,1745203093964514132
218081,1439,-523,1900,-4604,4403,-4895,1745203094021452153
218273,1413,-495,1908,-4529,4248,-4744,1745203094021452153
218465,1370,-449,1931,-4434,4062,-4635,1745203094021452153
218657,1328,-394,1977,-4324,3931,-4664,1745203094021452153
218849,1290,-334,2027,-4202,3877,-4762,1745203094021452153
219041,1249,-267,2063,-4052,3997,-4874,1745203094021452153
219233,1211,-194,2091,-3830,4252,-4900,1745203094021452153
219425,1190,-124,2106,-3614,4624,-4987,1745203094021452153
219617,1217,-62,2120,-3418,5116,-5074,1745203094021452153
219809,1318,-15,2145,-3177,5705,-5087,1745203094021452153
220001,1483,27,2167,-2865,6339,-5107,1745203094021452153
220193,1683,68,2172,-2552,6935,-5095,1745203094021452153
220385,1888,110,2151,-2241,7500,-5069,1745203094072861371
220577,2079,151,2118,-1967,7888,-4970,1745203094072861371
220769,2250,197,2088,-1713,8145,-4888,1745203094072861371
220961,2402,237,2063,-1395,8247,-4818,1745203094072861371
221153,2538,270,2042,-1120,8147,-4764,1745203094072861371
221345,2657,293,2035,-884,7911,-4717,1745203094072861371
221537,2743,316,2035,-692,7522,-4733,1745203094072861371
221729,2789,345,2048,-557,7036,-4790,1745203094072861371
221921,2800,387,2063,-482,6549,-4888,1745203094072861371
222113,2795,438,2079,-407,6138,-4999,1745203094072861371
222305,2795,489,2098,-337,5845,-5117,1745203094072861371
222497,2812,547,2112,-184,5624,-5202,1745203094072861371
222689,2845,619,2113,26,5403,-5021,1745203094132033435
222881,2904,770,2114,211,5605,-5351,1745203094132033435
223073,2963,944,2031,252,4611,-5323,1745203094132033435
223265,3403,1076,1796,-204,5012,-6138,1745203094132033435
223457,3285,1113,1837,1256,6177,-8276,1745203094132033435
223649,2895,871,1896,743,5253,-7162,1745203094132033435
223841,2820,764,1850,1234,5166,-6558,1745203094132033435
224033,2738,779,1801,1433,5039,-6560,1745203094132033435
224225,2656,760,1742,1641,4985,-6771,1745203094132033435
224417,2538,756,1688,1827,4931,-6981,1745203094132033435
224609,2399,750,1642,2017,4901,-7053,1745203094132033435
224801,2236,738,1610,2156,4859,-7288,1745203094132033435
224993,2023,728,1592,2246,4703,-7290,1745203094191260446
225185,1815,718,1579,2287,4471,-7085,1745203094191260446
225377,1653,719,1578,2304,4341,-7186,1745203094191260446
225569,1554,709,1589,2378,4454,-7155,1745203094191260446
225761,1499,671,1601,2435,4698,-7061,1745203094191260446
225953,1471,626,1603,2504,4986,-7165,1745203094191260446
226145,1456,581,1584,2557,5228,-7099,1745203094191260446
226337,1451,550,1544,2625,5313,-7029,1745203094191260446
226529,1453,537,1495,2649,5257,-7036,1745203094191260446
226721,1461,530,1450,2693,5060,-6952,1745203094191260446
226913,1468,521,1414,2693,4794,-6944,1745203094191260446
227105,1475,508,1387,2682,4439,-6943,1745203094191260446
227297,1465,493,1355,2651,4054,-6892,1745203094249358040
227489,1437,475,1311,2636,3657,-7007,1745203094249358040
227681,1394,463,1248,2592,3398,-6978,1745203094249358040
227873,1334,457,1175,2587,3203,-6982,1745203094249358040
228065,1259,442,1082,2580,3010,-6957,1745203094249358040
228257,1163,452,977,2603,2831,-6986,1745203094249358040
228449,1055,454,877,2612,2699,-6979,1745203094249358040
228641,944,458,799,2646,2648,-6990,1745203094249358040
228833,847,455,751,2693,2602,-6978,1745203094249358040
229025,770,444,721,2766,2600,-6905,1745203094249358040
229217,720,434,697,2770,2672,-6903,1745203094249358040
229409,693,422,676,2776,2756,-6876,1745203094249358040
229601,686,419,652,2739,2833,-6941,1745203094306465435
229793,695,418,621,2702,2889,-7010,1745203094306465435
229985,722,419,581,2659,2908,-6995,1745203094306465435
230177,762,419,535,2587,2892,-6935,1745203094306465435
230369,809,414,497,2517,2738,-7079,1745203094306465435
230561,863,394,474,2452,2511,-6421,1745203094306465435
230753,930,400,447,2307,2392,-6303,1745203094306465435
230945,969,416,411,2178,2366,-6542,1745203094306465435
231137,951,445,370,2050,2217,-6528,1745203094306465435
231329,833,497,338,1748,1770,-5013,1745203094306465435
231521,665,563,310,1485,1114,-6116,1745203094306465435
231713,517,548,285,1679,788,-7956,1745203094306465435
231905,388,436,211,2150,1194,-8852,1745203094374588511
232097,191,297,75,2549,1933,-9991,1745203094374588511
232289,-70,148,-96,2854,2750,-10863,1745203094374588511
232481,-328,27,-263,3099,3456,-11314,1745203094374588511
232673,-497,-85,-359,3177,4010,-11739,1745203094374588511
232865,-547,-195,-346,3167,4414,-12156,1745203094374588511
233057,-476,-293,-251,3061,4764,-12241,1745203094374588511
233249,-328,-360,-122,2868,4995,-11876,1745203094374588511
233441,-151,-374,-8,2521,4991,-11280,1745203094374588511
233633,17,-359,78,2036,4717,-10629,1745203094374588511
233825,163,-334,125,1541,4205,-10015,1745203094374588511
234017,278,-309,134,1102,3525,-9327,1745203094374588511
234209,342,-278,113,687,2752,-8926,1745203094423397648
234401,360,-248,78,381,2040,-8629,1745203094423397648
234593,336,-215,40,179,1481,-8446,1745203094423397648
234785,288,-174,8,97,1031,-8366,1745203094423397648
234977,229,-133,-10,153,779,-8206,1745203094423397648
235169,161,-90,-14,308,658,-8070,1745203094423397648
235361,90,-50,-9,512,646,-8049,1745203094423397648
235553,21,-20,1,752,675,-8086,1745203094423397648
235745,-36,2,7,952,731,-8176,1745203094423397648
235937,-75,11,4,1100,790,-8361,1745203094423397648
236129,-97,10,-3,1199,859,-8523,1745203094423397648
236321,-102,8,-12,1232,933,-8589,1745203094423397648
236513,-91,9,-20,1212,1000,-8583,1745203094483706733
236705,-71,13,-27,1175,1127,-8552,1745203094483706733
236897,-50,21,-40,1096,1274,-8458,1745203094483706733
237089,-36,30,-56,1056,1467,-8367,1745203094483706733
237281,-30,36,-76,1026,1664,-8259,1745203094483706733
237473,-26,38,-98,1007,1843,-8117,1745203094483706733
237665,-21,39,-118,1009,2005,-8000,1745203094483706733
237857,-16,40,-135,1030,2131,-7893,1745203094483706733
238049,-11,45,-148,1062,2242,-7825,1745203094483706733
238241,-9,52,-153,1102,2298,-7784,1745203094483706733
238433,-7,52,-150,1157,2311,-7738,1745203094483706733
238625,-2,47,-142,1198,2293,-7736,1745203094483706733
238817,2,37,-129,2518,-1,-1,1745203094545347107
239009,2,29,-114,1230,2149,-7720,1745203094545347107
239201,-4,21,-100,1195,2058,-7758,1745203094545347107
239393,-10,14,-85,1164,1977,-7767,1745203094545347107
239585,-13,7,-78,1118,1898,-7763,1745203094545347107
239777,-16,1,-78,1081,1838,-7790,1745203094545347107
239969,-20,0,-86,1052,1800,-7778,1745203094545347107
240161,-23,1,-98,1042,1784,-7754,1745203094545347107
240353,-25,2,-108,1060,1769,-7755,1745203094545347107
240545,-28,1,-114,1083,1766,-7764,1745203094545347107
240737,-37,1,-115,1136,1745,-7775,1745203094545347107
240929,-47,-3,-111,1189,1740,-7798,1745203094545347107
241121,-54,-6,-108,1244,1724,-7785,1745203094598675891
241313,-57,-11,-101,1285,1732,-7782,1745203094598675891
241505,-61,-21,-98,1299,1776,-7770,1745203094598675891
241697,-64,-30,-97,1308,1810,-7776,1745203094598675891
241889,-65,-40,-98,1283,1850,-7725,1745203094598675891
242081,-66,-46,-101,1247,1906,-7875,1745203094598675891
242273,-60,-51,-104,1212,1961,-7913,1745203094598675891
242465,-48,-49,-109,1171,2015,-7938,1745203094598675891
242657,-31,-45,-115,1128,2065,-7921,1745203094598675891
242849,-15,-40,-119,1108,2054,-7914,1745203094598675891
243041,1,-35,-122,1085,2004,-7942,1745203094598675891
243233,15,-32,-120,1061,1933,-7947,1745203094598675891
243425,23,-28,-115,1049,1843,-7963,1745203094659927779
243617,24,-23,-105,1026,1751,-7984,1745203094659927779
243809,19,-20,-94,1008,1676,-7984,1745203094659927779
244001,13,-14,-82,971,1632,-7959,1745203094659927779
244193,2,-11,-73,947,1600,-7955,1745203094659927779
244385,-10,-9,-68,932,1606,-7937,1745203094659927779
244577,-22,-6,-64,913,1621,-7917,1745203094659927779
244769,-33,-3,-60,936,1685,-7904,1745203094659927779
244961,-44,1,-55,935,1749,-7895,1745203094659927779
245153,-50,5,-50,978,1814,-7873,1745203094659927779
245345,-48,8,-46,988,1871,-7866,1745203094659927779
245537,-43,11,-42,1019,1948,-7861,1745203094659927779
245729,-37,11,-40,1042,2026,-7829,1745203094720674099
245921,-33,10,-37,1051,2077,-7810,1745203094720674099
246113,-28,8,-32,1063,2088,-7827,1745203094720674099
246305,-22,6,-25,1065,2081,-7841,1745203094720674099
246497,-13,4,-17,1043,2041,-7873,1745203094720674099
246689,-5,2,-10,1041,2008,-7873,1745203094720674099
246881,0,2,-5,1046,1961,-7834,1745203094720674099
247073,2,3,-2,1064,1921,-7800,1745203094720674099
247265,2,3,0,1085,1897,-7797,1745203094720674099
247457,3,1,3,1113,1863,-7773,1745203094720674099
247649,9,-2,4,1121,1824,-7780,1745203094720674099
247841,19,-4,9,1127,1777,-7750,1745203094720674099
248033,29,-7,14,1136,1735,-7748,1745203094782789573
248225,34,-10,16,1151,1702,-7763,1745203094782789573
248417,29,-14,18,1132,1690,-7782,1745203094782789573
248609,16,-18,20,1131,1702,-7804,1745203094782789573
248801,2,-22,24,1119,1723,-7831,1745203094782789573
248993,-7,-25,30,1098,1738,-7840,1745203094782789573
249185,-11,-25,34,1093,1790,-7845,1745203094782789573
249377,-11,-24,38,1075,1822,-7859,1745203094782789573
249569,-10,-23,40,1045,1868,-7904,1745203094782789573
249761,-9,-21,40,1039,1907,-7907,1745203094782789573
249953,-8,-20,39,1003,1943,-7921,1745203094782789573
250145,-5,-20,38,981,1963,-7913,1745203094782789573
250337,0,-19,37,929,1970,-7928,1745203094837399439
250529,7,-17,35,739,1498,-6690,1745203094837399439
250721,300,21,12,-1039,-3318,-1597,1745203094837399439
250913,-137,758,-229,-1668,-3475,-12552,1745203094837399439
251105,-322,555,-299,181,1523,-10380,1745203094837399439
251297,-428,333,-73,612,3798,-7206,1745203094837399439
251489,-392,460,-3,1232,3331,-6991,1745203094837399439
251681,-370,685,-63,783,2499,-8019,1745203094837399439
251873,-369,447,-146,1469,2648,-8748,1745203094837399439
252065,-426,205,-164,2243,2480,-7588,1745203094837399439
252257,-343,147,-134,2803,2609,-7829,1745203094837399439
252449,-295,19,-108,2988,2498,-7802,1745203094837399439
252641,-260,-87,-76,3058,2679,-7863,1745203094906999793
252833,-222,-178,-18,2877,2831,-7707,1745203094906999793
253025,-136,-261,40,2551,3058,-7760,1745203094906999793
253217,-49,-330,78,2096,3239,-7815,1745203094906999793
253409,26,-363,94,1532,3239,-7821,1745203094906999793
253601,99,-360,98,889,3096,-7821,1745203094906999793
253793,168,-321,103,355,2858,-7790,1745203094906999793
253985,234,-255,107,-5,2625,-7760,1745203094906999793
254177,283,-185,100,-59,2278,-7773,1745203094906999793
254369,289,-132,76,160,1762,-7811,1745203094906999793
254561,263,-102,43,458,1398,-7861,1745203094906999793
254753,221,-83,18,667,1169,-7882,1745203094906999793
254945,171,-70,11,831,1083,-7863,1745203094950515958
255137,120,-67,16,1039,1117,-7794,1745203094950515958
255329,69,-78,21,1199,1126,-7741,1745203094950515958
255521,17,-107,17,1321,1140,-7737,1745203094950515958
255713,-29,-137,7,1347,1188,-7764,1745203094950515958
255905,-69,-161,-1,1287,1261,-7781,1745203094950515958
256097,-111,-173,-11,1197,1328,-7894,1745203094950515958
256289,-146,-176,-12,1141,1471,-7944,1745203094950515958
256481,-176,-179,-11,1096,1625,-7979,1745203094950515958
256673,-200,-181,-3,1075,1722,-7985,1745203094950515958
256865,-215,-185,7,1137,1894,-7970,1745203094950515958
257057,-215,-187,16,1085,1915,-7905,1745203094950515958
257249,-216,-176,27,1000,2080,-7933,1745203095019270174
257441,-203,-163,42,911,2305,-7898,1745203095019270174
257633,-169,-142,53,810,2683,-7828,1745203095019270174
257825,-109,-115,59,666,2958,-7763,1745203095019270174
258017,-38,-80,49,544,3048,-7702,1745203095019270174
258209,12,-14,33,161,2721,-7775,1745203095019270174
258401,54,69,46,74,2458,-7849,1745203095019270174
258593,86,133,63,124,2154,-7915,1745203095019270174
258785,99,190,69,288,1826,-7884,1745203095019270174
258977,85,227,62,377,1673,-7822,1745203095019270174
259169,58,261,46,395,1527,-7840,1745203095019270174
259361,29,286,30,613,1498,-7902,1745203095019270174
260129,-137,247,-16,1429,1667,-7888,1745203096653286445
321953,-185,-268,54,909,1438,-7311,1745203096653286445
322145,-217,-317,84,806,1748,-8161,1745203096653286445
322337,-243,-231,113,498,2154,-7851,1745203096653286445
322529,-209,-187,115,438,2342,-8002,1745203096653286445
322721,-206,-139,91,502,2402,-7971,1745203096653286445
322913,-164,-86,44,587,2334,-7940,1745203096653286445
323105,-112,-47,-9,630,2172,-8018,1745203096653286445
323297,-89,-8,-37,693,2009,-7995,1745203096653286445
323489,-47,25,-43,807,1935,-8004,1745203096653286445
323681,-35,49,-44,876,1784,-7937,1745203096653286445
323873,-41,73,-50,984,1539,-7942,1745203096653286445
324065,-61,81,-69,998,1322,-7934,1745203096709712388
324257,-98,92,-87,826,1168,-7917,1745203096709712388
324449,-131,121,-103,691,1183,-7924,1745203096709712388
324641,-159,145,-114,609,1203,-7957,1745203096709712388
324833,-189,186,-126,672,1418,-7981,1745203096709712388
325025,-202,212,-129,784,1661,-7972,1745203096709712388
325217,-191,225,-115,1001,1909,-7965,1745203096709712388
325409,-161,225,-93,1243,2113,-7986,1745203096709712388
325601,-124,221,-73,1487,2366,-8042,1745203096709712388
325793,-93,212,-61,1648,2561,-8054,1745203096709712388
325985,-53,205,-51,1664,2726,-8038,1745203096709712388
326177,2,193,-39,1650,2844,-7990,1745203096709712388
326369,70,175,-27,1644,2898,-7965,1745203096769944546
326561,147,158,-18,1570,2973,-7963,1745203096769944546
326753,230,155,-12,1373,3062,-8000,1745203096769944546
326945,312,172,-11,1091,3113,-8006,1745203096769944546
327137,397,195,-15,1181,2471,-6628,1745203096769944546
327329,409,169,-32,1123,3741,-10295,1745203096769944546
327521,641,252,7,1047,3696,-6663,1745203096769944546
327713,667,252,-38,870,2283,-7946,1745203096769944546
327905,522,257,-80,1293,1759,-9229,1745203096769944546
328097,174,90,-65,2655,658,-5582,1745203096769944546
328289,584,-58,-49,2454,128,-7018,1745203096769944546
328481,504,-71,-26,2029,-499,-7859,1745203096769944546
328673,357,-114,-11,1616,-855,-7742,1745203096831005759
328865,196,-83,3,1170,-825,-7821,1745203096831005759
329057,54,-78,40,840,-487,-7798,1745203096831005759
329249,-64,-59,74,703,100,-7707,1745203096831005759
329441,-161,-26,84,747,751,-7699,1745203096831005759
329633,-218,-4,71,917,1375,-7690,1745203096831005759
329825,-236,11,42,1154,1851,-7719,1745203096831005759
330017,-216,10,5,1407,2168,-7745,1745203096831005759
330209,-175,0,-21,1642,2329,-7754,1745203096831005759
330401,-132,-18,-32,1777,2317,-7764,1745203096831005759
330593,-92,-46,-27,1840,2190,-7736,1745203096831005759
330785,-59,-78,-14,1786,1990,-7702,1745203096831005759
330977,-40,-110,-5,1621,1796,-7727,1745203096882498674
331169,-35,-135,-4,1418,1651,-7756,1745203096882498674
331361,-43,-152,-11,1219,1515,-7732,1745203096882498674
331553,-55,-160,-24,1055,1442,-7709,1745203096882498674
331745,-63,-159,-36,922,1435,-7707,1745203096882498674
331937,-70,-151,-48,878,1469,-7726,1745203096882498674
332129,-80,-138,-60,876,1486,-7761,1745203096882498674
332321,-91,-129,-72,942,1474,-7741,1745203096882498674
332513,-103,-123,-82,1028,1463,-7693,1745203096882498674
332705,-118,-122,-88,1112,1408,-7716,1745203096882498674
332897,-137,-126,-92,1174,1354,-7772,1745203096882498674
333089,-156,-133,-95,1194,1288,-7843,1745203096882498674
333281,-174,-142,-99,1202,1224,-7881,1745203096941699800
333473,-194,-150,-105,1149,1212,-7899,1745203096941699800
333665,-213,-155,-110,1075,1230,-7889,1745203096941699800
333857,-228,-157,-113,1003,1298,-7903,1745203096941699800
334049,-241,-155,-117,888,1448,-7937,1745203096941699800
334241,-252,-149,-126,843,1585,-7952,1745203096941699800
334433,-261,-139,-138,786,1736,-7922,1745203096941699800
334625,-264,-123,-156,751,1885,-7941,1745203096941699800
334817,-254,-109,-171,746,2033,-7909,1745203096941699800
335009,-226,-96,-184,781,2110,-7943,1745203096941699800
335201,-189,-83,-196,827,2191,-8048,1745203096941699800
335393,-157,-70,-211,868,2230,-8087,1745203096941699800
335585,-133,-58,-224,897,2234,-8078,1745203096999410835
335777,-114,-50,-229,888,2154,-8037,1745203096999410835
335969,-93,-41,-226,903,2025,-8008,1745203096999410835
336161,-71,-31,-223,901,1878,-7960,1745203096999410835
336353,-54,-20,-225,908,1772,-7963,1745203096999410835
336545,-47,-11,-231,879,1696,-7966,1745203096999410835
336737,-49,-2,-239,874,1663,-8003,1745203096999410835
336929,-59,8,-243,849,1716,-8021,1745203096999410835
337121,-73,21,-242,858,1798,-8002,1745203096999410835
337313,-87,35,-235,881,1925,-7954,1745203096999410835
337505,-96,50,-225,934,2044,-7941,1745203096999410835
337697,-97,64,-212,986,2134,-7920,1745203096999410835
337889,-89,73,-198,1062,2162,-7943,1745203097058273422
338081,-75,85,-188,1114,2164,-7989,1745203097058273422
338273,-60,97,-183,1155,2170,-8013,1745203097058273422
338465,-47,110,-176,1157,2172,-7995,1745203097058273422
338657,-37,128,-164,1176,2190,-7988,1745203097058273422
338849,-30,150,-148,1205,2198,-7972,1745203097058273422
339041,-22,175,-133,1251,2199,-7997,1745203097058273422
339233,-14,200,-121,1311,2194,-8049,1745203097058273422
339425,-10,224,-111,1356,2193,-8166,1745203097058273422
339617,-12,249,-101,1413,2173,-8343,1745203097058273422
339809,-22,272,-92,1483,2144,-8547,1745203097058273422
340001,-37,298,-83,1538,2131,-8756,1745203097058273422
340193,-53,326,-77,1643,2162,-8991,1745203097116745024
340385,-72,355,-79,1778,2302,-9284,1745203097116745024
340577,-93,387,-93,1966,2558,-9653,1745203097116745024
340769,-109,413,-119,2158,2993,-10248,1745203097116745024
340961,-105,431,-155,2392,3568,-11098,1745203097116745024
341153,-41,453,-214,2649,4288,-12211,1745203097116745024
341345,80,487,-294,2980,5167,-13408,1745203097116745024
341537,198,540,-397,3589,5934,-14453,1745203097116745024
341729,192,630,-588,4400,5998,-15316,1745203097116745024
341921,-46,728,-820,4595,5754,-13286,1745203097116745024
342113,-632,765,-686,4665,5659,-11482,1745203097116745024
342305,-991,692,-283,5358,5221,-11313,1745203097116745024
342497,-943,364,78,6117,4600,-11465,1745203097183405560
342689,-742,-38,337,6268,4225,-10354,1745203097183405560
342881,-565,-411,543,6174,3504,-8926,1745203097183405560
343073,-439,-649,645,6463,2407,-8314,1745203097183405560
343265,-457,-620,237,7928,1256,-8765,1745203097183405560
343457,-567,-493,-855,7275,-65,-7994,1745203097183405560
343649,-320,-724,-1550,6173,-414,-5740,1745203097183405560
343841,-71,-1179,-1750,4704,232,-3767,1745203097183405560
344033,-120,-1493,-1637,2926,1184,-3450,1745203097183405560
344225,-425,-1786,-1477,1097,1747,-3930,1745203097183405560
344417,-778,-1871,-1435,-495,1514,-4120,1745203097183405560
344609,-1025,-1775,-1479,-2214,725,-3733,1745203097183405560
344801,-1115,-1686,-1488,-3914,-200,-2999,1745203097233380989
344993,-1072,-1601,-1345,-5606,-1255,-1879,1745203097233380989
345185,-912,-1472,-1021,-6728,-2139,-905,1745203097233380989
345377,-694,-1317,-583,-7372,-3203,-1305,1745203097233380989
345569,-716,-1267,-149,-6802,-4904,-1385,1745203097233380989
345761,-963,-1464,514,-13484,-1854,-2896,1745203097233380989
345953,-1497,-1631,742,-11261,-6878,-560,1745203097233380989
346145,-485,-1401,542,-9870,-5160,4189,1745203097233380989
346337,-541,-302,353,-11467,-5097,1981,1745203097233380989
346529,-773,470,172,-11443,-4952,-201,1745203097233380989
346721,-958,879,123,-10522,-4572,-1521,1745203097233380989
346913,-1013,1224,251,-8710,-3648,-2184,1745203097233380989
347105,-995,1588,480,-6459,-2346,-2646,1745203097291467073
347297,-947,1784,666,-4481,-471,-3120,1745203097291467073
347489,-835,1857,764,-1649,1306,-3060,1745203097291467073
347681,-410,1929,767,-81,3513,-3425,1745203097291467073
347873,58,1972,678,1437,5677,-3751,1745203097291467073
348065,582,2007,562,2692,7438,-4547,1745203097291467073
348257,1165,2040,469,3845,9114,-5198,1745203097291467073
348449,1545,2083,397,4601,10118,-5047,1745203097291467073
348641,1828,2106,384,4851,9517,-4618,1745203097291467073
348833,1947,2110,494,7289,6661,-1742,1745203097291467073
349025,2182,2147,736,8192,4459,-1204,1745203097291467073
349217,2596,1816,730,10423,5501,-16922,1745203097291467073
349409,2445,1074,258,14422,9290,-28929,1745203097350665803
349601,1476,203,-667,16462,9013,-30824,1745203097350665803
349793,-94,-858,-1395,15259,8422,-29393,1745203097350665803
349985,-2325,-1317,-1256,11499,3131,-15510,1745203097350665803
350177,-2131,-1019,-591,7843,1242,-9128,1745203097350665803
350369,-1469,-704,252,4386,209,-6102,1745203097350665803
350561,-690,-413,855,2088,807,-6083,1745203097350665803
350753,-259,-279,1049,1016,1397,-7790,1745203097350665803
350945,-244,-292,823,185,1968,-9320,1745203097350665803
351137,-510,-284,336,-225,2722,-10156,1745203097350665803
351329,-902,-209,-157,-581,3188,-10426,1745203097350665803
351521,-1240,-53,-481,-286,3952,-9742,1745203097350665803
351713,-1378,196,-543,774,4316,-8704,1745203097410505100
351905,-1187,396,-376,2112,4600,-7795,1745203097410505100
352097,-731,482,-112,3644,4716,-7905,1745203097410505100
352289,-172,424,115,4661,4808,-8018,1745203097410505100
352481,284,316,178,4939,4858,-8648,1745203097410505100
352673,451,174,52,4493,4582,-9843,1745203097410505100
352865,389,61,-141,3489,3722,-9926,1745203097410505100
353057,299,-8,-264,2130,2778,-9057,1745203097410505100
353249,256,-66,-277,834,2069,-8024,1745203097410505100
353441,215,-66,-222,-218,1742,-7351,1745203097410505100
353633,129,3,-156,-901,1648,-6718,1745203097410505100
353825,14,111,-113,-1192,1655,-6366,1745203097410505100
354017,-60,209,-103,-1112,1864,-6137,1745203097467630724
354209,-57,282,-128,-766,2236,-5986,1745203097467630724
354401,-1,343,-168,-266,2728,-6104,1745203097467630724
354593,75,376,-203,329,3184,-6105,1745203097467630724
354785,164,390,-223,887,3470,-5997,1745203097467630724
354977,275,382,-222,1348,3538,-5916,1745203097467630724
355169,411,347,-194,1660,3426,-5898,1745203097467630724
355361,556,294,-146,1800,3212,-5912,1745203097467630724
355553,692,233,-92,1738,2863,-5988,1745203097467630724
355745,804,183,-42,1461,2448,-6066,1745203097467630724
355937,884,152,-2,1139,2043,-6104,1745203097467630724
356129,939,139,28,836,1704,-6086,1745203097467630724
356321,965,146,51,583,1445,-6019,1745203097530476765
356513,962,157,70,446,1208,-6020,1745203097530476765
356705,940,165,93,441,965,-6294,1745203097530476765
356897,907,168,118,511,781,-6662,1745203097530476765
357089,862,165,132,673,697,-7110,1745203097530476765
357281,799,159,123,912,782,-7547,1745203097530476765
357473,705,149,100,1200,1058,-7893,1745203097530476765
357665,584,127,72,1527,1474,-8168,1745203097530476765
357857,448,89,44,1874,1914,-8412,1745203097530476765
358049,329,38,26,2217,2382,-8846,1745203097530476765
358241,247,-30,20,2465,2884,-9222,1745203097530476765
358433,197,-101,25,2655,3425,-9523,1745203097530476765
358625,149,-176,28,2809,3939,-9689,1745203097584278148
358817,79,-242,25,2907,4368,-9734,1745203097584278148
359009,-25,-307,25,3017,4599,-9598,1745203097584278148
359201,-143,-384,34,3103,4614,-9300,1745203097584278148
359393,-255,-463,52,3172,4468,-8929,1745203097584278148
359585,-349,-563,66,3218,4275,-8556,1745203097584278148
359777,-428,-670,63,3156,4047,-8213,1745203097584278148
359969,-501,-777,38,3033,3825,-7912,1745203097584278148
360161,-564,-885,-13,2857,3573,-7511,1745203097584278148
360353,-606,-994,-76,2599,3256,-6989,1745203097584278148
360545,-612,-1102,-129,2259,2889,-6454,1745203097584278148
360737,-574,-1210,-158,1844,2472,-5927,1745203097584278148
360929,-515,-1313,-160,1367,1949,-5430,1745203097649729113
361121,-458,-1404,-128,818,1197,-4868,1745203097649729113
361313,-403,-1482,-49,190,168,-4099,1745203097649729113
361505,-346,-1550,80,-521,-1092,-3149,1745203097649729113
361697,-268,-1596,245,-1377,-2393,-2381,1745203097649729113
361889,-161,-1597,420,-2302,-3474,-1853,1745203097649729113
362081,-64,-1542,542,-3082,-4424,-1535,1745203097649729113
362273,-14,-1441,560,-3944,-5034,-1236,1745203097649729113
362465,-57,-1304,552,-4898,-5552,-1150,1745203097649729113
362657,-264,-1111,600,-4642,-5554,-1500,1745203097649729113
362849,-633,-970,812,-7456,-6240,-1488,1745203097649729113
363041,-568,-923,796,-6934,-5523,-1157,1745203097649729113
363233,-680,-437,920,-6656,-3902,-1262,1745203097713099107
363617,-1215,395,1209,-4751,-1391,-917,1745203097713099107
363809,-1316,968,1328,-3697,192,-2306,1745203097713099107
364001,-1280,1340,1395,-2296,1675,-3201,1745203097713099107
364193,-1119,1635,1420,-783,3310,-3839,1745203097713099107
364385,-895,1959,1408,658,5024,-4777,1745203097713099107
364577,-709,2240,1393,1508,6648,-5646,1745203097713099107
364769,-591,2491,1439,3390,7882,-5863,1745203097713099107
364961,-464,2772,1421,2896,8644,-1903,1745203097713099107
365153,-401,2836,1371,5230,9611,-3856,1745203097713099107
365345,900,3350,1146,10067,12901,-20550,1745203097713099107
365537,2154,2520,413,9183,19060,-22062,1745203097713099107
365729,1885,603,-263,11744,21520,-22821,1745203097774792971
365921,1480,26,-938,13967,23758,-25912,1745203097774792971
366113,640,-55,-1391,12655,17402,-22873,1745203097774792971
366305,314,-236,-1175,10107,10750,-17947,1745203097774792971
366497,587,-348,-427,8063,5826,-14234,1745203097774792971
366689,1064,-505,397,6339,2825,-12330,1745203097774792971
366881,1436,-684,1074,4775,491,-10927,1745203097774792971
367073,1547,-845,1514,3223,-1510,-9570,1745203097774792971
367265,1411,-858,1636,1089,-3854,-8869,1745203097774792971
367457,1118,-711,1478,-823,-5083,-8939,1745203097774792971
367649,745,-469,981,-2834,-6926,-8562,1745203097774792971
367841,335,-277,424,-3476,-6670,-7421,1745203097774792971
368033,-34,-86,-90,-3890,-6259,-6771,1745203097823180445
368225,-338,82,-385,-3529,-5218,-6347,1745203097823180445
368417,-564,232,-447,-2672,-3561,-5805,1745203097823180445
368609,-709,360,-370,-1465,-1698,-5201,1745203097823180445
368801,-796,451,-256,-88,288,-4185,1745203097823180445
368993,-814,554,-139,1095,1878,-3654,1745203097823180445
369185,-753,648,-22,1930,3219,-3533,1745203097823180445
369377,-561,659,110,2680,4256,-3139,1745203097823180445
369569,-252,620,205,3200,4303,-2705,1745203097823180445
369761,150,520,294,3287,4227,-2810,1745203097823180445
369953,540,372,346,3178,3688,-2631,1745203097823180445
370145,869,255,356,2889,3403,-3084,1745203097823180445
370337,1087,161,289,2352,3026,-3576,1745203097883591091
370529,1184,97,167,1913,2663,-4081,1745203097883591091
370721,1176,60,31,1395,2390,-4468,1745203097883591091
370913,1113,68,-101,899,2361,-4868,1745203097883591091
371105,1034,107,-230,571,2470,-5202,1745203097883591091
371297,964,179,-332,509,2822,-5638,1745203097883591091
371489,923,238,-414,765,3297,-6213,1745203097883591091
371681,900,271,-495,1213,3764,-6762,1745203097883591091
371873,898,292,-564,1669,4049,-7304,1745203097883591091
372065,913,291,-568,2074,4016,-7895,1745203097883591091
372257,935,245,-472,2453,3525,-8498,1745203097883591091
372449,957,166,-306,2700,2735,-9162,1745203097883591091
372641,964,70,-111,2817,1795,-9760,1745203097953001238
372833,924,-39,73,2819,893,-10249,1745203097953001238
373025,818,-137,216,2711,86,-10591,1745203097953001238
373217,642,-213,300,2544,-484,-10861,1745203097953001238
373409,410,-262,320,2336,-845,-10982,1745203097953001238
373601,139,-279,287,2093,-931,-10947,1745203097953001238
373793,-138,-272,223,1871,-711,-10731,1745203097953001238
373985,-392,-243,153,1688,-242,-10425,1745203097953001238
374177,-587,-199,100,1614,394,-10071,1745203097953001238
374369,-706,-142,73,1642,1126,-9687,1745203097953001238
374561,-748,-77,64,1741,1876,-9400,1745203097953001238
374753,-724,-7,69,1875,2565,-9132,1745203097953001238
374945,-650,66,81,2021,3063,-9022,1745203098003398486
375137,-540,131,99,2218,3417,-9148,1745203098003398486
375329,-395,177,114,2472,3610,-9624,1745203098003398486
375521,-237,201,108,2676,3736,-10116,1745203098003398486
375713,-108,232,77,2922,3762,-10451,1745203098003398486
375905,-35,276,37,3068,3574,-10789,1745203098003398486
376097,-9,313,4,3154,3217,-11101,1745203098003398486
376289,-9,329,-7,3173,2805,-11232,1745203098003398486
376481,-30,321,-1,3134,2463,-11372,1745203098003398486
376673,-76,298,10,3035,2219,-11534,1745203098003398486
376865,-159,274,11,2885,2035,-11562,1745203098003398486
377057,-255,238,8,2750,1903,-11650,1745203098003398486
377249,-320,175,9,2554,1752,-11571,1745203098063885069
377441,-338,96,28,2372,1560,-11108,1745203098063885069
377633,-316,22,76,2175,1318,-10580,1745203098063885069
377825,-260,-54,136,1968,1116,-10107,1745203098063885069
378017,-189,-128,186,1808,899,-9751,1745203098063885069
378209,-126,-205,215,1653,603,-9276,1745203098063885069
378401,-85,-281,207,1486,164,-8617,1745203098063885069
378593,-66,-340,159,1409,-291,-7779,1745203098063885069
378785,-65,-361,72,1375,-717,-6985,1745203098063885069
378977,-85,-373,-15,1298,-1153,-6108,1745203098063885069
379169,-164,-391,-52,1255,-1443,-5277,1745203098063885069
379361,-313,-422,-35,1287,-1609,-4725,1745203098063885069
379553,-483,-477,33,1459,-1734,-4323,1745203098122709376
379745,-635,-564,132,1725,-1771,-3983,1745203098122709376
379937,-739,-660,239,2012,-1741,-3687,1745203098122709376
380129,-812,-735,349,2176,-1443,-3444,1745203098122709376
380321,-866,-799,435,2240,-861,-3058,1745203098122709376
380513,-913,-848,502,2280,-228,-2586,1745203098122709376
380705,-950,-883,549,2226,361,-2108,1745203098122709376
380897,-967,-912,593,1948,1011,-1761,1745203098122709376
381089,-960,-916,643,1571,1486,-1420,1745203098122709376
381281,-933,-877,687,1020,1893,-1218,1745203098122709376
381473,-893,-790,725,435,2159,-1198,1745203098122709376
381665,-846,-648,748,-126,2296,-1280,1745203098122709376
381857,-786,-463,759,-558,2355,-1384,1745203098183656319
382049,-679,-266,759,-890,2186,-1698,1745203098183656319
382241,-527,-53,757,-922,2543,-1963,1745203098183656319
382433,-338,171,708,-868,2824,-2344,1745203098183656319
382625,-148,395,623,-701,3125,-2824,1745203098183656319
382817,21,632,534,-408,3472,-3604,1745203098183656319
383009,174,859,455,42,3902,-4440,1745203098183656319
383201,340,1074,391,527,4388,-5203,1745203098183656319
383393,544,1259,342,1112,4882,-5947,1745203098183656319
383585,798,1420,306,1605,5573,-6701,1745203098183656319
383777,1052,1543,263,2032,6060,-7382,1745203098183656319
383969,1307,1641,236,2368,6358,-7854,1745203098183656319
384161,1538,1714,230,2630,6441,-8171,1745203098241481884
384353,1694,1773,247,2573,6098,-7046,1745203098241481884
384545,1793,1853,235,3415,5396,-7674,1745203098241481884
384737,2517,1615,97,4976,7612,-17275,1745203098241481884
384929,3203,624,-59,6758,10085,-18096,1745203098241481884
385121,3105,-317,-479,8303,10798,-19657,1745203098241481884
385313,2412,-816,-1055,8490,8421,-21711,1745203098241481884
385505,1417,-902,-1367,6817,3911,-19914,1745203098241481884
385697,718,-821,-1235,5060,-9,-16508,1745203098241481884
385889,103,-685,-828,3877,-1925,-15814,1745203098241481884
386081,-866,-470,-293,3008,-2813,-12389,1745203098241481884
386273,-1264,-390,18,2460,-2255,-11096,1745203098241481884
386465,-1812,-318,194,1949,-1532,-7835,1745203098292923602
386657,-1620,-401,186,1701,501,-8046,1745203098292923602
386849,-1723,-432,-1,1927,2616,-8316,1745203098292923602
387041,-1939,-442,-278,2020,4235,-8547,1745203098292923602
387233,-1971,-477,-524,2819,5948,-8205,1745203098292923602
387425,-1803,-588,-739,3393,6572,-7391,1745203098292923602
387617,-1393,-753,-853,3745,6798,-6961,1745203098292923602
387809,-806,-936,-938,4259,6668,-6403,1745203098292923602
388001,-154,-1104,-1003,4524,5983,-5947,1745203098292923602
388193,436,-1264,-1042,4463,4816,-5757,1745203098292923602
388385,885,-1436,-1038,3988,3202,-5547,1745203098292923602
388577,1165,-1626,-971,3209,1310,-5088,1745203098292923602
388769,1295,-1810,-846,2214,-689,-4553,1745203098358031132
388961,1288,-1929,-692,1018,-2558,-4123,1745203098358031132
389153,1179,-1934,-564,-405,-4102,-3657,1745203098358031132
389345,960,-1837,-465,-1975,-4931,-2819,1745203098358031132
389537,645,-1644,-368,-3175,-5056,-1978,1745203098358031132
389729,98,-1374,-212,-3031,-6392,-1116,1745203098358031132
389921,-256,-1053,-383,-4393,-4612,-2635,1745203098358031132
390113,-820,-863,-414,-7390,-6576,-1241,1745203098358031132
390305,-1105,-501,-203,-5831,-6094,-1195,1745203098358031132
390497,-1169,-121,91,-5663,-4786,-1734,1745203098358031132
390689,-1422,262,459,-5048,-4031,-2359,1745203098358031132
390881,-1485,560,778,-4299,-2688,-3333,1745203098358031132
391073,-1508,718,942,-3193,-865,-3737,1745203098409711598
391265,-1448,753,944,-2161,705,-3676,1745203098409711598
391457,-1179,760,918,-896,2153,-2663,1745203098409711598
391649,-560,1045,738,3,3501,-1707,1745203098409711598
391841,58,1430,516,116,4961,-1983,1745203098409711598
392033,618,1689,419,478,6342,-2760,1745203098409711598
392225,1127,1917,320,694,7369,-4088,1745203098409711598
392417,1607,2086,257,943,7752,-5661,1745203098409711598
392609,2058,2161,218,1498,7463,-6289,1745203098409711598
392801,2421,2284,172,1086,6082,-5905,1745203098409711598
392993,2633,2298,127,2824,4351,-4450,1745203098409711598
393185,4285,2502,-27,7515,5695,-17083,1745203098409711598
393377,5951,2120,-691,4446,6671,-23984,1745203098473105758
393569,5209,611,-1630,10140,7762,-30003,1745203098473105758
393761,2748,-589,-1959,7977,146,-27833,1745203098473105758
393953,879,-605,-1850,6283,-4960,-22983,1745203098473105758
394145,-335,-230,-1315,5209,-7178,-18952,1745203098473105758
394337,-826,-81,-703,4343,-7049,-15441,1745203098473105758
394529,-900,-165,-191,3497,-5302,-12350,1745203098473105758
394721,-976,-237,127,2650,-3001,-10434,1745203098473105758
394913,-1159,-326,242,2084,-691,-10039,1745203098473105758
395105,-1401,-424,190,1598,1166,-10126,1745203098473105758
395297,-1641,-453,37,1361,2582,-9821,1745203098473105758
395489,-1836,-434,-169,1386,3641,-9008,1745203098473105758
395681,-2036,-388,-360,1781,4923,-9946,1745203098526790476
395873,-2366,-364,-492,2133,4673,-6203,1745203098526790476
396065,-1757,-412,-596,2907,5623,-7348,1745203098526790476
396257,-1509,-446,-640,3520,5238,-7426,1745203098526790476
396449,-1122,-558,-630,3982,4045,-6411,1745203098526790476
396641,-616,-700,-566,4110,2689,-5969,1745203098526790476
396833,-126,-902,-440,4144,1220,-5878,1745203098526790476
397025,268,-1085,-326,3939,-180,-6061,1745203098526790476
397217,476,-1206,-303,3560,-1342,-6134,1745203098526790476
397409,485,-1282,-386,3074,-2144,-6156,1745203098526790476
397601,314,-1339,-546,2448,-2534,-5996,1745203098526790476
397793,8,-1355,-702,1756,-2631,-5494,1745203098526790476
397985,-342,-1342,-785,1091,-2435,-4499,1745203098596625932
398177,-654,-1311,-769,438,-1898,-3164,1745203098596625932
398369,-866,-1249,-674,-83,-1492,-2078,1745203098596625932
398561,-962,-1161,-510,-601,-745,-1246,1745203098596625932
398753,-937,-1063,-363,-1033,-168,-325,1745203098596625932
398945,-833,-921,-276,-1556,260,230,1745203098596625932
399137,-733,-736,-245,-2133,526,415,1745203098596625932
399329,-659,-545,-246,-2477,512,103,1745203098596625932
399521,-693,-435,-242,-3348,183,-781,1745203098596625932
399713,-746,-437,-114,-3529,-1452,1840,1745203098596625932
399905,-695,-315,155,-4583,-830,-1405,1745203098596625932
400097,-656,-641,172,-3118,-906,778,1745203098596625932
400289,-334,-294,247,-2938,-2219,8970,1745203098644828564
400481,90,892,319,-2728,-1505,4424,1745203098644828564
400673,343,1387,395,-3332,-900,3567,1745203098644828564
400865,558,1628,508,-2918,-288,3756,1745203098644828564
401057,832,1968,592,-2011,681,3779,1745203098644828564
401249,1156,2182,588,-1273,1413,3742,1745203098644828564
401441,1476,2385,527,-620,1876,1600,1745203098644828564
401633,1768,2649,460,4665,-48,-8361,1745203098644828564
401825,5040,2960,-371,5647,3903,-29944,1745203098644828564
402017,1825,-1091,-1899,19439,23437,-31530,1745203098644828564
402209,-3150,-1706,-3564,14400,17584,-12402,1745203098644828564
402401,-5103,-309,-3450,9097,9759,4224,1745203098644828564
402593,-3157,6,-2042,7618,4567,8068,1745203098703510424
402785,-274,122,-230,6852,439,1608,1745203098703510424
402977,2423,-284,1133,5949,1048,-8250,1745203098703510424
403169,2996,-797,1540,3647,3051,-11404,1745203098703510424
403361,2104,-1023,1268,582,3589,-12135,1745203098703510424
403553,574,-1029,679,-3280,2047,-9908,1745203098703510424
403745,-479,-647,192,-5729,307,-9803,1745203098703510424
403937,-1508,-189,-3,-4033,-929,-7364,1745203098703510424
404129,-1301,26,-69,-4968,-2303,-5768,1745203098703510424
404321,-498,-59,77,-3455,-2003,-6162,1745203098703510424
404513,38,95,81,216,-1343,-5688,1745203098703510424
404705,416,197,-101,1959,-1375,-6195,1745203098703510424
404897,505,497,-329,6912,-254,-8486,1745203098761665205
405089,208,492,-546,5873,-53,-8963,1745203098761665205
405281,-102,316,-648,5502,744,-8352,1745203098761665205
405473,-420,204,-492,4377,1770,-7875,1745203098761665205
405665,-622,-19,-167,3182,2697,-7314,1745203098761665205
405857,-699,-144,175,1658,3618,-7384,1745203098761665205
406049,-691,-177,401,432,4356,-8014,1745203098761665205
406241,-610,-168,436,-544,4976,-8087,1745203098761665205
406433,-480,-78,300,-1229,5207,-7709,1745203098761665205
406625,-274,47,112,-1452,4832,-7476,1745203098761665205
406817,-29,158,-81,-1048,4507,-7624,1745203098761665205
407009,209,248,-212,-406,3841,-7746,1745203098761665205
407201,377,286,-253,534,3088,-7926,1745203098820238316
407393,424,277,-245,1295,2125,-8052,1745203098820238316
407585,378,256,-144,1777,1602,-8015,1745203098820238316
407777,309,233,10,2105,1162,-7807,1745203098820238316
407969,236,194,170,2262,795,-7704,1745203098820238316
408161,173,164,266,2147,639,-7746,1745203098820238316
408353,120,125,265,1894,708,-7743,1745203098820238316
408545,76,107,185,1368,947,-7861,1745203098820238316
408737,47,123,99,849,1409,-7862,1745203098820238316
408929,26,155,44,436,1964,-7889,1745203098820238316
409121,11,186,30,267,2459,-7937,1745203098820238316
409313,3,203,34,307,2846,-8009,1745203098820238316
409505,-2,208,42,442,3091,-8011,1745203098878702157
409697,9,223,52,624,3163,-7988,1745203098878702157
409889,41,248,70,846,3113,-7977,1745203098878702157
410081,86,281,102,1096,2952,-7976,1745203098878702157
410273,131,312,133,1381,2711,-8018,1745203098878702157
410465,161,331,157,1629,2490,-8118,1745203098878702157
410657,161,340,171,1822,2262,-8185,1745203098878702157
410849,135,344,179,1956,2034,-8248,1745203098878702157
411041,79,341,191,2026,1780,-8289,1745203098878702157
411233,-7,336,204,2097,1519,-8226,1745203098878702157
411425,-99,327,210,2182,1294,-8159,1745203098878702157
411617,-203,301,215,2287,1080,-8012,1745203098878702157
411809,-312,265,220,2416,813,-8040,1745203098941182264
412001,-412,215,223,2560,568,-8149,1745203098941182264
412193,-510,162,222,2628,463,-8252,1745203098941182264
412385,-615,124,215,2654,498,-8470,1745203098941182264
412577,-727,96,201,2608,708,-8811,1745203098941182264
412769,-839,88,183,2516,1066,-9336,1745203098941182264
412961,-942,100,161,2382,1601,-9789,1745203098941182264
413153,-1028,126,134,2293,2234,-9994,1745203098941182264
413345,-1085,157,104,2333,2851,-10000,1745203098941182264
413537,-1109,185,73,2479,3428,-9946,1745203098941182264
413729,-1115,207,41,2789,3982,-9828,1745203098941182264
413921,-1095,215,1,3231,4584,-9878,1745203098941182264
414113,-1053,207,-52,3777,5390,-10166,1745203099002357173
414305,-972,161,-115,4490,6334,-10612,1745203099002357173
414497,-879,106,-214,5251,7290,-10584,1745203099002357173
414689,-925,80,-385,5875,8064,-10045,1745203099002357173
414881,-1032,26,-542,6402,8853,-9473,1745203099002357173
415073,-1022,-63,-675,7168,9467,-9590,1745203099002357173
415265,-968,-166,-865,7699,9439,-10196,1745203099002357173
415457,-923,-363,-1018,7874,9217,-10249,1745203099002357173
415649,-879,-612,-1108,7906,9308,-10200,1745203099002357173
415841,-744,-846,-1201,7705,9465,-10078,1745203099002357173
416033,-490,-1055,-1312,7257,9609,-9812,1745203099002357173
416225,-172,-1205,-1439,6648,9754,-9788,1745203099002357173
416417,123,-1300,-1579,6028,9747,-9925,1745203099060492840
416609,324,-1364,-1728,5426,9414,-10060,1745203099060492840
416801,394,-1404,-1867,4876,8808,-10206,1745203099060492840
416993,347,-1422,-1968,4465,8048,-10366,1745203099060492840
417185,222,-1415,-2030,4179,7278,-10316,1745203099060492840
417377,50,-1387,-2067,4025,6610,-10078,1745203099060492840
417569,-132,-1359,-2096,3975,6100,-9916,1745203099060492840
417761,-289,-1352,-2134,3968,5815,-9659,1745203099060492840
417953,-404,-1365,-2192,3874,5654,-9330,1745203099060492840
418145,-464,-1399,-2259,3670,5604,-9096,1745203099060492840
418337,-472,-1442,-2324,3317,5561,-8848,1745203099060492840
418529,-434,-1477,-2374,2851,5509,-8611,1745203099060492840
418721,-357,-1500,-2405,2259,5413,-8417,1745203099114563753
418913,-255,-1509,-2426,1628,5296,-8143,1745203099114563753
419105,-150,-1496,-2449,1014,5122,-7753,1745203099114563753
419297,-62,-1471,-2474,477,4834,-7347,1745203099114563753
419489,6,-1433,-2499,35,4371,-6956,1745203099114563753
419681,66,-1389,-2514,-338,3798,-6603,1745203099114563753
419873,132,-1348,-2518,-659,3209,-6320,1745203099114563753
420065,215,-1311,-2519,-944,2683,-6088,1745203099114563753
420257,311,-1279,-2517,-1189,2218,-5903,1745203099114563753
420449,421,-1252,-2510,-1474,1767,-5731,1745203099114563753
420641,523,-1223,-2494,-1769,1358,-5486,1745203099114563753
420833,607,-1191,-2468,-2069,977,-5231,1745203099114563753
421025,673,-1149,-2435,-2357,550,-4951,1745203099178306243
421217,719,-1107,-2401,-2593,62,-4611,1745203099178306243
421409,743,-1060,-2371,-2818,-264,-4296,1745203099178306243
421601,752,-1014,-2348,-3105,-693,-3969,1745203099178306243
421793,743,-946,-2316,-3387,-1191,-3745,1745203099178306243
421985,723,-880,-2277,-3519,-1715,-3545,1745203099178306243
422177,675,-824,-2253,-3527,-2394,-3400,1745203099178306243
422369,637,-772,-2233,-3802,-3045,-3080,1745203099178306243
422561,594,-705,-2183,-3893,-3569,-3158,1745203099178306243
422753,511,-648,-2084,-3952,-4124,-3083,1745203099178306243
422945,418,-592,-1957,-3959,-4512,-2831,1745203099178306243
423137,322,-511,-1838,-4380,-4848,-2645,1745203099178306243
423329,230,-488,-1702,-4885,-5276,-2563,1745203099228240006
423521,152,-432,-1542,-4574,-5469,-2544,1745203099228240006
423713,74,-396,-1403,-4754,-5648,-2543,1745203099228240006
423905,12,-350,-1277,-4880,-5726,-2576,1745203099228240006
424097,-20,-296,-1160,-4984,-5799,-2636,1745203099228240006
424289,-21,-255,-1049,-5023,-5855,-2638,1745203099228240006
424481,11,-206,-939,-5050,-5920,-2618,1745203099228240006
424673,70,-159,-823,-5053,-5975,-2569,1745203099228240006
424865,144,-109,-708,-4995,-6023,-2515,1745203099228240006
425057,229,-54,-589,-4944,-6152,-2546,1745203099228240006
425249,317,2,-463,-4860,-6266,-2620,1745203099228240006
425441,391,51,-332,-4798,-6402,-2739,1745203099228240006
425633,443,100,-194,-4725,-6513,-2871,1745203099296009231
425825,465,147,-57,-4652,-6625,-2973,1745203099296009231
426017,460,199,86,-4585,-6731,-3074,1745203099296009231
426209,434,254,227,-4467,-6804,-3225,1745203099296009231
426401,395,314,362,-4359,-6800,-3335,1745203099296009231
426593,350,375,499,-4241,-6720,-3455,1745203099296009231
426785,306,435,642,-4114,-6544,-3593,1745203099296009231
426977,262,496,789,-3942,-6270,-3633,1745203099296009231
427169,210,562,939,-3773,-5957,-3689,1745203099296009231
427361,150,628,1085,-3591,-5617,-3798,1745203099296009231
427553,103,689,1221,-3375,-5254,-3917,1745203099296009231
427745,78,746,1340,-3119,-4839,-4033,1745203099296009231
427937,80,800,1448,-2870,-4380,-4157,1745203099350340505
428129,101,854,1547,-2596,-3890,-4213,1745203099350340505
428321,137,908,1641,-2320,-3395,-4276,1745203099350340505
428513,179,960,1732,-2000,-2914,-4401,1745203099350340505
428705,209,1013,1815,-1643,-2469,-4487,1745203099350340505
428897,229,1072,1891,-1282,-2142,-4486,1745203099350340505
429089,243,1131,1959,-933,-1850,-4444,1745203099350340505
429281,256,1186,2027,-626,-1648,-4409,1745203099350340505
429473,267,1237,2098,-338,-1492,-4434,1745203099350340505
429665,277,1280,2174,-43,-1397,-4535,1745203099350340505
429857,282,1316,2245,237,-1325,-4681,1745203099350340505
430049,277,1355,2313,430,-1234,-4806,1745203099350340505
430241,261,1396,2380,586,-1127,-4923,1745203099409508767
430433,242,1432,2444,773,-968,-5089,1745203099409508767
430625,220,1479,2500,924,-701,-5252,1745203099409508767
430817,198,1520,2543,1107,-354,-5467,1745203099409508767
431009,179,1562,2577,1346,148,-5753,1745203099409508767
431201,182,1616,2598,2087,837,-6172,1745203099409508767
431393,218,1678,2608,2453,1758,-6571,1745203099409508767
431585,277,1740,2619,2673,2655,-6759,1745203099409508767
431777,390,1818,2613,3161,3766,-6915,1745203099409508767
431969,554,1899,2565,3719,4882,-7157,1745203099409508767
432161,743,1974,2469,4289,5841,-7374,1745203099409508767
432353,922,2049,2364,4879,6435,-7631,1745203099409508767
432545,1072,2108,2247,5264,7031,-7863,1745203099471614501
432737,1165,2130,2150,5634,6964,-8100,1745203099471614501
432929,1213,2124,2102,5934,6452,-8275,1745203099471614501
433121,1240,2065,2084,6205,5665,-8158,1745203099471614501
433313,1245,1986,2087,6331,4848,-8075,1745203099471614501
433505,1203,1901,2088,6355,4182,-8093,1745203099471614501
433697,1109,1813,2068,6327,3807,-8115,1745203099471614501
433889,972,1729,1996,6238,3791,-8041,1745203099471614501
434081,820,1648,1856,6105,4080,-7793,1745203099471614501
434273,671,1570,1657,5884,4488,-7473,1745203099471614501
434465,547,1489,1440,5560,4910,-7103,1745203099471614501
434657,474,1416,1235,5183,5303,-6803,1745203099471614501
434849,449,1359,1054,4865,5572,-7278,1745203099524726985
435041,428,1302,915,4372,5138,-6421,1745203099524726985
435233,334,1304,814,4006,4118,-1429,1745203099524726985
435425,199,1366,668,3414,3893,-4365,1745203099524726985
435617,-44,1205,505,4847,4925,-11800,1745203099524726985
435809,301,781,142,6898,6785,-22048,1745203099524726985
436001,562,-156,-574,8807,11377,-28974,1745203099524726985
436193,-959,-1074,-1320,8485,11482,-28759,1745203099524726985
436385,-1680,-1220,-1679,7391,11932,-27931,1745203099524726985
436577,-1990,-1142,-1409,6255,11045,-23972,1745203099524726985
436769,-1549,-1059,-742,4880,10086,-18482,1745203099524726985
436961,-714,-1029,-62,3402,9894,-13337,1745203099524726985
437153,-86,-994,344,1965,9126,-10184,1745203099585138777
437345,224,-970,452,249,7236,-8289,1745203099585138777
437537,287,-936,417,-1455,4570,-7000,1745203099585138777
437729,278,-828,328,-3065,1859,-6517,1745203099585138777
437921,279,-687,242,-4244,-623,-6871,1745203099585138777
438113,280,-493,215,-4574,-2094,-7439,1745203099585138777
438305,215,-314,200,-4626,-3304,-7904,1745203099585138777
438497,102,-92,206,-3618,-3881,-8148,1745203099585138777
438689,-38,86,216,-2133,-4092,-8192,1745203099585138777
438881,-166,233,169,-139,-3991,-8419,1745203099585138777
439073,-292,332,-56,1753,-4064,-8489,1745203099585138777
439265,-426,306,-349,3284,-2803,-8383,1745203099585138777
439457,-527,255,-432,4155,-1370,-8428,1745203099643083456
439649,-603,232,-336,4457,168,-8337,1745203099643083456
439841,-658,196,-151,4521,1864,-8166,1745203099643083456
440033,-662,132,28,4188,3301,-8029,1745203099643083456
440225,-588,58,158,3543,4448,-8038,1745203099643083456
440417,-772,-2,196,2398,5262,-9933,1745203099643083456
440609,-680,-102,157,2374,5084,-4616,1745203099643083456
440801,-2,-37,46,1091,4931,-7093,1745203099643083456
440993,215,29,-21,634,4550,-7477,1745203099643083456
441185,423,75,-90,408,3828,-7392,1745203099643083456
441377,548,178,-92,381,3002,-7759,1745203099643083456
441569,620,227,-45,677,2418,-7802,1745203099643083456
441761,627,273,-1,1143,1761,-7880,1745203099701843909
441953,586,289,19,1559,1280,-7886,1745203099701843909
442145,508,277,18,1874,1011,-7821,1745203099701843909
442337,418,253,23,1994,898,-7726,1745203099701843909
442529,332,219,40,1971,892,-7608,1745203099701843909
442721,260,183,59,1841,1038,-7577,1745203099701843909
442913,205,148,77,1627,1264,-7595,1745203099701843909
443105,172,124,86,1358,1518,-7643,1745203099701843909
443297,165,118,88,1136,1728,-7668,1745203099701843909
443489,179,122,85,989,1846,-7700,1745203099701843909
443681,207,131,83,967,1870,-7733,1745203099701843909
443873,237,147,84,967,1786,-7737,1745203099701843909
444065,263,164,87,1091,1656,-7744,1745203099760523321
444257,277,176,88,1275,1522,-7762,1745203099760523321
444449,282,183,94,1474,1387,-7767,1745203099760523321
444641,287,178,111,1638,1307,-7758,1745203099760523321
444833,297,168,133,1771,1295,-7733,1745203099760523321
445025,313,150,159,1838,1321,-7670,1745203099760523321
445217,328,130,184,1850,1352,-7605,1745203099760523321
445409,336,111,204,1820,1368,-7564,1745203099760523321
445601,329,91,217,1752,1369,-7567,1745203099760523321
445793,311,72,225,1668,1331,-7574,1745203099760523321
445985,290,58,229,1610,1274,-7566,1745203099760523321
446177,273,48,236,1544,1199,-7573,1745203099760523321
446369,259,42,249,1511,1090,-7535,1745203099824848410
446561,244,38,262,1510,1018,-7522,1745203099824848410
446753,224,31,272,1522,958,-7545,1745203099824848410
446945,198,24,278,1517,891,-7561,1745203099824848410
447137,168,14,279,1532,867,-7563,1745203099824848410
447329,138,5,277,1526,845,-7575,1745203099824848410
447521,107,1,274,1484,833,-7614,1745203099824848410
447713,76,1,268,1445,868,-7748,1745203099824848410
447905,46,4,260,1405,913,-7861,1745203099824848410
448097,19,10,247,1384,963,-7986,1745203099824848410
448289,-2,15,234,1411,1018,-8072,1745203099824848410
448481,-21,22,227,1421,1080,-8093,1745203099824848410
448673,-34,29,225,1478,1130,-8080,1745203099882336531
448865,-43,36,228,1515,1184,-8065,1745203099882336531
449057,-45,40,234,1569,1193,-8082,1745203099882336531
449249,-43,40,239,1599,1184,-8148,1745203099882336531
449441,-36,37,242,1609,1127,-8200,1745203099882336531
449633,-26,32,243,1602,1046,-8198,1745203099882336531
449825,-14,25,250,1527,977,-8146,1745203099882336531
450017,-12,22,263,1465,957,-8111,1745203099882336531
450209,-21,21,274,1419,954,-8050,1745203099882336531
450401,-39,24,279,1389,1004,-7951,1745203099882336531
450593,-58,30,278,1387,1072,-7884,1745203099882336531
450785,-73,38,268,1384,1159,-7872,1745203099882336531
450977,-74,47,254,1417,1244,-7887,1745203099934046631
451169,-60,56,242,1469,1369,-7909,1745203099934046631
451361,-38,59,236,1546,1432,-7864,1745203099934046631
451553,-11,64,236,1594,1450,-7832,1745203099934046631
451745,18,66,239,1623,1432,-7860,1745203099934046631
451937,50,65,245,1658,1403,-7821,1745203099934046631
452129,78,63,244,1655,1306,-7799,1745203099934046631
452321,101,58,239,1617,1228,-7792,1745203099934046631
452513,114,54,232,1589,1116,-7832,1745203099934046631
452705,118,59,214,1533,972,-7896,1745203099934046631
452897,111,60,190,1519,882,-7942,1745203099934046631
453089,97,60,167,1504,807,-7975,1745203099934046631
453281,79,62,153,1503,740,-8005,1745203099994471913
453473,54,60,139,1569,738,-8030,1745203099994471913
453665,22,54,125,1608,779,-8048,1745203099994471913
453857,-5,45,122,1655,924,-8023,1745203099994471913
454049,-19,39,130,1700,1052,-7930,1745203099994471913
454241,-18,35,138,1735,1158,-7882,1745203099994471913
454433,-5,25,140,1723,1238,-7808,1745203099994471913
454625,12,11,137,1688,1250,-7755,1745203099994471913
454817,21,-6,134,1631,1230,-7717,1745203099994471913
455009,17,-19,132,1575,1172,-7721,1745203099994471913
455201,10,-27,127,1519,1101,-7720,1745203099994471913
455393,10,-32,116,1463,1038,-7712,1745203099994471913
455585,18,-34,100,1439,995,-7705,1745203100052582319
455777,36,-34,90,1420,932,-7706,1745203100052582319
455969,56,-34,85,1398,898,-7736,1745203100052582319
456161,68,-28,83,1432,891,-7797,1745203100052582319
456353,72,-21,85,1434,894,-7880,1745203100052582319
456545,68,-16,84,1476,901,-7960,1745203100052582319
456737,60,-16,81,1524,901,-8039,1745203100052582319
456929,50,-20,75,1552,896,-8113,1745203100052582319
457121,34,-29,69,1580,910,-8135,1745203100052582319
457313,14,-37,64,1568,904,-8125,1745203100052582319
457505,-12,-42,58,1549,929,-8100,1745203100052582319
457697,-43,-48,51,1553,955,-8050,1745203100052582319
457889,-72,-50,43,1539,1012,-7970,1745203100111310376
458081,-94,-52,37,1530,1066,-7850,1745203100111310376
458273,-101,-52,32,1534,1139,-7761,1745203100111310376
458465,-99,-46,29,1540,1184,-7701,1745203100111310376
458657,-89,-43,30,1579,1204,-7675,1745203100111310376
458849,-74,-42,30,1611,1197,-7701,1745203100111310376
459041,-56,-45,31,1642,1155,-7748,1745203100111310376
459233,-38,-53,34,1664,1098,-7786,1745203100111310376
459425,-27,-56,36,1670,1041,-7822,1745203100111310376
459617,-26,-58,37,1667,937,-7847,1745203100111310376
459809,-32,-64,36,1657,846,-7893,1745203100111310376
460001,-39,-67,35,1628,786,-7945,1745203100111310376
460193,-47,-73,34,1601,744,-7987,1745203100169732812
460385,-61,-78,36,1582,758,-8013,1745203100169732812
460577,-79,-80,34,1563,796,-8045,1745203100169732812
460769,-99,-78,27,1561,877,-8014,1745203100169732812
460961,-115,-76,18,1572,980,-7935,1745203100169732812
461153,-124,-73,10,1581,1067,-7912,1745203100169732812
461345,-125,-74,2,1587,1150,-7955,1745203100169732812
461537,-117,-76,-6,1588,1229,-8000,1745203100169732812
461729,-104,-77,-13,1576,1254,-8002,1745203100169732812
461921,-92,-79,-16,1546,1240,-7985,1745203100169732812
462113,-87,-78,-15,1509,1199,-7982,1745203100169732812
462305,-86,-76,-11,1486,1180,-7990,1745203100169732812
462497,-86,-74,-5,1453,1169,-7972,1745203100236632305
462689,-84,-70,-2,1447,1167,-7934,1745203100236632305
462881,-80,-69,-1,1437,1158,-7923,1745203100236632305
463073,-75,-67,-4,1429,1185,-7893,1745203100236632305
463265,-74,-67,-9,1411,1194,-7875,1745203100236632305
463457,-78,-65,-14,1416,1212,-7866,1745203100236632305
463649,-82,-62,-18,1427,1209,-7857,1745203100236632305
463841,-81,-60,-20,1434,1201,-7837,1745203100236632305
464033,-70,-58,-19,1444,1210,-7830,1745203100236632305
464225,-56,-56,-17,1475,1204,-7833,1745203100236632305
464417,-42,-57,-17,1502,1196,-7826,1745203100236632305
464609,-33,-59,-18,1519,1177,-7801,1745203100236632305
464801,-32,-60,-16,1517,1145,-7771,1745203100292444295
464993,-36,-60,-13,1495,1078,-7767,1745203100292444295
465185,-46,-62,-14,1506,999,-7803,1745203100292444295
465377,-60,-65,-20,1475,962,-7829,1745203100292444295
465569,-74,-73,-26,1468,923,-7843,1745203100292444295
465761,-87,-79,-28,1429,906,-7850,1745203100292444295
465953,-103,-83,-27,1416,945,-7878,1745203100292444295
466145,-123,-84,-23,1381,1014,-7945,1745203100292444295
466337,-139,-87,-21,1395,1112,-8008,1745203100292444295
466529,-146,-93,-24,1378,1239,-8062,1745203100292444295
466721,-136,-95,-30,1347,1377,-8063,1745203100292444295
466913,-118,-93,-36,1324,1476,-8053,1745203100292444295
467105,-94,-89,-44,1327,1558,-8041,1745203100343437371
467297,-68,-86,-50,1305,1581,-8049,1745203100343437371
467489,-42,-84,-52,1274,1564,-8074,1745203100343437371
467681,-14,-83,-50,1278,1513,-8042,1745203100343437371
467873,14,-80,-47,1273,1440,-8001,1745203100343437371
468065,31,-77,-45,1264,1358,-7981,1745203100343437371
468257,36,-74,-46,1286,1276,-7958,1745203100343437371
468449,35,-71,-48,1284,1174,-7934,1745203100343437371
468641,31,-69,-50,1310,1084,-7910,1745203100343437371
468833,26,-65,-51,1313,985,-7905,1745203100343437371
469025,20,-63,-50,1309,953,-7893,1745203100343437371
469217,7,-57,-47,1330,908,-7885,1745203100343437371
469409,-9,-53,-43,1342,898,-7900,1745203100403650727
469601,-30,-50,-41,1388,922,-7905,1745203100403650727
469793,-53,-47,-42,1405,965,-7882,1745203100403650727
469985,-76,-47,-46,1417,1028,-7872,1745203100403650727
470177,-93,-46,-51,1450,1122,-7878,1745203100403650727
470369,-97,-44,-55,1369,1217,-7449,1745203100403650727
470561,-104,-12,-64,644,650,-7648,1745203100403650727
470753,-193,27,-85,1179,155,-8374,1745203100403650727
470945,-257,-20,-93,2035,605,-8063,1745203100403650727
471137,-271,-49,-72,2171,1494,-7997,1745203100403650727
471329,-211,-92,-38,2050,2201,-7897,1745203100403650727
471521,-120,-123,-26,2026,2419,-7828,1745203100403650727
471713,-53,-144,-39,1904,2228,-7849,1745203100460136409
471905,-14,-171,-59,1552,1857,-7856,1745203100460136409
472097,11,-171,-71,1118,1546,-7841,1745203100460136409
472289,43,-143,-70,771,1405,-7829,1745203100460136409
472481,75,-101,-57,604,1442,-7750,1745203100460136409
472673,148,-67,-42,668,1640,-7282,1745203100460136409
472865,504,-82,-34,765,1430,-6415,1745203100460136409
473057,533,-38,-42,808,2502,-9502,1745203100460136409
473249,222,27,-37,957,1576,-7729,1745203100460136409
473441,251,54,-45,1126,1491,-7872,1745203100460136409
473633,254,57,-35,1444,1262,-7971,1745203100460136409
473825,244,35,-12,1639,998,-7926,1745203100460136409
475361,-1,-306,12,1757,1321,-7752,1745203103851266577
605345,-82,2,17,1394,1578,-7442,1745203103851266577
605537,-137,71,-6,900,592,-8494,1745203103851266577
605729,-90,73,-31,1323,922,-7798,1745203103851266577
605921,-143,91,-22,1396,1049,-7804,1745203103851266577
606113,-145,99,-1,1489,1169,-7938,1745203103851266577
606305,-155,88,7,1679,1437,-7868,1745203103851266577
606497,-161,92,5,1738,1620,-7848,1745203103851266577
606689,-158,74,0,1803,1546,-7858,1745203103851266577
606881,-168,52,-9,1803,1540,-7870,1745203103851266577
607073,-158,39,-15,1745,1656,-7841,1745203103851266577
607265,-134,26,-15,1697,1724,-7828,1745203103851266577
607457,-113,19,-12,1669,1750,-7838,1745203103907062786
607649,-92,16,-14,1698,1749,-7789,1745203103907062786
607841,-77,-1,-14,1802,1814,-7678,1745203103907062786
608033,-68,-38,-11,2091,1709,-7607,1745203103907062786
608225,-65,-100,-8,2387,1616,-7644,1745203103907062786
608417,-56,-157,3,2321,1757,-7674,1745203103907062786
608609,-27,-187,20,1995,1946,-7713,1745203103907062786
608801,11,-192,28,1664,2058,-7773,1745203103907062786
608993,42,-181,24,1396,2042,-7871,1745203103907062786
609185,61,-169,13,1251,1922,-7897,1745203103907062786
609377,67,-152,-1,1152,1692,-7919,1745203103907062786
609569,65,-129,-12,1107,1471,-7961,1745203103907062786
609761,60,-101,-17,1109,1316,-7988,1745203103964188097
609953,53,-74,-13,1134,1292,-8027,1745203103964188097
610145,47,-47,-6,1217,1378,-8098,1745203103964188097
610337,38,-23,-3,1247,1418,-8144,1745203103964188097
610529,26,6,-8,1176,1383,-8141,1745203103964188097
610721,20,39,-16,1131,1430,-8097,1745203103964188097
610913,26,67,-23,1191,1550,-8092,1745203103964188097
611105,39,91,-24,1301,1663,-8058,1745203103964188097
611297,49,109,-25,1406,1669,-7997,1745203103964188097
611489,50,120,-28,1520,1597,-7920,1745203103964188097
611681,43,122,-31,1625,1492,-7873,1745203103964188097
611873,33,116,-31,1661,1346,-7770,1745203103964188097
612065,-47,115,-45,1228,160,-8696,1745203104029736561
612257,19,84,-13,2581,2822,-7178,1745203104029736561
612449,33,73,17,1376,1647,-7355,1745203104029736561
612641,33,125,-2,1456,1648,-8346,1745203104029736561
612833,27,102,-18,1550,1711,-7629,1745203104029736561
613025,25,126,-11,1584,1654,-7873,1745203104029736561
613217,-79,99,6,1665,2113,-9104,1745203104029736561
613409,-359,102,9,1807,1637,-6578,1745203104029736561
613601,44,81,-6,1889,1815,-7527,1745203104029736561
613793,112,66,0,1818,1862,-7903,1745203104029736561
613985,126,58,28,1864,1886,-7848,1745203104029736561
614177,154,60,36,1919,1952,-7915,1745203104029736561
614369,181,50,36,1975,2003,-7922,1745203104090417465
614753,235,25,37,2331,2015,-7733,1745203104090417465
614945,310,-110,43,3275,2361,-7773,1745203104090417465
615137,343,-162,36,2634,1797,-7934,1745203104090417465
615329,331,-146,8,1838,1293,-7855,1745203104090417465
615521,288,-126,-14,1204,879,-7722,1745203104090417465
615713,225,-63,-14,848,596,-7715,1745203104090417465
615905,162,-22,-4,684,495,-7759,1745203104090417465
616097,88,22,6,758,552,-7746,1745203104090417465
616289,7,71,8,1005,728,-7782,1745203104090417465
616481,-75,113,3,1394,969,-7792,1745203104090417465
616673,-143,141,-2,1758,1237,-7820,1745203104090417465
616865,-183,141,-4,2090,1455,-7881,1745203104154608806
617057,-197,124,-5,2299,1616,-7955,1745203104154608806
617249,-194,99,-8,2372,1718,-8054,1745203104154608806
617441,-189,75,-11,2340,1737,-8155,1745203104154608806
617633,-182,54,-18,2280,1713,-8221,1745203104154608806
617825,-167,38,-26,2205,1669,-8327,1745203104154608806
618017,-153,27,-36,2152,1645,-8375,1745203104154608806
618209,-150,26,-52,2130,1642,-8331,1745203104154608806
618401,-167,33,-69,2136,1591,-8246,1745203104154608806
618593,-213,39,-74,2148,1481,-8152,1745203104154608806
618785,-262,54,-65,2229,1429,-7994,1745203104154608806
618977,-281,64,-55,2359,1422,-8140,1745203104154608806
619169,-275,50,-50,2494,1502,-8076,1745203104203254299
619361,-265,54,-53,2599,1561,-8027,1745203104203254299
619553,-258,29,-62,2574,1639,-8084,1745203104203254299
619745,-253,-15,-72,2509,1679,-8090,1745203104203254299
619937,-243,-32,-79,2421,1703,-8044,1745203104203254299
620129,-224,-37,-82,2326,1730,-8009,1745203104203254299
620321,-199,-46,-83,2265,1736,-7997,1745203104203254299
620513,-177,-56,-82,2172,1727,-7956,1745203104203254299
620705,-170,-66,-81,2077,1643,-7898,1745203104203254299
620897,-188,-68,-79,1983,1512,-7906,1745203104203254299
621089,-227,-65,-72,1946,1338,-7904,1745203104203254299
621281,-272,-55,-68,1948,1171,-7977,1745203104203254299
621473,-323,-50,-71,1990,1061,-8164,1745203104263533904
621665,-386,-60,-83,2053,965,-8278,1745203104263533904
621857,-466,-22,-101,2178,806,-8366,1745203104263533904
622049,-561,-9,-110,2259,632,-8554,1745203104263533904
622241,-677,-37,-108,2354,453,-8628,1745203104263533904
622433,-815,-49,-116,2497,294,-8736,1745203104263533904
622625,-965,-46,-156,2643,146,-8761,1745203104263533904
622817,-1109,36,-272,3099,143,-8872,1745203104263533904
623009,-1200,238,-519,3326,-103,-8446,1745203104263533904
623201,-1171,329,-702,3331,-163,-8246,1745203104263533904
623393,-1247,245,-730,3315,416,-8086,1745203104263533904
623585,-1439,176,-646,3353,1502,-8006,1745203104263533904
623777,-1553,79,-556,3397,2647,-8223,1745203104327889514
623969,-1524,-27,-510,3444,3477,-8527,1745203104327889514
624161,-1424,-77,-508,3385,3887,-8696,1745203104327889514
624353,-1329,-95,-532,3269,3961,-8756,1745203104327889514
624545,-1290,-77,-577,3135,3720,-8855,1745203104327889514
624737,-1330,-16,-628,3013,3210,-9004,1745203104327889514
624929,-1434,50,-670,2967,2614,-9071,1745203104327889514
625121,-1577,94,-701,3033,2103,-9170,1745203104327889514
625313,-1744,118,-726,3146,1793,-9235,1745203104327889514
625505,-1926,147,-750,3274,1707,-9250,1745203104327889514
625697,-2123,176,-774,3341,1791,-9098,1745203104327889514
625889,-2320,195,-815,3407,1993,-8855,1745203104327889514
626081,-2502,216,-833,3488,2198,-8569,1745203104391532943
626273,-2623,212,-849,3629,2458,-8087,1745203104391532943
626465,-2679,185,-873,3729,2839,-7414,1745203104391532943
626657,-2674,162,-910,3780,3417,-6828,1745203104391532943
626849,-2613,123,-959,3821,4191,-6385,1745203104391532943
627041,-2494,47,-1024,3795,5056,-6009,1745203104391532943
627233,-2294,-18,-1093,3708,5938,-5813,1745203104391532943
627425,-2033,-69,-1155,3552,6797,-5747,1745203104391532943
627617,-1748,-123,-1197,3378,7504,-5823,1745203104391532943
627809,-1483,-179,-1218,3220,7917,-6098,1745203104391532943
628001,-1273,-238,-1226,3042,7923,-6559,1745203104391532943
628193,-1120,-292,-1228,2874,7572,-6953,1745203104391532943
628385,-1011,-335,-1223,2668,6991,-7221,1745203104442746278
628577,-918,-370,-1208,2426,6326,-7403,1745203104442746278
628769,-834,-396,-1184,2213,5678,-7488,1745203104442746278
628961,-755,-412,-1153,1956,5163,-7465,1745203104442746278
629153,-690,-424,-1117,1687,4814,-7393,1745203104442746278
629345,-653,-435,-1080,1406,4605,-7290,1745203104442746278
629537,-648,-441,-1047,1146,4532,-7158,1745203104442746278
629729,-680,-437,-1024,903,4575,-6948,1745203104442746278
629921,-746,-422,-1006,677,4637,-6753,1745203104442746278
630113,-835,-399,-995,495,4702,-6527,1745203104442746278
630305,-945,-368,-985,337,4744,-6323,1745203104442746278
630497,-1073,-341,-981,249,4775,-6191,1745203104442746278
630689,-1207,-319,-985,145,4722,-6074,1745203104501672718
630881,-1332,-300,-984,28,4651,-5884,1745203104501672718
631073,-1436,-283,-975,-111,4575,-5711,1745203104501672718
631265,-1516,-280,-968,-264,4540,-5484,1745203104501672718
631457,-1572,-265,-968,-389,4576,-5219,1745203104501672718
631649,-1609,-226,-968,-527,4658,-4971,1745203104501672718
631841,-1625,-204,-972,-678,4772,-4673,1745203104501672718
632033,-1619,-191,-975,-806,4905,-4344,1745203104501672718
632225,-1592,-179,-978,-941,5069,-4079,1745203104501672718
632417,-1557,-164,-980,-1061,5290,-3871,1745203104501672718
632609,-1540,-136,-983,-1140,5573,-3691,1745203104501672718
632801,-1555,-97,-983,-1188,5853,-3654,1745203104501672718
632993,-1614,-54,-984,-1193,6120,-3725,1745203104560154945
633185,-1702,-14,-980,-1222,6241,-3829,1745203104560154945
633377,-1781,30,-971,-1118,6331,-3925,1745203104560154945
633569,-1815,82,-981,-1074,6325,-4001,1745203104560154945
633761,-1785,101,-988,-1082,6332,-4134,1745203104560154945
633953,-1706,93,-1000,-1070,6325,-4199,1745203104560154945
634145,-1604,85,-1021,-1165,6328,-4218,1745203104560154945
634337,-1483,81,-1037,-1256,6277,-4216,1745203104560154945
634529,-1355,90,-1051,-1377,6233,-4226,1745203104560154945
634721,-1230,102,-1048,-1505,6185,-4245,1745203104560154945
634913,-1102,116,-1028,-1639,6153,-4263,1745203104560154945
635105,-979,131,-996,-1768,6110,-4278,1745203104560154945
635297,-864,153,-955,-1876,6012,-4273,1745203104619252842
635489,-757,181,-910,-1961,5867,-4250,1745203104619252842
635681,-654,206,-863,-2014,5687,-4237,1745203104619252842
635873,-562,230,-822,-2035,5539,-4222,1745203104619252842
636065,-483,242,-785,-2033,5405,-4238,1745203104619252842
636257,-417,251,-746,-2000,5313,-4222,1745203104619252842
636449,-372,257,-704,-1944,5207,-4238,1745203104619252842
636641,-360,270,-666,-1872,5141,-4258,1745203104619252842
636833,-369,291,-633,-1751,5078,-4336,1745203104619252842
637025,-384,316,-599,-1613,4966,-4465,1745203104619252842
637217,-392,346,-563,-1425,4849,-4562,1745203104619252842
637409,-379,362,-526,-1278,4792,-4645,1745203104619252842
637601,-350,357,-481,-1137,4741,-4711,1745203104681878520
637793,-303,341,-439,-994,4717,-4752,1745203104681878520
637985,-246,321,-410,-892,4732,-4780,1745203104681878520
638177,-196,293,-387,-855,4737,-4810,1745203104681878520
638369,-157,262,-368,-843,4761,-4898,1745203104681878520
638561,-125,228,-354,-875,4792,-5033,1745203104681878520
638753,-99,196,-341,-931,4815,-5200,1745203104681878520
638945,-78,166,-330,-1034,4873,-5346,1745203104681878520
639137,-55,146,-319,-1163,4912,-5458,1745203104681878520
639329,-31,136,-302,-1298,4928,-5491,1745203104681878520
639521,-5,138,-277,-1422,4910,-5491,1745203104681878520
639713,22,152,-245,-1502,4872,-5473,1745203104681878520
639905,51,174,-211,-1544,4818,-5418,1745203104738998050
640097,77,204,-176,-1526,4774,-5313,1745203104738998050
640289,100,236,-139,-1457,4772,-5208,1745203104738998050
640481,117,269,-105,-1333,4815,-5126,1745203104738998050
640673,131,296,-78,-1164,4894,-5040,1745203104738998050
640865,145,310,-52,-989,4979,-4958,1745203104738998050
641057,168,308,-33,-820,5085,-4879,1745203104738998050
641249,204,288,-16,-666,5134,-4803,1745203104738998050
641441,249,253,-1,-547,5191,-4805,1745203104738998050
641633,298,210,14,-465,5236,-4827,1745203104738998050
641825,345,162,31,-394,5261,-4930,1745203104738998050
642017,391,114,48,-376,5305,-5110,1745203104738998050
642209,435,67,66,-404,5302,-5344,1745203104796040081
642401,479,27,83,-494,5311,-5497,1745203104796040081
642593,529,-3,100,-625,5272,-5580,1745203104796040081
642785,585,-16,116,-758,5256,-5622,1745203104796040081
642977,635,-12,130,-888,5265,-5633,1745203104796040081
643169,678,10,141,-997,5306,-5560,1745203104796040081
643361,717,42,146,-1071,5400,-5328,1745203104796040081
643553,753,81,146,-1084,5529,-5007,1745203104796040081
643745,791,121,142,-1044,5665,-4697,1745203104796040081
643937,833,153,136,-960,5849,-4488,1745203104796040081
644129,884,170,125,-815,6053,-4418,1745203104796040081
644321,952,165,109,-612,6319,-4562,1745203104796040081
644513,1035,143,87,-389,6632,-4803,1745203104852009935
644705,1121,108,60,-202,6903,-5098,1745203104852009935
644897,1207,57,36,-45,7131,-5444,1745203104852009935
645089,1293,-8,15,52,7243,-5809,1745203104852009935
645281,1376,-77,-1,76,7219,-6188,1745203104852009935
645473,1451,-148,-11,24,7069,-6523,1745203104852009935
645665,1512,-214,-10,-88,6815,-6775,1745203104852009935
645857,1559,-264,0,-287,6481,-6973,1745203104852009935
646049,1593,-296,21,-519,6117,-7087,1745203104852009935
646241,1614,-312,47,-741,5760,-7172,1745203104852009935
646433,1619,-319,68,-953,5461,-7306,1745203104852009935
646625,1606,-320,79,-1146,5260,-7528,1745203104852009935
646817,1566,-313,79,-1293,5196,-7780,1745203104912942816
647009,1495,-299,62,-1437,5194,-7921,1745203104912942816
647201,1396,-274,28,-1527,5221,-7859,1745203104912942816
647393,1283,-233,-16,-1649,5245,-7657,1745203104912942816
647585,1173,-184,-64,-1698,5284,-7323,1745203104912942816
647777,1082,-137,-110,-1677,5334,-7051,1745203104912942816
647969,1018,-109,-148,-1580,5409,-6919,1745203104912942816
648161,980,-109,-175,-1407,5510,-6927,1745203104912942816
648353,963,-138,-197,-1232,5567,-7090,1745203104912942816
648545,949,-190,-217,-1093,5573,-7324,1745203104912942816
648737,924,-255,-238,-1017,5456,-7626,1745203104912942816
648929,884,-329,-263,-1047,5180,-8061,1745203104912942816
649121,838,-403,-287,-1165,4850,-8429,1745203104968870221
649313,783,-472,-311,-1376,4522,-8748,1745203104968870221
649505,717,-530,-330,-1614,4283,-9115,1745203104968870221
649697,630,-571,-346,-1907,4198,-9400,1745203104968870221
649889,499,-595,-364,-2196,4297,-9499,1745203104968870221
650081,330,-600,-383,-2459,4556,-9540,1745203104968870221
650273,144,-595,-401,-2703,4905,-9550,1745203104968870221
650465,-21,-583,-414,-2816,5297,-9530,1745203104968870221
650657,-133,-578,-421,-2819,5657,-9470,1745203104968870221
650849,-184,-580,-427,-2784,5962,-9390,1745203104968870221
651041,-190,-581,-435,-2747,6125,-9193,1745203104968870221
651233,-163,-575,-439,-2683,6134,-8819,1745203104968870221
651425,-116,-564,-442,-2605,6049,-8456,1745203105031633294
651617,-58,-560,-444,-2426,5963,-8224,1745203105031633294
651809,7,-581,-447,-2181,5851,-8106,1745203105031633294
652001,70,-627,-454,-1935,5719,-7958,1745203105031633294
652193,127,-698,-466,-1735,5580,-7885,1745203105031633294
652385,174,-784,-483,-1619,5391,-7893,1745203105031633294
652577,213,-870,-497,-1583,5208,-7930,1745203105031633294
652769,239,-947,-509,-1630,4998,-7942,1745203105031633294
652961,252,-1027,-514,-1797,4779,-7892,1745203105031633294
653153,245,-1103,-517,-2008,4506,-7802,1745203105031633294
653345,212,-1141,-510,-2258,4203,-7721,1745203105031633294
653537,153,-1160,-498,-2454,3886,-7568,1745203105031633294
653729,74,-1171,-487,-2638,3660,-7340,1745203105085340616
653921,-15,-1190,-486,-2812,3503,-7046,1745203105085340616
654113,-107,-1203,-495,-2904,3457,-6727,1745203105085340616
654305,-195,-1203,-508,-2970,3501,-6462,1745203105085340616
654497,-272,-1201,-523,-2968,3565,-6255,1745203105085340616
654689,-328,-1212,-532,-2960,3585,-6085,1745203105085340616
654881,-361,-1225,-533,-2890,3543,-5921,1745203105085340616
655073,-367,-1260,-520,-2893,3390,-5729,1745203105085340616
655265,-359,-1304,-500,-2913,3184,-5435,1745203105085340616
655457,-358,-1316,-473,-2938,2898,-5189,1745203105085340616
655649,-375,-1320,-437,-2958,2601,-5011,1745203105085340616
655841,-410,-1309,-393,-2953,2313,-4863,1745203105085340616
656033,-457,-1319,-339,-2988,2072,-4720,1745203105146327455
656225,-520,-1345,-295,-3073,1892,-4483,1745203105146327455
656417,-596,-1338,-255,-3189,1751,-4294,1745203105146327455
656609,-669,-1312,-215,-3224,1660,-4165,1745203105146327455
656801,-731,-1272,-168,-3254,1614,-4066,1745203105146327455
656993,-766,-1282,-122,-3322,1657,-3948,1745203105146327455
657185,-784,-1269,-87,-3316,1684,-3843,1745203105146327455
657377,-790,-1226,-55,-3332,1701,-3743,1745203105146327455
657569,-782,-1166,-22,-3278,1685,-3594,1745203105146327455
657761,-753,-1125,12,-3294,1708,-3368,1745203105146327455
657953,-718,-1078,51,-3271,1709,-3120,1745203105146327455
658145,-692,-1004,91,-3224,1710,-2947,1745203105146327455
658337,-679,-921,135,-3104,1682,-2859,1745203105215927183
658529,-678,-856,185,-3007,1665,-2802,1745203105215927183
658721,-684,-795,239,-2925,1666,-2719,1745203105215927183
658913,-700,-718,300,-2796,1661,-2589,1745203105215927183
659105,-728,-629,364,-2665,1684,-2419,1745203105215927183
659297,-768,-544,438,-2531,1728,-2207,1745203105215927183
659489,-826,-455,521,-2444,1762,-1999,1745203105215927183
659681,-904,-360,615,-2344,1793,-1928,1745203105215927183
659873,-1001,-260,715,-2258,1805,-1989,1745203105215927183
660065,-1110,-162,817,-2186,1826,-2110,1745203105215927183
660257,-1225,-72,922,-2140,1863,-2288,1745203105215927183
660449,-1342,27,1022,-2070,1991,-2475,1745203105215927183
660641,-1458,142,1117,-2009,2207,-2712,1745203105263598519
660833,-1569,269,1205,-1923,2567,-2980,1745203105263598519
661025,-1674,405,1279,-1788,3075,-3235,1745203105263598519
661217,-1761,546,1335,-1605,3713,-3475,1745203105263598519
661409,-1810,670,1382,-1392,4428,-3741,1745203105263598519
661601,-1810,764,1430,-1170,5123,-4031,1745203105263598519
661793,-1751,840,1476,-937,5845,-4392,1745203105263598519
661985,-1650,905,1506,-698,6540,-4796,1745203105263598519
662177,-1517,971,1507,-504,7256,-5189,1745203105263598519
662369,-1357,1027,1490,-353,7907,-5448,1745203105263598519
662561,-1177,1063,1458,-147,8412,-5538,1745203105263598519
662753,-979,1077,1415,69,8714,-5563,1745203105263598519
662945,-768,1067,1365,301,8867,-5511,1745203105323870051
663137,-553,1041,1310,524,8884,-5444,1745203105323870051
663329,-350,1004,1245,711,8860,-5492,1745203105323870051
663521,-178,952,1169,868,8839,-5695,1745203105323870051
663713,-41,886,1085,1003,8830,-5884,1745203105323870051
663905,73,810,996,1029,8856,-6017,1745203105323870051
664097,180,735,907,977,8897,-6182,1745203105323870051
664289,290,660,821,874,8972,-6392,1745203105323870051
664481,401,592,740,752,9053,-6547,1745203105323870051
664673,503,535,664,586,9160,-6646,1745203105323870051
664865,594,483,591,384,9246,-6767,1745203105323870051
665057,672,434,525,202,9231,-6870,1745203105323870051
665249,742,390,468,-12,9127,-6931,1745203105378187420
665441,810,352,423,-191,8905,-6995,1745203105378187420
665633,880,320,389,-363,8630,-7010,1745203105378187420
665825,951,296,371,-497,8325,-7010,1745203105378187420
666017,1016,274,367,-625,8004,-6988,1745203105378187420
666209,1075,246,373,-756,7678,-6956,1745203105378187420
666401,1127,214,384,-872,7370,-6907,1745203105378187420
666593,1166,186,394,-1007,7078,-6854,1745203105378187420
666785,1193,161,402,-1111,6783,-6812,1745203105378187420
666977,1211,134,406,-1208,6525,-6721,1745203105378187420
667169,1228,95,403,-1347,6291,-6626,1745203105378187420
667361,1226,104,400,-1427,6068,-6559,1745203105378187420
667553,1217,100,405,-1492,5865,-6556,1745203105437900260
667745,1203,65,406,-1575,5682,-6506,1745203105437900260
667937,1174,51,401,-1648,5546,-6495,1745203105437900260
668129,1126,48,394,-1715,5414,-6474,1745203105437900260
668321,1057,58,389,-1758,5318,-6410,1745203105437900260
668513,974,84,391,-1787,5265,-6431,1745203105437900260
668705,883,111,393,-1748,5271,-6466,1745203105437900260
668897,792,134,394,-1680,5351,-6489,1745203105437900260
669089,713,152,394,-1582,5476,-6552,1745203105437900260
669281,641,164,394,-1467,5654,-6625,1745203105437900260
669473,581,184,395,-1354,5880,-6616,1745203105437900260
669665,543,199,397,-1251,6138,-6615,1745203105437900260
669857,540,201,405,-1147,6434,-6558,1745203105496499204
670049,583,191,415,-1018,6780,-6575,1745203105496499204
670241,670,164,429,-923,7095,-6748,1745203105496499204
670433,791,120,446,-901,7335,-7002,1745203105496499204
670625,933,73,465,-940,7483,-7307,1745203105496499204
670817,1082,30,475,-1093,7531,-7501,1745203105496499204
671009,1227,-1,476,-1280,7480,-7633,1745203105496499204
671201,1367,-21,472,-1501,7322,-7742,1745203105496499204
671393,1508,-27,467,-1723,7103,-7373,1745203105496499204
671585,1627,-10,455,-1909,6762,-7143,1745203105496499204
671777,1692,4,435,-1987,6205,-7244,1745203105496499204
671969,1713,11,404,-2056,5733,-7127,1745203105496499204
672161,1696,24,362,-2082,5369,-6939,1745203105557303648
672353,1652,50,322,-2053,5192,-6803,1745203105557303648
672545,1612,68,295,-1864,5209,-6769,1745203105557303648
672737,1602,71,272,-1579,5377,-6848,1745203105557303648
672929,1634,54,248,-1320,5594,-6904,1745203105557303648
673121,1708,46,215,-1097,5753,-6823,1745203105557303648
673313,1810,47,185,-999,5822,-6850,1745203105557303648
673505,1920,24,164,-1006,5706,-6769,1745203105557303648
673697,2031,18,151,-992,5568,-6735,1745203105557303648
673889,2149,20,133,-1041,5425,-6723,1745203105557303648
674081,2271,17,112,-1109,5335,-6776,1745203105557303648
674273,2388,9,99,-1180,5355,-6836,1745203105557303648
674465,2498,8,92,-1172,5343,-7014,1745203105615550772
674657,2631,22,74,-1070,5270,-7153,1745203105615550772
674849,2800,-10,66,-964,5313,-7111,1745203105615550772
675041,2973,-51,64,-923,5334,-7130,1745203105615550772
675233,3133,-83,54,-972,5204,-7110,1745203105615550772
675425,3267,-93,39,-1131,4920,-7200,1745203105615550772
675617,3368,-83,31,-1299,4481,-7213,1745203105615550772
675809,3420,-76,25,-1507,3906,-7292,1745203105615550772
676001,3430,-34,28,-1616,3210,-7297,1745203105615550772
676193,3420,-3,51,-1720,2494,-7300,1745203105615550772
676385,3375,23,89,-1738,1799,-7327,1745203105615550772
676577,3284,53,112,-1706,1149,-7434,1745203105615550772
676769,3148,74,118,-1598,623,-7487,1745203105671025578
676961,2975,91,120,-1408,245,-7497,1745203105671025578
677153,2765,138,126,-1119,1,-7590,1745203105671025578
677345,2527,148,148,-845,-33,-7623,1745203105671025578
677537,2266,129,161,-651,43,-7680,1745203105671025578
677729,1991,114,135,-599,205,-7650,1745203105671025578
677921,1701,120,69,-715,301,-7678,1745203105671025578
678113,1397,145,-17,-893,203,-7572,1745203105671025578
678305,1116,138,-70,-826,240,-7670,1745203105671025578
678497,896,88,-54,-584,393,-7993,1745203105671025578
678689,709,54,-7,-378,513,-8215,1745203105671025578
678881,503,44,30,-368,432,-8296,1745203105671025578
679073,281,58,47,-478,139,-8385,1745203105730780553
679265,40,99,64,-594,-173,-8366,1745203105730780553
679457,-224,172,92,-652,-327,-8086,1745203105730780553
679649,-533,280,142,-666,-421,-7398,1745203105730780553
679841,-900,416,207,-644,-459,-6403,1745203105730780553
680033,-1263,563,272,-635,-433,-5769,1745203105730780553
680225,-1578,701,331,-618,-152,-5114,1745203105730780553
680417,-1861,844,376,-584,292,-4051,1745203105730780553
680609,-2095,963,403,-364,895,-3234,1745203105730780553
680801,-2243,1007,422,105,1712,-3082,1745203105730780553
680993,-2294,997,434,701,2592,-3192,1745203105730780553
681185,-2249,950,433,1310,3469,-3464,1745203105730780553
681377,-2112,875,402,1858,4224,-3862,1745203105791410312
681569,-1880,773,335,2322,4886,-4457,1745203105791410312
681761,-1565,631,227,2686,5476,-5228,1745203105791410312
681953,-1180,478,74,3043,6080,-6023,1745203105791410312
682145,-730,314,-114,3199,6595,-6781,1745203105791410312
682337,-232,136,-294,3115,6993,-7510,1745203105791410312
682529,266,-29,-408,2820,7131,-8195,1745203105791410312
682721,721,-150,-419,2369,7024,-8931,1745203105791410312
682913,1101,-214,-340,1832,6588,-9393,1745203105791410312
683105,1390,-217,-213,1137,5685,-9560,1745203105791410312
683297,1561,-177,-63,524,4563,-9545,1745203105791410312
683489,1631,-108,71,38,3480,-9427,1745203105791410312
683681,1619,-28,172,-174,2524,-9121,1745203105845451433
683873,1542,36,252,-119,1776,-8682,1745203105845451433
684065,1447,64,310,125,1244,-8453,1745203105845451433
684257,1334,43,344,500,934,-8455,1745203105845451433
684449,1215,-25,359,884,702,-8451,1745203105845451433
684641,1093,-121,400,1147,564,-8453,1745203105845451433
684833,967,-235,459,1249,376,-8381,1745203105845451433
685025,809,-345,532,1096,-52,-8372,1745203105845451433
685217,612,-424,579,659,-613,-8417,1745203105845451433
685409,372,-454,568,46,-1119,-8539,1745203105845451433
685601,91,-436,482,-578,-1269,-8509,1745203105845451433
685793,-207,-396,312,-1261,-913,-7656,1745203105845451433
685985,-438,-308,128,-1710,-182,-6598,1745203105905596352
686177,-484,-180,11,-1571,1064,-6297,1745203105905596352
686369,-374,-40,-29,-842,2381,-6420,1745203105905596352
686561,-188,78,-43,-44,3016,-6690,1745203105905596352
686753,15,168,-53,430,2906,-7200,1745203105905596352
686945,143,205,-66,646,2438,-7517,1745203105905596352
687137,137,195,-78,690,1706,-7787,1745203105905596352
687329,23,166,-88,733,984,-8146,1745203105905596352
687521,-154,143,-99,694,451,-8399,1745203105905596352
687713,-383,143,-117,609,99,-8468,1745203105905596352
687905,-671,169,-135,464,-84,-8440,1745203105905596352
688097,-1002,211,-148,378,-86,-8332,1745203105905596352
688289,-1336,278,-152,307,135,-7878,1745203105966793918
688481,-1659,371,-145,324,530,-7282,1745203105966793918
688673,-1920,450,-138,377,1133,-6791,1745203105966793918
688865,-2083,496,-134,453,1951,-6252,1745203105966793918
689057,-2152,548,-148,575,2982,-5851,1745203105966793918
689249,-2149,595,-190,687,4020,-5578,1745203105966793918
689441,-2080,613,-263,817,4917,-5431,1745203105966793918
689633,-1951,620,-328,932,5579,-5337,1745203105966793918
689825,-1727,614,-366,1065,6072,-5325,1745203105966793918
690017,-1423,588,-388,1207,6371,-5358,1745203105966793918
690209,-1047,543,-396,1367,6512,-5519,1745203105966793918
690401,-639,489,-373,1552,6480,-5787,1745203105966793918
690593,-235,437,-317,1743,6328,-6018,1745203106027565186
690785,144,366,-261,1923,6042,-6209,1745203106027565186
690977,487,258,-220,2049,5555,-6438,1745203106027565186
691169,794,114,-190,2151,4954,-6766,1745203106027565186
691361,1065,-44,-165,2194,4338,-7069,1745203106027565186
691553,1297,-187,-134,2162,3804,-7275,1745203106027565186
691745,1485,-313,-99,2009,3313,-7410,1745203106027565186
691937,1638,-440,-80,1735,2710,-7568,1745203106027565186
692129,1793,-568,-85,1338,2045,-7790,1745203106027565186
692321,1936,-659,-102,768,1461,-8026,1745203106027565186
692513,2021,-695,-122,91,1008,-8317,1745203106027565186
692705,2031,-687,-143,-641,669,-8835,1745203106027565186
692897,1960,-654,-163,-1236,316,-9407,1745203106078686750
693089,1837,-621,-157,-1680,62,-9874,1745203106078686750
693281,1710,-585,-94,-1918,-218,-10213,1745203106078686750
693473,1595,-541,1,-2068,-358,-10658,1745203106078686750
693665,1450,-486,61,-2292,-225,-10628,1745203106078686750
693857,1258,-390,50,-2536,54,-9928,1745203106078686750
694049,1073,-272,-9,-2598,352,-9485,1745203106078686750
694241,961,-139,-60,-2198,630,-9345,1745203106078686750
694433,903,7,-62,-1430,730,-9043,1745203106078686750
694625,838,126,-17,-636,451,-8688,1745203106078686750
694817,732,170,50,-58,-86,-8446,1745203106078686750
695009,557,149,113,166,-764,-8287,1745203106078686750
695201,299,108,153,188,-1426,-8321,1745203106139085000
695393,-27,77,159,187,-1832,-8406,1745203106139085000
695585,-368,56,142,252,-1767,-8501,1745203106139085000
695777,-677,33,110,306,-1226,-8453,1745203106139085000
695969,-950,10,79,316,-527,-8283,1745203106139085000
696161,-1209,-7,61,224,39,-8102,1745203106139085000
696353,-1436,-4,65,76,348,-7949,1745203106139085000
696545,-1630,23,86,-126,428,-7618,1745203106139085000
696737,-1811,73,108,-273,410,-7284,1745203106139085000
696929,-1981,139,125,-391,274,-7123,1745203106139085000
697121,-2147,214,141,-484,50,-6901,1745203106139085000
697313,-2324,305,170,-581,-345,-6794,1745203106139085000
697505,-2537,387,226,-572,-881,-6910,1745203106197885661
697697,-2793,451,306,-411,-1384,-6894,1745203106197885661
697889,-3089,487,392,-54,-1730,-6683,1745203106197885661
698081,-3420,478,469,427,-1932,-6365,1745203106197885661
698273,-3771,419,517,936,-2116,-5952,1745203106197885661
698465,-4138,314,533,1435,-2178,-5609,1745203106197885661
698657,-4517,215,518,1798,-2176,-5245,1745203106197885661
698849,-4862,107,485,2039,-1552,-3079,1745203106197885661
699041,-5042,-23,373,2043,-422,-4378,1745203106197885661
699233,-5128,-230,296,1863,414,-3704,1745203106197885661
699425,-5123,-412,326,1601,509,-3452,1745203106197885661
699617,-5083,-618,407,1124,89,-4485,1745203106197885661
699809,-5177,-764,479,706,-305,-5237,1745203106256394658
700001,-5552,-848,488,235,-530,-5812,1745203106256394658
700193,-6190,-919,444,-124,-625,-6318,1745203106256394658
700385,-7006,-962,322,-402,-141,-6720,1745203106256394658
700577,-7906,-985,130,-590,938,-6276,1745203106256394658
700769,-8711,-976,-87,-712,2442,-4554,1745203106256394658
700961,-9226,-959,-247,-614,4800,-2656,1745203106256394658
701153,-9423,-956,-347,-537,7592,-1454,1745203106256394658
701345,-9401,-1008,-336,-248,10559,-856,1745203106256394658
701537,-9214,-1071,-256,-170,12708,-719,1745203106256394658
701729,-8848,-1145,-143,-29,14047,-706,1745203106256394658
701921,-8364,-1200,-78,-1,14506,-271,1745203106256394658
702113,-7823,-1237,-57,-154,14338,-130,1745203106316713534
702305,-7254,-1259,-15,-253,13987,240,1745203106316713534
702497,-6712,-1289,46,-57,13006,472,1745203106316713534
702689,-6223,-1295,10,-160,12004,351,1745203106316713534
702881,-5785,-1260,-92,-445,11496,570,1745203106316713534
703073,-5384,-1224,-181,-753,11141,933,1745203106316713534
703265,-5019,-1175,-240,-1005,10855,1117,1745203106316713534
703457,-4700,-1141,-267,-1272,10712,1114,1745203106316713534
703649,-4408,-1098,-268,-1393,10567,1145,1745203106316713534
703841,-4052,-1045,-285,-1455,10640,1096,1745203106316713534
704033,-3721,-990,-314,-1460,10624,803,1745203106316713534
704225,-3392,-943,-345,-1411,10705,763,1745203106316713534
704417,-3054,-916,-384,-1332,10752,856,1745203106372602763
704609,-2729,-885,-424,-1240,10726,733,1745203106372602763
704801,-2413,-846,-448,-1186,10689,436,1745203106372602763
704993,-2114,-800,-445,-1123,10593,156,1745203106372602763
705185,-1848,-749,-417,-985,10301,-117,1745203106372602763
705377,-1653,-721,-376,-826,9663,-520,1745203106372602763
705569,-1520,-703,-317,-715,8839,-776,1745203106372602763
705761,-1426,-681,-236,-625,8127,-440,1745203106372602763
705953,-1366,-643,-148,-592,7804,136,1745203106372602763
706145,-1344,-608,-67,-464,7702,343,1745203106372602763
706337,-1403,-564,1,-559,7925,549,1745203106372602763
706529,-1461,-506,54,-722,8339,1052,1745203106372602763
706721,-1463,-434,76,-1002,8864,1470,1745203106434730529
706913,-1395,-359,80,-1247,9381,1685,1745203106434730529
707105,-1260,-294,82,-1423,9749,1855,1745203106434730529
707297,-1065,-233,87,-1431,9903,2095,1745203106434730529
707489,-845,-200,85,-1264,9741,2474,1745203106434730529
707681,-657,-182,70,-1043,9122,2373,1745203106434730529
707873,-513,-157,57,-871,8339,2152,1745203106434730529
708065,-391,-122,69,-723,7860,2229,1745203106434730529
708257,-298,-79,104,-603,7735,2177,1745203106434730529
708449,-220,-50,143,-518,7957,2092,1745203106434730529
708641,-138,-34,156,-452,8426,2042,1745203106434730529
708833,-34,-21,137,-497,8978,2123,1745203106434730529
709025,103,-2,102,-585,9509,2289,1745203106487977959
709217,263,24,68,-687,9875,2296,1745203106487977959
709409,443,55,40,-779,10112,2214,1745203106487977959
709601,655,89,21,-844,10359,2162,1745203106487977959
709793,925,127,4,-841,10962,2483,1745203106487977959
709985,1260,158,-28,-797,11953,2931,1745203106487977959
710177,1645,193,-83,-824,13016,3120,1745203106487977959
710369,2113,252,-157,-911,14058,3183,1745203106487977959
710561,2701,321,-250,-971,15079,3149,1745203106487977959
710753,3420,390,-360,-1030,16177,3278,1745203106487977959
710945,4269,436,-483,-991,17265,3937,1745203106487977959
711137,5166,457,-603,-882,17934,4402,1745203106487977959
711329,6048,470,-709,-718,17841,4307,1745203106549856560
711521,6864,440,-791,-472,16896,3854,1745203106549856560
711713,7587,352,-805,-144,16022,3858,1745203106549856560
711905,8160,230,-843,-287,14772,3227,1745203106549856560
712097,8626,62,-887,427,12236,3708,1745203106549856560
712289,9452,-34,-1125,-603,10040,3427,1745203106549856560
712481,9875,-116,-1192,1142,10068,8656,1745203106549856560
712673,10172,752,-1117,-767,9100,5466,1745203106549856560
712865,10398,1045,-1085,-1178,7649,3990,1745203106549856560
713057,10643,1109,-1067,-1515,7185,4267,1745203106549856560
713249,10821,1154,-1081,-1611,6256,3461,1745203106549856560
713441,10961,1125,-1071,-1639,5453,3223,1745203106549856560
713633,11047,1110,-1048,-1481,4469,2408,1745203106606038130
713825,11127,1061,-1013,-1284,3802,1488,1745203106606038130
714017,11229,1029,-976,-942,3420,1801,1745203106606038130
714209,11270,934,-943,-698,2801,756,1745203106606038130
714401,11280,755,-929,-359,1799,-237,1745203106606038130
714593,11285,590,-941,-454,605,-1757,1745203106606038130
714785,11124,243,-969,-409,-1236,-2397,1745203106606038130
714977,10761,36,-949,294,-3283,-381,1745203106606038130
715169,10201,335,-893,-319,-6193,-2572,1745203106606038130
715361,9489,462,-822,-945,-7878,-3910,1745203106606038130
715553,8244,459,-589,-899,-9210,-5418,1745203106606038130
715745,6830,373,-209,-1171,-9630,-4855,1745203106606038130
715937,6755,266,-480,-1146,-11173,-8898,1745203106665549878
716129,5299,440,-521,-1012,-10766,-7097,1745203106665549878
716321,4301,726,-556,-630,-8700,-6905,1745203106665549878
716513,3827,1046,-581,-1514,-7030,-8850,1745203106665549878
716705,3485,887,-606,-1353,-2479,-8807,1745203106665549878
716897,2772,642,-744,-1916,-2009,-8764,1745203106665549878
717089,2226,213,-679,-1835,635,-10773,1745203106665549878
717281,1823,-143,-556,-908,263,-7774,1745203106665549878
717473,1319,-171,-494,-751,196,-7864,1745203106665549878
717665,984,-104,-443,-875,-114,-8852,1745203106665549878
717857,752,-104,-385,-804,-896,-9308,1745203106665549878
718049,435,-74,-308,-767,-1915,-9637,1745203106665549878
718241,60,-69,-221,-774,-2840,-9780,1745203106729830489
718433,-274,-93,-154,-766,-3248,-9678,1745203106729830489
718625,-639,-108,-114,-993,-3725,-9343,1745203106729830489
718817,-1050,-118,-90,-1209,-4295,-9662,1745203106729830489
719009,-1390,-150,-60,-1222,-4404,-9678,1745203106729830489
719201,-1678,-156,-33,-1244,-3503,-9269,1745203106729830489
719393,-1847,-169,3,-1138,-2273,-8869,1745203106729830489
719585,-1879,-187,26,-1003,-1058,-8461,1745203106729830489
719777,-1800,-203,39,-979,-263,-8203,1745203106729830489
719969,-1652,-219,39,-1119,89,-8088,1745203106729830489
720161,-1501,-228,34,-1311,130,-8081,1745203106729830489
720353,-1376,-228,34,-1435,11,-8152,1745203106729830489
720545,-1286,-226,36,-1447,-165,-8238,1745203106785548314
720737,-1241,-226,40,-1361,-376,-8431,1745203106785548314
720929,-1238,-230,47,-1282,-559,-8596,1745203106785548314
721121,-1269,-236,57,-1279,-674,-8718,1745203106785548314
721313,-1337,-243,71,-1282,-744,-8842,1745203106785548314
721505,-1436,-249,80,-1353,-847,-8946,1745203106785548314
721697,-1559,-247,85,-1482,-984,-9008,1745203106785548314
721889,-1693,-233,87,-1602,-1038,-8987,1745203106785548314
722081,-1812,-206,79,-1752,-881,-8713,1745203106785548314
722273,-1934,-161,58,-1949,-615,-8424,1745203106785548314
722465,-2066,-111,24,-2113,-397,-8079,1745203106785548314
722657,-2200,-75,2,-2231,-250,-7946,1745203106785548314
722849,-2315,-57,5,-2237,-111,-8146,1745203106845561203
723041,-2395,-59,30,-2101,88,-8108,1745203106845561203
