timestamp,gyr_x,gyr_y,gyr_z,acc_x,acc_y,acc_z,pkt_time_ns
69472,-11,-17,-1,833,3347,-7217,1745204718512240556
69664,-44,-66,4,402,3057,-7288,1745204718512240556
69856,-14,-96,11,488,3665,-7512,1745204718512240556
70048,58,-129,9,355,3787,-7378,1745204718512240556
70240,57,-116,8,79,3720,-7382,1745204718512240556
70432,53,-72,6,-148,3670,-7377,1745204718512240556
70624,99,-49,1,-271,3677,-7408,1745204718512240556
70816,109,-9,3,-252,3663,-7389,1745204718512240556
71008,124,26,-5,-153,3576,-7392,1745204718512240556
71200,131,36,-14,8,3419,-7426,1745204718512240556
71392,110,50,-19,200,3292,-7427,1745204718512240556
71584,97,50,-15,330,3266,-7436,1745204718512240556
71776,77,40,-6,350,3265,-7466,1745204718567544635
71968,51,44,1,296,3267,-7481,1745204718567544635
72160,33,45,3,243,3284,-7482,1745204718567544635
72352,12,47,3,215,3241,-7462,1745204718567544635
72544,-2,56,3,212,3169,-7411,1745204718567544635
72736,-16,59,4,233,3100,-7405,1745204718567544635
72928,-38,60,8,256,3066,-7406,1745204718567544635
73120,-60,60,10,299,3083,-7412,1745204718567544635
73312,-81,55,14,313,3123,-7413,1745204718567544635
73504,-103,52,16,341,3179,-7409,1745204718567544635
73696,-124,47,15,361,3260,-7416,1745204718567544635
73888,-148,36,11,383,3350,-7439,1745204718567544635
74080,-159,29,12,403,3443,-7448,1745204718626403107
74272,-157,24,19,424,3553,-7468,1745204718626403107
74464,-147,20,27,452,3692,-7506,1745204718626403107
74656,-130,19,33,383,3835,-7523,1745204718626403107
74848,-99,24,35,366,4080,-7578,1745204718626403107
75040,-40,26,38,416,4424,-7615,1745204718626403107
75232,35,39,42,305,4624,-7578,1745204718626403107
75424,113,73,41,127,4697,-7583,1745204718626403107
75616,172,114,45,-162,4084,-7013,1745204718626403107
75808,127,236,63,-445,4694,-8357,1745204718626403107
76000,396,189,115,309,5149,-7140,1745204718626403107
76192,500,222,83,146,4455,-7195,1745204718626403107
76384,551,269,22,49,4177,-7153,1745204718684296953
76576,595,255,-22,360,3684,-6993,1745204718684296953
76768,533,238,-40,664,2181,-6612,1745204718684296953
76960,413,158,-28,885,1664,-6950,1745204718684296953
77152,270,79,12,980,1436,-7150,1745204718684296953
77344,123,41,51,1036,1646,-7190,1745204718684296953
77536,-1,-5,72,976,2085,-7266,1745204718684296953
77728,-99,-42,67,814,2549,-7336,1745204718684296953
77920,-160,-67,38,557,2930,-7394,1745204718684296953
78112,-195,-78,13,285,3141,-7464,1745204718684296953
78304,-218,-72,-1,103,3194,-7532,1745204718684296953
78496,-235,-62,0,62,3190,-7591,1745204718684296953
78688,-256,-48,12,154,3128,-7664,1745204718742714493
78880,-289,-35,27,309,3070,-7719,1745204718742714493
79072,-335,-26,40,474,2999,-7745,1745204718742714493
79264,-392,-29,48,604,2935,-7691,1745204718742714493
79456,-463,-45,48,684,2871,-7639,1745204718742714493
79648,-546,-73,52,684,2836,-7571,1745204718742714493
79840,-642,-103,61,655,2808,-7599,1745204718742714493
80032,-752,-129,68,597,2823,-7599,1745204718742714493
80224,-857,-156,80,568,2929,-7547,1745204718742714493
80416,-958,-180,89,602,3028,-7685,1745204718742714493
80608,-1075,-212,87,697,3008,-7665,1745204718742714493
80800,-1180,-248,78,778,2863,-7811,1745204718742714493
80992,-1283,-282,67,871,2571,-8229,1745204718810721944
81184,-1402,-315,57,928,2282,-8360,1745204718810721944
81376,-1526,-346,64,927,2124,-8355,1745204718810721944
81568,-1651,-378,79,894,2187,-8221,1745204718810721944
81760,-1777,-393,95,927,2479,-8138,1745204718810721944
81952,-1911,-420,99,1046,2853,-8172,1745204718810721944
82144,-2052,-440,88,1223,3174,-8328,1745204718810721944
82336,-2206,-462,66,1324,3406,-8326,1745204718810721944
82528,-2366,-487,42,1300,3665,-8360,1745204718810721944
82720,-2541,-508,21,1222,3959,-8299,1745204718810721944
82912,-2724,-529,-2,1133,4174,-8104,1745204718810721944
83104,-2898,-557,-30,1057,4307,-7849,1745204718810721944
83296,-3057,-584,-53,1037,4297,-7695,1745204718858471456
83488,-3194,-605,-72,1004,4327,-7416,1745204718858471456
83680,-3347,-634,-123,1025,4366,-6883,1745204718858471456
83872,-3580,-597,-231,923,4504,-6927,1745204718858471456
84064,-3835,-633,-285,829,4932,-6835,1745204718858471456
84256,-4048,-690,-276,845,5384,-6341,1745204718858471456
84448,-4208,-703,-243,1030,5540,-5945,1745204718858471456
84640,-4406,-561,-73,1857,5200,-3963,1745204718858471456
84832,-5306,15,325,3107,5292,933,1745204718858471456
85024,-6777,389,441,4019,5206,-215,1745204718858471456
85216,-7565,-44,204,4590,5436,-2108,1745204718858471456
85408,-7926,-567,-264,4317,6971,-632,1745204718858471456
85600,-8304,-858,-669,3301,8600,664,1745204718920084852
85792,-8723,-977,-841,2335,10391,-37,1745204718920084852
85984,-9644,-1135,-773,-563,9751,-2385,1745204718920084852
86176,-9678,-1870,-505,2262,11046,2725,1745204718920084852
86368,-9221,-1780,-574,2179,8163,4529,1745204718920084852
86560,-8634,-1569,-872,857,12580,3787,1745204718920084852
86752,-8628,-1221,-758,758,12093,5649,1745204718920084852
86944,-8389,-678,-837,-656,12227,3159,1745204718920084852
87136,-8171,-536,-870,-1262,12444,2642,1745204718920084852
87328,-7925,-409,-872,-1570,12701,2749,1745204718920084852
87520,-7637,-299,-873,-1804,12876,2827,1745204718920084852
87712,-7325,-214,-880,-1873,12910,3100,1745204718920084852
87904,-6984,-116,-917,-1766,12736,3367,1745204718975586428
88096,-6634,20,-988,-1636,12365,3595,1745204718975586428
88288,-6321,181,-1059,-1413,11987,3833,1745204718975586428
88480,-6024,376,-1100,-1216,11647,4155,1745204718975586428
88672,-5716,601,-1112,-1053,11466,4556,1745204718975586428
88864,-5372,852,-1105,-888,11464,4897,1745204718975586428
89056,-4966,1106,-1090,-755,11578,5144,1745204718975586428
89248,-4470,1326,-1084,-665,11744,5343,1745204718975586428
89440,-3892,1503,-1094,-664,11890,5513,1745204718975586428
89632,-3277,1632,-1101,-760,11978,5688,1745204718975586428
89824,-2659,1719,-1094,-990,11936,5764,1745204718975586428
90016,-2064,1807,-1078,-1265,11784,5837,1745204718975586428
90208,-1532,1865,-1063,-1550,11390,6186,1745204719037446957
90400,-1089,1921,-1054,-1792,10872,6759,1745204719037446957
90592,-720,1991,-1036,-2022,10354,6815,1745204719037446957
90784,-416,2031,-1024,-2269,9956,6649,1745204719037446957
90976,-207,2078,-1022,-2475,9628,6696,1745204719037446957
91168,-93,2153,-1029,-2646,9378,6814,1745204719037446957
91360,-48,2253,-1044,-2735,9159,6731,1745204719037446957
91552,-26,2355,-1057,-2760,9095,6540,1745204719037446957
91744,-15,2461,-1074,-2779,9009,6417,1745204719037446957
91936,-15,2551,-1096,-2709,9000,6102,1745204719037446957
92128,-27,2632,-1125,-2658,9035,5618,1745204719037446957
92320,-31,2716,-1156,-2624,9106,4929,1745204719037446957
92512,-17,2784,-1189,-2583,9216,4305,1745204719091895626
92704,13,2819,-1238,-2574,9400,3823,1745204719091895626
92896,51,2811,-1303,-2638,9655,3491,1745204719091895626
93088,81,2751,-1387,-2773,9852,3260,1745204719091895626
93280,98,2764,-1476,-2988,9963,3119,1745204719091895626
93472,89,2742,-1562,-3274,9995,2835,1745204719091895626
93664,90,2710,-1651,-3559,9960,2672,1745204719091895626
93856,87,2725,-1732,-3827,9847,2669,1745204719091895626
94048,80,2739,-1803,-4002,9649,2696,1745204719091895626
94240,72,2741,-1870,-4069,9421,2847,1745204719091895626
94432,55,2747,-1933,-4069,9178,2854,1745204719091895626
94624,31,2753,-1989,-4013,8988,2725,1745204719091895626
94816,-14,2774,-2042,-3977,8782,2369,1745204719165676619
95008,-55,2789,-2089,-3946,8537,2044,1745204719165676619
95200,-82,2804,-2146,-3834,8243,1965,1745204719165676619
95392,-91,2855,-2195,-3696,7952,1936,1745204719165676619
95584,-87,2856,-2235,-3545,7693,1754,1745204719165676619
95776,-67,2820,-2272,-3427,7538,1468,1745204719165676619
95968,-40,2791,-2310,-3372,7402,1014,1745204719165676619
96160,-6,2763,-2345,-3290,7274,506,1745204719165676619
96352,33,2729,-2377,-3229,7073,-18,1745204719165676619
96544,83,2687,-2407,-3214,6787,-534,1745204719165676619
96736,133,2614,-2430,-3207,6399,-856,1745204719165676619
96928,184,2576,-2438,-3189,5947,-1042,1745204719165676619
97120,239,2554,-2419,-3165,5446,-1518,1745204719216439592
97312,283,2486,-2381,-3138,4930,-1870,1745204719216439592
97504,328,2404,-2323,-3048,4455,-2190,1745204719216439592
97696,359,2334,-2258,-3006,4054,-2426,1745204719216439592
97888,378,2257,-2182,-2865,3652,-2572,1745204719216439592
98080,393,2209,-2106,-2843,3352,-2911,1745204719216439592
98272,415,2146,-2032,-2834,2905,-2963,1745204719216439592
98464,440,2075,-1943,-2728,2596,-3449,1745204719216439592
98656,454,1968,-1860,-2657,2159,-3746,1745204719216439592
98848,472,1863,-1776,-2605,1681,-3950,1745204719216439592
99040,493,1753,-1686,-2570,1160,-4169,1745204719216439592
99232,500,1645,-1583,-2515,653,-4346,1745204719216439592
99424,502,1525,-1465,-2490,169,-4576,1745204719269890927
99616,487,1388,-1334,-2474,-280,-4945,1745204719269890927
99808,451,1234,-1202,-2520,-672,-5364,1745204719269890927
100000,403,1084,-1073,-2613,-991,-5640,1745204719269890927
100192,346,926,-936,-2738,-1345,-5909,1745204719269890927
100384,288,780,-795,-2886,-1619,-6019,1745204719269890927
100576,234,630,-644,-3015,-1869,-6185,1745204719269890927
100768,183,464,-484,-3170,-2058,-6276,1745204719269890927
100960,131,309,-317,-3332,-2176,-6377,1745204719269890927
101152,88,155,-142,-3519,-2260,-6311,1745204719269890927
101344,48,-8,59,-3694,-2127,-6088,1745204719269890927
101536,0,-187,301,-3863,-1891,-5686,1745204719269890927
101728,-64,-370,547,-3846,-2855,-6438,1745204719327907897
101920,-44,-349,501,-4199,-2038,-5894,1745204719327907897
102112,-4,-377,606,-4354,-1739,-5576,1745204719327907897
102304,-2,-462,744,-4462,-1429,-5400,1745204719327907897
102496,8,-512,888,-4594,-1047,-5324,1745204719327907897
102688,22,-547,1049,-4547,-488,-5244,1745204719327907897
102880,45,-588,1227,-4367,68,-5059,1745204719327907897
103072,82,-642,1395,-4162,607,-4867,1745204719327907897
103264,135,-711,1540,-3989,1096,-4690,1745204719327907897
103456,198,-788,1655,-3844,1535,-4396,1745204719327907897
103648,268,-876,1750,-3747,1968,-4047,1745204719327907897
103840,330,-965,1839,-3733,2369,-3649,1745204719327907897
104032,368,-1041,1927,-3756,2733,-3185,1745204719384458058
104224,366,-1098,2012,-3756,3096,-2647,1745204719384458058
104416,308,-1121,2073,-3602,3445,-2204,1745204719384458058
104608,175,-1077,2071,-3523,3786,-1528,1745204719384458058
104800,7,-1031,2077,-4494,5083,556,1745204719384458058
104992,-104,-1152,2250,-3763,5193,1186,1745204719384458058
105184,-291,-1152,2272,-3576,6129,2223,1745204719384458058
105376,-479,-1109,2212,-3462,7184,3676,1745204719384458058
105568,-649,-1058,2123,-3352,8423,5248,1745204719384458058
105760,-807,-983,2005,-3409,9922,6423,1745204719384458058
105952,-935,-881,1893,-3456,11418,7295,1745204719384458058
106144,-1033,-737,1747,-3601,13467,8015,1745204719384458058
106336,-1044,-543,1553,-3889,15073,8255,1745204719448834501
106528,-975,-406,1397,-4410,14927,7996,1745204719448834501
106720,-329,-337,1136,-4089,15486,9426,1745204719448834501
106912,129,-169,861,-4649,19650,6693,1745204719448834501
107104,-385,37,690,-5306,18999,6059,1745204719448834501
107296,-551,186,503,-5409,18561,5616,1745204719448834501
107488,-453,281,229,-5534,17487,5523,1745204719448834501
107680,-203,405,-67,-5750,16339,5166,1745204719448834501
107872,21,484,-294,-6021,15394,4746,1745204719448834501
108064,116,558,-462,-6307,14376,4447,1745204719448834501
108256,165,649,-618,-6576,13466,4265,1745204719448834501
108448,221,746,-786,-6851,12779,4156,1745204719448834501
108640,286,843,-959,-7083,12232,4105,1745204719501247668
108832,357,934,-1128,-7260,11671,4044,1745204719501247668
109024,438,1017,-1290,-7382,11098,3911,1745204719501247668
109216,525,1101,-1432,-7463,10472,3699,1745204719501247668
109408,606,1182,-1548,-7430,9779,3400,1745204719501247668
109600,669,1262,-1644,-7295,9030,2888,1745204719501247668
109792,702,1341,-1723,-7120,8227,2219,1745204719501247668
109984,706,1407,-1782,-6854,7324,1572,1745204719501247668
110176,681,1469,-1824,-6467,6437,952,1745204719501247668
110368,631,1513,-1849,-6052,5570,271,1745204719501247668
110560,558,1533,-1856,-5619,4781,-449,1745204719501247668
110752,468,1528,-1846,-5203,4115,-1118,1745204719501247668
110944,364,1495,-1823,-4798,3519,-1736,1745204719564924274
111136,256,1441,-1790,-4528,2956,-2298,1745204719564924274
111328,147,1370,-1744,-4278,2515,-2882,1745204719564924274
111520,56,1286,-1687,-4157,2093,-3244,1745204719564924274
111712,-15,1201,-1610,-4146,1846,-3725,1745204719564924274
111904,-63,1119,-1541,-4109,1691,-3957,1745204719564924274
112096,-102,1043,-1454,-4251,1369,-4328,1745204719564924274
112288,-67,991,-1348,-4326,1323,-4403,1745204719564924274
112480,-92,920,-1239,-4161,1088,-4858,1745204719564924274
112672,-85,818,-1130,-4091,971,-4751,1745204719564924274
112864,-43,723,-1026,-4039,789,-4905,1745204719564924274
113056,16,614,-914,-4063,515,-5061,1745204719564924274
113248,73,485,-784,-4087,205,-5237,1745204719626941363
113440,117,363,-634,-4125,-125,-5448,1745204719626941363
113632,149,241,-472,-4194,-498,-5664,1745204719626941363
113824,168,123,-304,-4240,-868,-5823,1745204719626941363
114016,175,7,-137,-4272,-1188,-5921,1745204719626941363
114208,166,-106,22,-4333,-1413,-5937,1745204719626941363
114400,142,-217,176,-4413,-1508,-5910,1745204719626941363
114592,113,-322,327,-4529,-1459,-5787,1745204719626941363
114784,79,-413,471,-4644,-1280,-5613,1745204719626941363
114976,41,-482,611,-4648,-820,-5397,1745204719626941363
115168,-8,-522,755,-4514,-195,-5130,1745204719626941363
115360,-52,-570,893,-4297,441,-4831,1745204719626941363
115552,-68,-629,1015,-4124,1074,-4491,1745204719680015253
115744,-52,-704,1125,-3996,1606,-4127,1745204719680015253
115936,-18,-801,1222,-3950,2052,-3755,1745204719680015253
116128,17,-904,1309,-4003,2433,-3346,1745204719680015253
116320,40,-1002,1391,-4117,2862,-2826,1745204719680015253
116512,34,-1082,1467,-4241,3275,-2161,1745204719680015253
116704,-4,-1138,1539,-4384,3760,-1461,1745204719680015253
116896,-83,-1163,1596,-4524,4388,-704,1745204719680015253
117088,-196,-1149,1643,-4644,5090,22,1745204719680015253
117280,-320,-1113,1669,-4725,5873,708,1745204719680015253
117472,-440,-1063,1673,-4746,6690,1428,1745204719680015253
117664,-545,-1012,1653,-4664,7597,2360,1745204719680015253
117856,-622,-957,1605,-4577,8566,3342,1745204719735255582
118048,-664,-910,1535,-4506,9592,4306,1745204719735255582
118240,-683,-845,1446,-4549,10804,5045,1745204719735255582
118432,-687,-751,1328,-4650,11761,5385,1745204719735255582
118624,-657,-655,1156,-4561,12691,5422,1745204719735255582
118816,-583,-561,929,-4714,13545,5762,1745204719735255582
119008,-465,-426,685,-5062,14062,5665,1745204719735255582
119200,-324,-302,465,-5338,14346,5595,1745204719735255582
119392,-207,-151,272,-5460,14385,5404,1745204719735255582
119584,-134,-12,93,-5514,14082,5084,1745204719735255582
119776,-76,142,-82,-5689,13751,4808,1745204719735255582
119968,-3,293,-208,-5949,13547,4732,1745204719735255582
120160,95,411,-278,-6056,13308,4584,1745204719799411350
120352,200,494,-362,-6075,12858,4267,1745204719799411350
120544,303,554,-507,-6152,12287,4065,1745204719799411350
120736,408,596,-696,-6333,11641,3967,1745204719799411350
120928,512,649,-876,-6606,10994,3793,1745204719799411350
121120,601,719,-1009,-6852,10304,3489,1745204719799411350
121312,663,790,-1101,-7024,9466,3130,1745204719799411350
121504,692,857,-1183,-7022,8530,2769,1745204719799411350
121696,692,921,-1262,-7029,7557,2162,1745204719799411350
121888,651,982,-1321,-6990,6631,1255,1745204719799411350
122080,565,1042,-1356,-6835,5744,205,1745204719799411350
122272,454,1087,-1366,-6569,4981,-761,1745204719799411350
122464,334,1108,-1344,-6229,4346,-1616,1745204719857459622
122656,204,1100,-1296,-5800,3827,-2372,1745204719857459622
122848,65,1063,-1237,-5423,3354,-3009,1745204719857459622
123040,-71,1006,-1178,-5054,3053,-3661,1745204719857459622
123232,-183,931,-1124,-4901,2758,-4136,1745204719857459622
123424,-258,862,-1070,-4741,2563,-4654,1745204719857459622
123616,-300,765,-1019,-4547,2325,-5059,1745204719857459622
123808,-312,669,-966,-4440,2115,-5289,1745204719857459622
124000,-298,565,-901,-4375,1930,-5485,1745204719857459622
124192,-265,453,-817,-4278,1756,-5537,1745204719857459622
124384,-217,328,-710,-4205,1582,-5474,1745204719857459622
124576,-156,199,-583,-4172,1397,-5342,1745204719857459622
124768,-84,73,-443,-4155,1154,-5342,1745204719914863889
124960,-3,-51,-299,-4217,888,-5495,1745204719914863889
125152,77,-170,-159,-4279,599,-5682,1745204719914863889
125344,147,-287,-26,-4383,250,-5804,1745204719914863889
125536,194,-406,100,-4450,-135,-5863,1745204719914863889
125728,213,-518,227,-4491,-431,-5738,1745204719914863889
125920,201,-619,371,-4468,-590,-5563,1745204719914863889
126112,166,-712,526,-4403,-621,-5271,1745204719914863889
126304,119,-792,682,-4281,-546,-4910,1745204719914863889
126496,65,-865,830,-4106,-276,-4395,1745204719914863889
126688,-4,-936,968,-3925,184,-3732,1745204719914863889
126880,-88,-1004,1096,-3723,730,-2990,1745204719914863889
127072,-175,-1067,1214,-3567,1442,-2184,1745204719984968614
127264,-257,-1123,1320,-3420,2180,-1360,1745204719984968614
127456,-332,-1164,1413,-3350,3017,-586,1745204719984968614
127648,-408,-1188,1483,-3306,3874,132,1745204719984968614
127840,-480,-1189,1521,-3354,4778,787,1745204719984968614
128032,-540,-1166,1528,-3467,5660,1337,1745204719984968614
128224,-585,-1117,1514,-3599,6428,1736,1745204719984968614
128416,-606,-1051,1485,-3772,7043,2059,1745204719984968614
128608,-592,-976,1449,-3897,7503,2483,1745204719984968614
128800,-550,-900,1407,-4006,7861,3006,1745204719984968614
128992,-491,-815,1364,-4099,8172,3445,1745204719984968614
129184,-435,-713,1314,-4256,8511,3785,1745204719984968614
129376,-375,-607,1259,-4353,8687,3864,1745204720035720754
129568,-300,-497,1197,-4398,8963,3738,1745204720035720754
129760,-191,-387,1116,-4444,9058,3662,1745204720035720754
129952,-60,-291,1037,-4688,9034,3306,1745204720035720754
130144,68,-220,984,-4780,8759,2905,1745204720035720754
130336,191,-147,953,-4920,8407,2313,1745204720035720754
130528,310,-95,939,-5027,7962,1766,1745204720035720754
130720,427,-49,934,-5114,7510,1243,1745204720035720754
130912,538,-11,930,-5160,7022,751,1745204720035720754
131104,642,16,926,-5184,6547,272,1745204720035720754
131296,732,35,928,-5213,6064,-207,1745204720035720754
131488,796,43,945,-5217,5550,-672,1745204720035720754
131680,830,43,975,-5193,5014,-1107,1745204720090326609
131872,834,36,1021,-5154,4438,-1523,1745204720090326609
132064,815,20,1081,-5130,3882,-1937,1745204720090326609
132256,774,9,1162,-5051,3467,-2446,1745204720090326609
132448,712,-9,1257,-4908,3305,-2963,1745204720090326609
132640,634,-30,1356,-4704,3306,-3367,1745204720090326609
132832,552,-60,1456,-4487,3473,-3710,1745204720090326609
133024,487,-107,1552,-4275,3906,-3925,1745204720090326609
133216,449,-187,1632,-3911,4415,-4265,1745204720090326609
133408,438,-293,1692,-3669,5014,-4322,1745204720090326609
133600,461,-411,1738,-3528,5618,-4341,1745204720090326609
133792,509,-547,1778,-3467,6185,-4204,1745204720090326609
133984,576,-681,1823,-3493,6651,-4122,1745204720160184565
134176,667,-807,1872,-3612,7097,-4114,1745204720160184565
134368,779,-927,1924,-3788,7502,-4109,1745204720160184565
134560,903,-1036,1977,-3950,7868,-3839,1745204720160184565
134752,1003,-1141,2026,-4141,8234,-3729,1745204720160184565
134944,1060,-1228,2074,-4335,8665,-3855,1745204720160184565
135136,1064,-1296,2112,-4433,9136,-3988,1745204720160184565
135328,1042,-1346,2133,-4491,9535,-4298,1745204720160184565
135520,1033,-1399,2135,-4467,9862,-4346,1745204720160184565
135712,1063,-1469,2106,-4407,10142,-4212,1745204720160184565
135904,1106,-1534,2055,-4433,10321,-4339,1745204720160184565
136096,1128,-1605,1998,-4505,10270,-4135,1745204720160184565
136288,1105,-1671,1959,-4642,10000,-3969,1745204720207127470
136480,1009,-1732,1948,-4845,9753,-4119,1745204720207127470
136672,823,-1762,1934,-5021,9667,-4335,1745204720207127470
136864,551,-1750,1905,-5094,9821,-4441,1745204720207127470
137056,241,-1726,1846,-5021,10327,-4420,1745204720207127470
137248,-47,-1706,1750,-4882,11277,-4225,1745204720207127470
137440,-282,-1702,1618,-4677,12669,-3779,1745204720207127470
137632,-454,-1723,1469,-4486,14385,-3218,1745204720207127470
137824,-530,-1749,1323,-4404,16094,-2627,1745204720207127470
138016,-492,-1767,1185,-4268,17351,-1884,1745204720207127470
138208,-318,-1790,1038,-4131,17815,-1205,1745204720207127470
138400,-26,-1806,880,-3956,17662,-939,1745204720207127470
138592,286,-1829,720,-3818,17026,-1249,1745204720270786055
138784,525,-1864,569,-3669,16014,-1619,1745204720270786055
138976,655,-1908,425,-3487,14657,-1746,1745204720270786055
139168,695,-1952,290,-3331,13227,-1842,1745204720270786055
139360,657,-1990,174,-3216,12044,-2097,1745204720270786055
139552,564,-2018,84,-3061,11345,-2293,1745204720270786055
139744,435,-2042,7,-2844,11269,-2289,1745204720270786055
139936,299,-2062,-73,-2611,11720,-1990,1745204720270786055
140128,193,-2084,-170,-2418,12565,-1563,1745204720270786055
140320,147,-2105,-285,-2322,13560,-1120,1745204720270786055
140512,175,-2125,-420,-2260,14463,-569,1745204720270786055
140704,276,-2144,-567,-2248,15067,-30,1745204720270786055
140896,433,-2148,-707,-2243,15298,372,1745204720324016089
141088,630,-2138,-830,-2227,15110,588,1745204720324016089
141280,840,-2129,-924,-2131,14526,825,1745204720324016089
141472,1020,-2132,-992,-1993,13653,927,1745204720324016089
141664,1147,-2143,-1040,-1884,12712,944,1745204720324016089
141856,1208,-2148,-1072,-1768,11881,1035,1745204720324016089
142048,1210,-2135,-1093,-1673,11285,1050,1745204720324016089
142240,1170,-2108,-1112,-1508,10842,1116,1745204720324016089
142432,1105,-2083,-1126,-1336,10401,1216,1745204720324016089
142624,1028,-2068,-1139,-1156,9898,1314,1745204720324016089
142816,935,-2063,-1152,-1058,9362,1456,1745204720324016089
143008,820,-2056,-1162,-1065,8851,1646,1745204720324016089
143200,684,-2033,-1167,-1121,8442,1817,1745204720387095721
143392,532,-1995,-1169,-1246,8154,1915,1745204720387095721
143584,383,-1935,-1168,-1341,8018,2007,1745204720387095721
143776,253,-1865,-1163,-1386,8054,2096,1745204720387095721
143968,158,-1787,-1163,-1393,8102,2185,1745204720387095721
144160,111,-1704,-1165,-1382,8229,2201,1745204720387095721
144352,109,-1628,-1169,-1329,8293,2315,1745204720387095721
144544,151,-1558,-1173,-1291,8293,2357,1745204720387095721
144736,232,-1495,-1177,-1229,8197,2404,1745204720387095721
144928,336,-1439,-1179,-1173,8017,2405,1745204720387095721
145120,455,-1386,-1173,-1165,7754,2401,1745204720387095721
145312,578,-1350,-1159,-1133,7421,2521,1745204720387095721
145504,690,-1303,-1137,-1159,6995,2677,1745204720501021295
145696,778,-1246,-1111,-1253,6531,2635,1745204720501021295
145888,838,-1200,-1078,-1330,6066,2656,1745204720501021295
146080,872,-1145,-1040,-1388,5685,2658,1745204720501021295
146272,880,-1080,-998,-1447,5364,2659,1745204720501021295
146464,864,-1014,-948,-1466,5203,2660,1745204720501021295
146656,840,-935,-909,-1482,5037,2611,1745204720501021295
146848,803,-871,-864,-1511,4949,2505,1745204720501021295
147040,757,-801,-817,-1560,4898,2468,1745204720501021295
147232,710,-738,-767,-1553,4867,2367,1745204720501021295
147424,663,-676,-717,-1560,4853,2237,1745204720501021295
147616,618,-619,-668,-1547,4845,2082,1745204720501021295
147808,586,-566,-624,-1550,4872,1993,1745204720510296679
148000,572,-513,-581,-1565,4930,1931,1745204720510296679
148192,571,-461,-542,-1592,5018,1890,1745204720510296679
148384,582,-418,-508,-1595,5107,1897,1745204720510296679
148576,604,-379,-479,-1647,5156,1922,1745204720510296679
148768,633,-345,-453,-1699,5139,1881,1745204720510296679
148960,667,-307,-428,-1782,5072,1800,1745204720510296679
149152,707,-270,-402,-1856,5045,1749,1745204720510296679
149344,748,-229,-374,-1926,5041,1723,1745204720510296679
149536,782,-191,-347,-1974,5001,1610,1745204720510296679
149728,809,-156,-329,-2036,4908,1492,1745204720510296679
149920,832,-122,-315,-2081,4792,1464,1745204720510296679
150112,853,-91,-301,-2109,4668,1421,1745204720557006096
150304,868,-55,-282,-2159,4593,1347,1745204720557006096
150496,871,-19,-257,-2194,4583,1281,1745204720557006096
150688,863,14,-232,-2187,4624,1212,1745204720557006096
150880,849,40,-209,-2178,4670,1123,1745204720557006096
151072,837,63,-189,-2181,4712,1028,1745204720557006096
151264,837,86,-169,-2221,4791,906,1745204720557006096
151456,843,108,-148,-2256,4866,799,1745204720557006096
151648,854,124,-128,-2294,4903,716,1745204720557006096
151840,868,138,-109,-2338,4890,596,1745204720557006096
152032,886,147,-90,-2401,4857,478,1745204720557006096
152224,906,154,-73,-2480,4813,415,1745204720557006096
152416,933,168,-54,-2567,4762,342,1745204720615636967
152608,964,183,-32,-2664,4747,270,1745204720615636967
152800,995,199,-8,-2713,4755,245,1745204720615636967
152992,1021,211,14,-2749,4716,216,1745204720615636967
153184,1047,224,35,-2760,4681,138,1745204720615636967
153376,1075,240,53,-2814,4641,109,1745204720615636967
153568,1107,257,74,-2866,4608,23,1745204720615636967
153760,1138,274,96,-2947,4598,-132,1745204720615636967
153952,1177,293,121,-3027,4605,-227,1745204720615636967
154144,1221,312,145,-3096,4663,-217,1745204720615636967
154336,1259,328,162,-3125,4643,-257,1745204720615636967
154528,1290,340,178,-3212,4503,-422,1745204720615636967
154720,1317,350,201,-3272,4368,-543,1745204720676018342
154912,1336,365,228,-3382,4294,-712,1745204720676018342
155104,1355,388,261,-3506,4372,-923,1745204720676018342
155296,1379,416,296,-3620,4536,-1168,1745204720676018342
155488,1417,442,331,-3693,4759,-1410,1745204720676018342
155680,1474,461,366,-3694,5013,-1517,1745204720676018342
155872,1543,464,396,-3679,5144,-1631,1745204720676018342
156064,1618,454,421,-3664,5153,-1676,1745204720676018342
156256,1694,441,444,-3666,5081,-1740,1745204720676018342
156448,1760,429,467,-3719,4980,-1777,1745204720676018342
156640,1815,425,493,-3765,4868,-1740,1745204720676018342
156832,1861,423,520,-3828,4819,-1652,1745204720676018342
157024,1903,431,548,-3877,4823,-1641,1745204720732777720
157216,1934,444,579,-3884,4864,-1564,1745204720732777720
157408,1953,463,608,-3886,4888,-1565,1745204720732777720
157600,1969,481,633,-3846,4864,-1610,1745204720732777720
157792,1971,497,657,-3817,4837,-1617,1745204720732777720
157984,1978,520,685,-3763,4835,-1638,1745204720732777720
158176,1971,545,718,-3720,4833,-1677,1745204720732777720
158368,1967,577,753,-3648,4858,-1809,1745204720732777720
158560,1975,615,785,-3602,4877,-1973,1745204720732777720
158752,1995,632,816,-3570,4945,-2164,1745204720732777720
158944,2030,673,845,-3608,5071,-2445,1745204720732777720
159136,2075,718,870,-3525,5187,-2388,1745204720732777720
159328,2111,755,895,-3442,5283,-2712,1745204720792214677
159520,2164,796,918,-3348,5430,-2902,1745204720792214677
159712,2242,831,935,-3220,5613,-2988,1745204720792214677
159904,2335,867,949,-3078,5833,-3083,1745204720792214677
160096,2444,900,956,-2974,6042,-3146,1745204720792214677
160288,2570,930,961,-2877,6167,-3142,1745204720792214677
160480,2710,957,964,-2774,6217,-3035,1745204720792214677
160672,2859,982,964,-2709,6165,-2906,1745204720792214677
160864,3003,1012,962,-2647,6014,-2773,1745204720792214677
161056,3136,1044,960,-2616,5842,-2691,1745204720792214677
161248,3256,1085,954,-2639,5680,-2726,1745204720792214677
161440,3350,1133,943,-2630,5504,-2744,1745204720792214677
161632,3420,1186,933,-2605,5339,-2878,1745204720855865345
161824,3478,1235,918,-2542,5204,-3039,1745204720855865345
162016,3531,1283,899,-2457,5134,-3255,1745204720855865345
162208,3584,1325,878,-2341,5100,-3465,1745204720855865345
162400,3623,1374,859,-2233,5006,-3768,1745204720855865345
162592,3626,1428,843,-2155,4799,-4129,1745204720855865345
162784,3614,1473,829,-2047,4574,-4476,1745204720855865345
162976,3603,1505,818,-1943,4382,-4823,1745204720855865345
163168,3588,1533,809,-1877,4310,-5215,1745204720855865345
163360,3566,1556,799,-1834,4280,-5436,1745204720855865345
163552,3562,1599,788,-1834,4420,-5607,1745204720855865345
163744,3539,1641,767,-1750,4549,-5807,1745204720855865345
163936,3529,1642,747,-1590,4578,-5793,1745204720910374379
164128,3537,1654,730,-1412,4551,-5874,1745204720910374379
164320,3547,1654,709,-1239,4489,-5934,1745204720910374379
164512,3560,1658,686,-1042,4445,-6052,1745204720910374379
164704,3569,1633,665,-841,4252,-6005,1745204720910374379
164896,3571,1622,637,-709,4005,-5969,1745204720910374379
165088,3556,1618,608,-613,3664,-5899,1745204720910374379
165280,3512,1640,579,-519,3289,-5953,1745204720910374379
165472,3438,1692,551,-481,2846,-5834,1745204720910374379
165664,3342,1821,551,-417,2481,-5904,1745204720910374379
165856,3217,1992,556,-358,2310,-6024,1745204720910374379
166048,2966,2155,602,-705,1563,-7204,1745204720910374379
166240,3000,2167,518,1,2103,-7863,1745204720966746312
166432,3018,2061,313,-1132,1003,-8584,1745204720966746312
166624,2692,1817,512,-413,1181,-8722,1745204720966746312
166816,2384,1635,565,-49,1210,-8699,1745204720966746312
167008,2109,1532,570,162,1127,-8861,1745204720966746312
167200,1873,1464,575,393,1146,-8828,1745204720966746312
167392,1676,1419,561,470,1290,-9157,1745204720966746312
167584,1462,1325,543,623,1338,-9160,1745204720966746312
167776,1298,1235,523,692,1396,-9174,1745204720966746312
167968,1162,1183,506,685,1400,-9284,1745204720966746312
168160,1043,1130,502,612,1394,-9364,1745204720966746312
168352,939,1080,506,588,1372,-9379,1745204720966746312
168544,845,1031,512,505,1341,-9302,1745204721025306714
168736,759,983,519,417,1284,-9282,1745204721025306714
168928,681,941,523,352,1206,-9265,1745204721025306714
169120,612,905,519,290,1139,-9163,1745204721025306714
169312,549,881,519,233,1115,-9105,1745204721025306714
169504,495,867,527,215,1103,-9086,1745204721025306714
169696,446,855,538,222,1098,-9101,1745204721025306714
169888,403,835,542,260,1138,-9138,1745204721025306714
170080,368,814,545,304,1182,-9148,1745204721025306714
170272,344,795,545,331,1177,-9098,1745204721025306714
170464,333,783,543,353,1170,-9042,1745204721025306714
170656,325,781,543,366,1137,-8942,1745204721025306714
170848,316,789,548,375,1102,-8801,1745204721085203511
171040,310,795,551,418,1045,-8723,1745204721085203511
171232,302,803,549,447,993,-8649,1745204721085203511
171424,293,819,553,504,941,-8493,1745204721085203511
171616,281,841,563,541,913,-8343,1745204721085203511
171808,247,842,577,567,836,-8262,1745204721085203511
172000,181,795,578,639,694,-7928,1745204721085203511
172192,105,741,583,775,718,-7607,1745204721085203511
172384,20,683,594,769,519,-7178,1745204721085203511
172576,-34,657,659,1374,317,-5243,1745204721085203511
172768,77,910,677,1130,624,-5941,1745204721085203511
172960,83,1037,663,1119,992,-6288,1745204721085203511
173152,122,1017,686,1698,2187,-5899,1745204721143212877
173344,222,986,724,2453,3018,-5819,1745204721143212877
173536,548,836,931,3265,2576,-3775,1745204721143212877
173728,705,803,1081,3349,1470,-4666,1745204721143212877
173920,906,924,717,3847,1240,-10263,1745204721143212877
174112,1240,1283,156,2308,3032,-23427,1745204721143212877
174304,-33,330,-18,5851,4140,-30149,1745204721143212877
174496,-580,-504,-505,6974,6832,-29613,1745204721143212877
174688,-1239,-818,-982,6047,6052,-22745,1745204721143212877
174880,-1554,-936,-822,4855,4259,-17330,1745204721143212877
175072,-1653,-995,-205,3195,3706,-15382,1745204721143212877
175264,-1597,-1403,375,1485,2614,-8835,1745204721143212877
175456,-1119,-1730,713,293,1887,-5203,1745204721213142342
175648,-910,-1345,814,-213,2049,-4782,1745204721213142342
175840,-773,-890,475,-1786,892,-5787,1745204721213142342
176032,-730,-597,165,-2151,669,-7081,1745204721213142342
176224,-771,-427,-84,-1853,758,-7769,1745204721213142342
176416,-852,-292,-171,-1233,1072,-7966,1745204721213142342
176608,-908,-203,-99,-506,1317,-8078,1745204721213142342
176800,-908,-168,57,300,1597,-7932,1745204721213142342
176992,-804,-148,177,1103,1950,-7574,1745204721213142342
177184,-600,-123,190,1632,2214,-7508,1745204721213142342
177376,-349,-99,130,1845,2406,-7619,1745204721213142342
177568,-94,-79,34,1852,2453,-7745,1745204721213142342
177760,130,-53,-52,1601,2284,-8014,1745204721263554329
177952,277,-18,-93,1411,2091,-8265,1745204721263554329
178144,334,19,-116,1246,1867,-8273,1745204721263554329
178336,299,55,-94,405,1293,-8849,1745204721263554329
178528,152,-23,20,541,1361,-8552,1745204721263554329
178720,16,-58,66,549,1403,-8010,1745204721263554329
178912,-81,-34,83,558,1638,-7786,1745204721263554329
179104,-149,-25,67,599,2009,-7811,1745204721263554329
179296,-194,-43,34,670,2394,-7846,1745204721263554329
179488,-207,-96,1,806,2573,-7332,1745204721263554329
179680,-116,-53,-18,1199,2993,-7145,1745204721263554329
179872,-4,56,-72,988,2947,-7681,1745204721263554329
180064,66,59,-75,1015,2895,-7695,1745204721316890301
180256,123,70,-66,984,2699,-7731,1745204721316890301
180448,166,73,-48,967,2456,-7720,1745204721316890301
180640,195,75,-33,931,2153,-7758,1745204721316890301
180832,217,86,-28,936,1926,-7738,1745204721316890301
181024,239,110,-37,916,1782,-7758,1745204721316890301
181216,252,135,-47,773,1648,-8026,1745204721316890301
181408,234,125,-38,732,1677,-8317,1745204721316890301
181600,197,84,-35,798,1641,-8133,1745204721316890301
181792,179,77,-30,833,1602,-8015,1745204721316890301
181984,165,80,-22,843,1574,-7965,1745204721316890301
182176,149,82,-15,904,1568,-7923,1745204721316890301
182368,129,86,-9,946,1565,-7901,1745204721387312626
182560,104,85,-9,1015,1605,-7897,1745204721387312626
182752,82,83,-9,1074,1650,-7877,1745204721387312626
182944,63,77,-9,1140,1724,-7803,1745204721387312626
183136,55,67,-12,1170,1836,-7759,1745204721387312626
183328,58,55,-15,1180,1939,-7669,1745204721387312626
183520,70,44,-20,1145,2022,-7644,1745204721387312626
183712,82,37,-28,1109,2007,-7697,1745204721387312626
183904,87,34,-37,1054,1943,-7728,1745204721387312626
184096,84,33,-44,999,1806,-7771,1745204721387312626
184288,72,35,-47,953,1656,-7800,1745204721387312626
184480,54,35,-44,973,1541,-7803,1745204721387312626
184672,32,32,-36,945,1476,-7837,1745204721436541083
184864,8,32,-28,946,1443,-7877,1745204721436541083
185056,-20,31,-22,940,1450,-7894,1745204721436541083
185248,-50,32,-21,990,1477,-7939,1745204721436541083
185440,-77,33,-19,1016,1544,-7986,1745204721436541083
185632,-101,31,-15,1055,1615,-8062,1745204721436541083
185824,-117,24,-8,1073,1714,-8078,1745204721436541083
186016,-123,14,1,1092,1812,-7972,1745204721436541083
186208,-118,7,10,1094,1918,-7859,1745204721436541083
186400,-104,0,15,1052,1982,-7827,1745204721436541083
186592,-90,-2,13,1010,2027,-7844,1745204721436541083
186784,-82,-2,6,981,2028,-7832,1745204721436541083
186976,-79,0,3,945,2011,-7866,1745204721492169220
187168,-73,0,4,941,1996,-7860,1745204721492169220
187360,-60,-2,12,941,2013,-7791,1745204721492169220
187552,-47,-3,21,947,2062,-7764,1745204721492169220
187744,-33,-3,23,949,2106,-7740,1745204721492169220
187936,-22,-1,18,973,2132,-7739,1745204721492169220
188128,-15,4,9,985,2109,-7769,1745204721492169220
188320,-8,10,-1,1022,2044,-7807,1745204721492169220
188512,-1,14,-5,1035,1976,-7857,1745204721492169220
188704,7,14,-4,1043,1907,-7896,1745204721492169220
188896,15,14,-1,1068,1843,-7913,1745204721492169220
189088,20,10,1,1062,1776,-7883,1745204721492169220
189280,22,10,2,1063,1715,-7884,1745204721554655316
189472,24,7,0,1069,1681,-7883,1745204721554655316
189664,22,4,-2,1054,1650,-7843,1745204721554655316
189856,14,4,-4,1034,1625,-7823,1745204721554655316
190048,3,5,-5,1026,1600,-7815,1745204721554655316
190240,-12,4,-3,992,1602,-7847,1745204721554655316
190432,-27,0,1,993,1648,-7883,1745204721554655316
190624,-42,-4,5,1000,1727,-7864,1745204721554655316
190816,-56,-5,6,1005,1798,-7866,1745204721554655316
191008,-65,-5,2,1002,1859,-7851,1745204721554655316
191200,-66,-5,-4,999,1891,-7867,1745204721554655316
191392,-62,-5,-11,1006,1914,-7878,1745204721554655316
191584,-60,-5,-17,974,1887,-7857,1745204721614017065
191776,-58,-4,-19,963,1820,-7862,1745204721614017065
191968,-57,-2,-18,953,1763,-7877,1745204721614017065
192160,-59,-1,-15,952,1742,-7875,1745204721614017065
192352,-63,-1,-13,954,1725,-7863,1745204721614017065
192544,-70,0,-16,955,1747,-7843,1745204721614017065
192736,-76,1,-19,971,1789,-7819,1745204721614017065
192928,-82,2,-20,967,1823,-7820,1745204721614017065
193120,-86,0,-20,977,1859,-7824,1745204721614017065
193312,-90,-1,-22,996,1886,-7788,1745204721614017065
193504,-93,-3,-24,995,1887,-7774,1745204721614017065
193696,-94,-7,-29,980,1861,-7765,1745204721614017065
193888,-97,-10,-34,947,1841,-7776,1745204721668672920
194080,-103,-10,-39,909,1819,-7833,1745204721668672920
194272,-106,-8,-41,890,1810,-7855,1745204721668672920
194464,-107,-4,-38,890,1796,-7890,1745204721668672920
194656,-112,-3,-33,905,1835,-7929,1745204721668672920
194848,-120,-1,-27,943,1860,-7946,1745204721668672920
195040,-124,1,-22,949,1903,-7934,1745204721668672920
195232,-125,0,-19,969,1913,-7895,1745204721668672920
195424,-127,1,-19,974,1918,-7871,1745204721668672920
195616,-131,4,-19,961,1929,-7839,1745204721668672920
195808,-131,8,-21,961,1922,-7778,1745204721668672920
196000,-123,17,-22,974,1922,-7712,1745204721668672920
196192,-109,35,-23,983,1929,-7720,1745204721726965982
196384,-90,59,-24,985,1986,-7728,1745204721726965982
196576,-72,84,-26,923,2022,-7759,1745204721726965982
196768,-60,92,-19,970,2104,-7827,1745204721726965982
196960,-45,95,-20,1006,2106,-7777,1745204721726965982
197152,113,153,-24,301,85,-3192,1745204721726965982
197344,373,269,-66,-2395,-2784,-11033,1745204721726965982
197536,-532,314,-33,301,483,-8933,1745204721726965982
197728,-494,111,6,3498,4909,-7836,1745204721726965982
197920,-367,-7,33,2622,3998,-7442,1745204721726965982
198112,-341,-23,47,1455,1942,-7610,1745204721726965982
198304,-354,8,3,1756,2212,-7748,1745204721726965982
236896,354,-76,4,971,2619,-7221,1745204722765086915
237088,117,-69,3,504,1757,-8027,1745204722765086915
237280,-61,-44,1,722,1997,-7650,1745204722765086915
237472,-60,-47,-4,705,1860,-7732,1745204722765086915
237664,-127,-41,1,657,1901,-7731,1745204722765086915
237856,-145,-20,-1,644,2039,-7728,1745204722765086915
238048,-147,-15,0,625,2240,-7690,1745204722765086915
238240,-164,1,3,637,2422,-7659,1745204722765086915
238432,-143,11,4,746,2457,-7681,1745204722765086915
238624,-136,4,2,862,2487,-7721,1745204722765086915
238816,-135,5,-1,910,2537,-7749,1745204722765086915
239008,-118,0,-6,937,2564,-7776,1745204722765086915
239200,-115,-5,-11,913,2561,-7788,1745204722821914313
239392,-106,-3,-16,890,2505,-7802,1745204722821914313
239584,-94,-8,-16,866,2470,-7808,1745204722821914313
239776,-90,-14,-9,810,2464,-7809,1745204722821914313
239968,-83,-13,-2,736,2410,-7836,1745204722821914313
240160,-82,-9,3,640,2365,-7838,1745204722821914313
240352,-86,3,2,574,2346,-7814,1745204722821914313
240544,-86,16,-2,610,2455,-7786,1745204722821914313
240736,-79,17,-3,766,2572,-7779,1745204722821914313
240928,-62,16,-2,838,2614,-7763,1745204722821914313
241120,-46,17,-2,844,2577,-7774,1745204722821914313
241312,-37,17,0,896,2573,-7801,1745204722821914313
241504,-28,17,3,948,2611,-7808,1745204722880354195
241696,-18,12,7,950,2615,-7819,1745204722880354195
241888,-9,11,7,877,2584,-7795,1745204722880354195
242080,-3,20,4,799,2521,-7786,1745204722880354195
242272,-1,35,3,692,2435,-7799,1745204722880354195
242464,0,59,5,583,2434,-7820,1745204722880354195
242656,5,87,11,571,2545,-7823,1745204722880354195
242848,24,110,17,627,2730,-7810,1745204722880354195
243040,22,159,7,-140,1951,-8182,1745204722880354195
243232,58,223,17,1418,3798,-7664,1745204722880354195
243424,166,126,45,1340,3323,-7483,1745204722880354195
243616,208,181,36,655,2721,-7861,1745204722880354195
243808,232,195,14,609,2635,-7630,1745204722940335262
244000,258,235,10,721,2510,-7626,1745204722940335262
244192,263,243,16,527,2125,-7614,1745204722940335262
244384,173,252,21,552,1879,-8351,1745204722940335262
244576,-371,255,34,-59,929,-8772,1745204722940335262
244768,-396,34,72,1620,1387,-6292,1745204722940335262
244960,-113,74,69,1615,1486,-6802,1745204722940335262
245152,-73,220,55,1734,1675,-7073,1745204722940335262
245344,-48,297,35,1345,1923,-8011,1745204722940335262
245536,-192,190,41,1368,2077,-8419,1745204722940335262
245728,-301,34,31,1370,2171,-7587,1745204722940335262
245920,-341,15,19,1228,2243,-7649,1745204722940335262
246112,-380,-24,16,1076,2267,-7595,1745204723002018917
246304,-429,-21,10,950,2261,-7495,1745204723002018917
246496,-479,2,3,904,2301,-7449,1745204723002018917
246688,-528,26,-5,963,2369,-7461,1745204723002018917
246880,-574,45,-17,1068,2424,-7460,1745204723002018917
247072,-615,55,-37,1180,2502,-7475,1745204723002018917
247264,-638,62,-57,1269,2582,-7358,1745204723002018917
247456,-632,69,-73,1344,2672,-7051,1745204723002018917
247648,-603,88,-91,1493,2723,-7177,1745204723002018917
247840,-568,110,-117,1659,2698,-7543,1745204723002018917
248032,-537,118,-148,1790,2661,-7775,1745204723002018917
248224,-518,122,-179,1867,2663,-7908,1745204723002018917
248416,-520,122,-200,1957,2548,-8064,1745204723055414992
248608,-515,118,-206,2005,2418,-8166,1745204723055414992
248800,-501,109,-199,1968,2351,-8169,1745204723055414992
248992,-505,104,-183,1963,2303,-8177,1745204723055414992
249184,-530,109,-175,1953,2268,-8270,1745204723055414992
249376,-575,89,-182,1950,2311,-8278,1745204723055414992
249568,-630,89,-202,1942,2350,-8239,1745204723055414992
249760,-683,78,-222,1997,2343,-8211,1745204723055414992
249952,-734,63,-244,2034,2337,-8321,1745204723055414992
250144,-777,35,-267,1976,2358,-8338,1745204723055414992
250336,-807,-7,-271,1889,2363,-8345,1745204723055414992
250528,-842,-51,-271,1814,2297,-8358,1745204723055414992
250720,-885,-97,-274,1750,2067,-8442,1745204723115342674
250912,-909,-134,-278,1744,2004,-8058,1745204723115342674
251104,-956,-114,-327,1963,2144,-8122,1745204723115342674
251296,-1194,-60,-494,1813,2639,-7181,1745204723115342674
251488,-1999,-134,-728,2706,4241,-1563,1745204723115342674
251680,-3152,333,-1020,3163,5072,-3141,1745204723115342674
251872,-4122,578,-1119,3263,4950,-6716,1745204723115342674
252064,-4478,213,-1089,3301,5766,-5546,1745204723115342674
252256,-4439,-22,-1080,3944,7282,-4883,1745204723115342674
252448,-4397,-97,-1103,3942,8908,-4344,1745204723115342674
252640,-4380,-73,-1149,3675,10396,-4189,1745204723115342674
252832,-4284,-58,-1251,3280,11873,-3966,1745204723115342674
253024,-4047,-46,-1400,2882,13081,-3528,1745204723176367116
253216,-3626,-38,-1583,2404,13975,-3283,1745204723176367116
253408,-3100,-32,-1756,1781,14536,-3303,1745204723176367116
253600,-2570,-4,-1886,1178,14607,-3545,1745204723176367116
253792,-2093,48,-1975,682,14121,-3780,1745204723176367116
253984,-1695,122,-2043,389,13197,-3973,1745204723176367116
254176,-1387,201,-2099,223,12160,-4153,1745204723176367116
254368,-1171,276,-2147,181,11287,-4359,1745204723176367116
254560,-1063,337,-2194,195,10631,-4488,1745204723176367116
254752,-1058,390,-2251,280,10136,-4637,1745204723176367116
254944,-1135,437,-2318,338,9765,-4703,1745204723176367116
255136,-1251,484,-2394,381,9567,-4706,1745204723176367116
255328,-1358,533,-2463,336,9545,-4657,1745204723230721464
255520,-1443,587,-2520,216,9664,-4597,1745204723230721464
255712,-1512,659,-2565,155,9772,-4532,1745204723230721464
255904,-1558,737,-2603,15,9776,-4595,1745204723230721464
256096,-1577,783,-2640,-147,9717,-4540,1745204723230721464
256288,-1572,878,-2670,-291,9538,-4571,1745204723230721464
256480,-1542,960,-2698,-480,9358,-4648,1745204723230721464
256672,-1510,1032,-2719,-649,9191,-4642,1745204723230721464
256864,-1489,1110,-2727,-785,8975,-4588,1745204723230721464
257056,-1479,1178,-2728,-873,8690,-4484,1745204723230721464
257248,-1480,1242,-2729,-963,8384,-4345,1745204723230721464
257440,-1493,1300,-2723,-1048,8091,-4230,1745204723230721464
257632,-1513,1355,-2708,-1129,7813,-4136,1745204723290323107
257824,-1540,1406,-2691,-1222,7538,-4059,1745204723290323107
258016,-1579,1454,-2674,-1311,7283,-3933,1745204723290323107
258208,-1628,1503,-2655,-1404,7049,-3798,1745204723290323107
258400,-1679,1557,-2634,-1512,6919,-3688,1745204723290323107
258592,-1734,1616,-2611,-1587,6854,-3560,1745204723290323107
258784,-1800,1682,-2594,-1649,6736,-3463,1745204723290323107
258976,-1864,1755,-2579,-1729,6620,-3478,1745204723290323107
259168,-1900,1830,-2560,-1794,6485,-3588,1745204723290323107
259360,-1897,1900,-2528,-1810,6454,-3570,1745204723290323107
259552,-1858,1958,-2489,-1844,6473,-3476,1745204723290323107
259744,-1813,2017,-2447,-1835,6486,-3349,1745204723290323107
259936,-1781,2072,-2407,-1800,6438,-3225,1745204723347456491
260128,-1766,2127,-2376,-1758,6375,-3172,1745204723347456491
260320,-1772,2187,-2353,-1700,6295,-3161,1745204723347456491
260512,-1806,2249,-2334,-1638,6133,-3037,1745204723347456491
260704,-1868,2313,-2318,-1552,5901,-2976,1745204723347456491
260896,-1947,2369,-2306,-1502,5743,-3071,1745204723347456491
261088,-2045,2428,-2285,-1458,5648,-3112,1745204723347456491
261280,-2158,2492,-2255,-1363,5592,-3060,1745204723347456491
261472,-2279,2556,-2217,-1278,5567,-3000,1745204723347456491
261664,-2397,2611,-2179,-1157,5648,-2878,1745204723347456491
261856,-2505,2663,-2141,-1038,5783,-2799,1745204723347456491
262048,-2597,2711,-2101,-916,5971,-2767,1745204723347456491
262240,-2664,2751,-2055,-806,6193,-2707,1745204723406614596
262432,-2693,2784,-2007,-672,6439,-2587,1745204723406614596
262624,-2692,2807,-1960,-523,6681,-2448,1745204723406614596
262816,-2676,2818,-1912,-404,6932,-2504,1745204723406614596
263008,-2656,2827,-1863,-280,7089,-2670,1745204723406614596
263200,-2628,2829,-1818,-211,7163,-2849,1745204723406614596
263392,-2588,2827,-1771,-119,7199,-2955,1745204723406614596
263584,-2535,2822,-1725,-35,7201,-3041,1745204723406614596
263776,-2489,2821,-1678,31,7261,-3350,1745204723406614596
263968,-2462,2817,-1628,97,7365,-3663,1745204723406614596
264160,-2449,2810,-1583,183,7431,-3850,1745204723406614596
264352,-2424,2796,-1542,251,7423,-3937,1745204723406614596
264544,-2372,2777,-1502,289,7416,-3943,1745204723464136935
264736,-2298,2756,-1462,287,7361,-3935,1745204723464136935
264928,-2216,2724,-1416,275,7290,-3936,1745204723464136935
265120,-2145,2687,-1370,251,7240,-3851,1745204723464136935
265312,-2092,2654,-1331,230,7178,-3735,1745204723464136935
265504,-2051,2631,-1300,214,7138,-3717,1745204723464136935
265696,-2010,2618,-1277,177,7137,-3777,1745204723464136935
265888,-1959,2603,-1257,174,7178,-3748,1745204723464136935
266080,-1904,2583,-1238,176,7198,-3619,1745204723464136935
266272,-1847,2566,-1215,180,7267,-3553,1745204723464136935
266464,-1788,2543,-1186,237,7313,-3464,1745204723464136935
266656,-1731,2518,-1156,313,7293,-3359,1745204723464136935
266848,-1665,2493,-1126,355,7205,-3354,1745204723525565385
267040,-1589,2455,-1091,431,7076,-3307,1745204723525565385
267232,-1524,2408,-1051,502,6816,-3186,1745204723525565385
267424,-1484,2352,-1002,545,6480,-3188,1745204723525565385
267616,-1465,2292,-946,636,6247,-3312,1745204723525565385
267808,-1468,2236,-885,736,6118,-3448,1745204723525565385
268000,-1489,2180,-827,846,6102,-3653,1745204723525565385
268192,-1501,2119,-774,1001,6163,-4033,1745204723525565385
268384,-1479,2045,-727,1152,6461,-4357,1745204723525565385
268576,-1394,1968,-672,1378,6914,-4268,1745204723525565385
268768,-1265,1882,-604,1662,7250,-4786,1745204723525565385
268960,-1155,1746,-526,2001,7171,-5645,1745204723525565385
269152,-1044,1568,-444,2311,6700,-6363,1745204723580930869
269344,-917,1360,-356,2598,6092,-6732,1745204723580930869
269536,-788,1131,-275,2867,5451,-6987,1745204723580930869
269728,-689,903,-212,2988,4909,-7397,1745204723580930869
269920,-642,674,-160,2990,4574,-7738,1745204723580930869
270112,-642,464,-113,2796,4453,-8018,1745204723580930869
270304,-682,282,-72,2520,4473,-8119,1745204723580930869
270496,-748,136,-42,2168,4637,-8047,1745204723580930869
270688,-816,27,-18,1747,4903,-7698,1745204723580930869
270880,-862,-58,15,1312,5247,-7343,1745204723580930869
271072,-881,-118,57,946,5657,-6896,1745204723580930869
271264,-874,-152,102,673,6169,-6351,1745204723580930869
271456,-843,-161,145,426,6746,-5911,1745204723641167141
271648,-800,-160,189,263,7370,-5485,1745204723641167141
271840,-760,-158,231,98,8019,-5247,1745204723641167141
272032,-719,-165,273,41,8639,-4915,1745204723641167141
272224,-648,-182,319,14,9167,-4540,1745204723641167141
272416,-549,-210,370,-7,9630,-4005,1745204723641167141
272608,-437,-259,409,-57,9941,-3240,1745204723641167141
272800,-326,-310,427,-119,10018,-2407,1745204723641167141
272992,-239,-359,435,-236,9850,-1648,1745204723641167141
273184,-192,-412,434,-450,9490,-1062,1745204723641167141
273376,-176,-455,427,-674,9064,-585,1745204723641167141
273568,-176,-476,405,-981,8700,-423,1745204723641167141
273760,-199,-490,374,-1319,8358,-385,1745204723700017281
273952,-233,-484,346,-1629,8098,-313,1745204723700017281
274144,-249,-456,326,-1880,7995,-200,1745204723700017281
274336,-265,-418,317,-2022,7988,91,1745204723700017281
274528,-292,-379,310,-2102,8033,331,1745204723700017281
274720,-332,-340,298,-2122,8137,312,1745204723700017281
274912,-372,-315,287,-2115,8276,326,1745204723700017281
275104,-391,-304,273,-2166,8412,358,1745204723700017281
275296,-385,-302,262,-2209,8558,379,1745204723700017281
275488,-361,-302,255,-2251,8647,490,1745204723700017281
275680,-324,-305,249,-2300,8708,582,1745204723700017281
275872,-278,-320,238,-2415,8784,599,1745204723700017281
276064,-234,-343,230,-2466,8985,562,1745204723772171049
276256,-184,-356,206,-2567,9033,743,1745204723772171049
276448,-136,-372,181,-2730,8997,410,1745204723772171049
276640,-135,-471,189,-3072,8891,-414,1745204723772171049
276832,-232,-793,251,-2644,8458,-345,1745204723772171049
277024,148,-868,72,-1777,8824,1729,1745204723772171049
277216,243,-797,37,-3294,9068,415,1745204723772171049
277408,102,-750,108,-2361,8309,2084,1745204723772171049
277600,161,-408,117,-2809,8331,16,1745204723772171049
277792,180,-313,125,-2895,8193,-481,1745204723772171049
277984,192,-304,123,-2836,8034,-855,1745204723772171049
278176,175,-283,107,-2781,7975,-1393,1745204723772171049
278368,154,-255,91,-2674,8012,-1833,1745204723822943606
278560,116,-260,81,-2549,8144,-2170,1745204723822943606
278752,71,-241,74,-2422,8311,-2331,1745204723822943606
278944,38,-217,69,-2326,8470,-2401,1745204723822943606
279136,7,-190,62,-2247,8532,-2295,1745204723822943606
279328,-15,-167,50,-2192,8538,-1996,1745204723822943606
279520,-19,-145,44,-2195,8472,-1665,1745204723822943606
279712,-30,-124,53,-2215,8395,-1371,1745204723822943606
279904,-55,-95,82,-2265,8248,-1045,1745204723822943606
280096,-76,-60,123,-2351,8121,-826,1745204723822943606
280288,-86,-22,168,-2449,7999,-599,1745204723822943606
280480,-76,23,213,-2532,7879,-305,1745204723822943606
280672,-43,79,253,-2592,7721,-116,1745204723874546572
280864,14,149,287,-2604,7536,-129,1745204723874546572
281056,81,222,317,-2521,7262,-275,1745204723874546572
281248,142,289,333,-2328,6965,-539,1745204723874546572
281440,183,344,320,-2060,6889,-983,1745204723874546572
281632,192,386,258,-1759,7113,-1448,1745204723874546572
281824,168,409,159,-1462,7642,-1628,1745204723874546572
282016,113,410,73,-1175,8160,-1460,1745204723874546572
282208,83,369,42,-1028,8384,-1459,1745204723874546572
282400,115,283,75,-978,8252,-1681,1745204723874546572
282592,195,178,147,-1043,7946,-1926,1745204723874546572
282784,281,69,205,-1186,7618,-2108,1745204723874546572
282976,326,-25,216,-1357,7304,-2267,1745204723933703531
283168,325,-92,180,-1546,7041,-2321,1745204723933703531
283360,288,-135,123,-1736,6849,-2376,1745204723933703531
283552,211,-168,69,-1892,6748,-2424,1745204723933703531
283744,108,-187,38,-2032,6704,-2389,1745204723933703531
283936,6,-197,30,-2181,6814,-2215,1745204723933703531
284128,-101,-196,37,-2320,7059,-1925,1745204723933703531
284320,-210,-176,45,-2365,7382,-1608,1745204723933703531
284512,-317,-141,43,-2386,7714,-1091,1745204723933703531
284704,-420,-101,32,-2336,7987,-569,1745204723933703531
284896,-497,-73,10,-2238,8294,-77,1745204723933703531
285088,-540,-48,-22,-2218,8704,285,1745204723933703531
285280,-546,-21,-39,-2183,9148,590,1745204723990821760
285472,-511,15,-48,-2120,9491,863,1745204723990821760
285664,-444,40,-51,-2076,9621,1073,1745204723990821760
285856,-352,49,-56,-2079,9598,1129,1745204723990821760
286048,-246,47,-67,-2108,9479,1028,1745204723990821760
286240,-143,50,-80,-2097,9349,897,1745204723990821760
286432,-58,67,-94,-2049,9274,870,1745204723990821760
286624,6,83,-108,-1977,9188,907,1745204723990821760
286816,63,84,-109,-1901,9068,822,1745204723990821760
287008,126,66,-101,-1839,8892,709,1745204723990821760
287200,197,38,-94,-1799,8698,597,1745204723990821760
287392,274,6,-96,-1824,8460,513,1745204723990821760
287584,346,-23,-109,-1886,8217,330,1745204724053074785
287776,405,-48,-121,-1927,7981,13,1745204724053074785
287968,451,-54,-129,-1990,7722,-321,1745204724053074785
288160,483,-52,-137,-1972,7484,-643,1745204724053074785
288352,495,-55,-142,-1908,7312,-1094,1745204724053074785
288544,481,-57,-142,-1827,7131,-1509,1745204724053074785
288736,443,-47,-142,-1744,6984,-1831,1745204724053074785
288928,379,-34,-144,-1658,6891,-2068,1745204724053074785
289120,280,-17,-153,-1556,6899,-2217,1745204724053074785
289312,150,6,-161,-1467,6984,-2395,1745204724053074785
289504,15,21,-162,-1403,7227,-2556,1745204724053074785
289696,-108,19,-149,-1363,7577,-2592,1745204724053074785
289888,-185,9,-130,-1397,7982,-2501,1745204724106980438
290080,-217,-6,-109,-1458,8428,-2348,1745204724106980438
290272,-213,-18,-90,-1536,8806,-2104,1745204724106980438
290464,-178,-20,-74,-1648,9017,-1792,1745204724106980438
290656,-124,-15,-59,-1765,9019,-1559,1745204724106980438
290848,-59,-5,-40,-1883,8867,-1408,1745204724106980438
291040,7,13,-17,-1997,8643,-1257,1745204724106980438
291232,71,38,13,-2083,8363,-1137,1745204724106980438
291424,129,68,50,-2165,8041,-1072,1745204724106980438
291616,175,102,92,-2215,7708,-1213,1745204724106980438
291808,209,143,135,-2204,7419,-1501,1745204724106980438
292000,243,187,167,-2117,7216,-1821,1745204724106980438
292192,279,219,179,-1961,7077,-2073,1745204724172333435
292384,291,240,173,-1786,7036,-2291,1745204724172333435
292576,249,242,159,-1617,7052,-2453,1745204724172333435
292768,173,221,145,-1451,7101,-2504,1745204724172333435
292960,99,173,134,-1363,7186,-2562,1745204724172333435
293152,43,108,133,-1333,7235,-2563,1745204724172333435
293344,15,37,144,-1393,7224,-2434,1745204724172333435
293536,-8,-33,158,-1525,7064,-2279,1745204724172333435
293728,-54,-91,164,-1710,6849,-2077,1745204724172333435
293920,-118,-122,148,-1908,6744,-1858,1745204724172333435
294112,-186,-123,110,-2095,6806,-1626,1745204724172333435
294304,-259,-97,63,-2215,7066,-1316,1745204724172333435
