timestamp,gyr_x,gyr_y,gyr_z,acc_x,acc_y,acc_z,pkt_time_ns
113056,217,-17,19,200,3731,-7203,1745203435217535279
113248,186,-60,10,-701,2563,-7782,1745203435217535279
113440,181,-88,-8,-307,3171,-7422,1745203435217535279
113632,165,-50,-5,-401,3147,-7445,1745203435217535279
113824,170,-55,-5,-469,3102,-7492,1745203435217535279
114016,158,-66,-9,-340,3006,-7501,1745203435217535279
114208,121,-42,-13,-327,2799,-7531,1745203435217535279
114400,108,-54,-13,-328,2729,-7539,1745203435217535279
114592,81,-64,-5,-289,2785,-7482,1745203435217535279
114784,53,-59,4,-311,2818,-7511,1745203435217535279
114976,34,-70,5,-364,2745,-7546,1745203435217535279
115168,1,-73,2,-414,2697,-7555,1745203435217535279
115360,-27,-67,-2,-473,2743,-7539,1745203435270753959
115552,-52,-67,-4,-542,2786,-7528,1745203435270753959
115744,-80,-54,-2,-554,2854,-7522,1745203435270753959
115936,-96,-42,-1,-560,2903,-7558,1745203435270753959
116128,-113,-33,0,-551,2963,-7570,1745203435270753959
116320,-128,-18,-2,-518,3007,-7575,1745203435270753959
116512,-139,-6,-4,-501,3018,-7571,1745203435270753959
116704,-148,2,-7,-463,3030,-7562,1745203435270753959
116896,-150,8,-8,-447,3008,-7543,1745203435270753959
117088,-151,12,-4,-434,3045,-7569,1745203435270753959
117280,-154,18,-1,-442,3134,-7562,1745203435270753959
117472,-154,25,0,-427,3248,-7532,1745203435270753959
117664,-149,30,-3,-421,3328,-7509,1745203435326791103
117856,-139,37,-5,-407,3331,-7509,1745203435326791103
118048,-131,44,-7,-392,3294,-7492,1745203435326791103
118240,-127,47,-7,-354,3270,-7499,1745203435326791103
118432,-126,51,-4,-352,3244,-7508,1745203435326791103
118624,-125,54,-2,-379,3200,-7491,1745203435326791103
118816,-123,55,-1,-381,3229,-7477,1745203435326791103
119008,-121,56,-2,-332,3262,-7493,1745203435326791103
119200,-121,57,-4,-300,3272,-7509,1745203435326791103
119392,-117,57,-7,-299,3298,-7507,1745203435326791103
119584,-108,59,-7,-294,3349,-7482,1745203435326791103
119776,-96,61,-5,-323,3358,-7450,1745203435326791103
119968,-89,61,-4,-287,3301,-7436,1745203435385159945
120160,-82,56,-2,-238,3327,-7429,1745203435385159945
120352,-72,47,0,-221,3401,-7396,1745203435385159945
120544,-57,39,2,-211,3509,-7397,1745203435385159945
120736,-84,54,-6,-907,2562,-8085,1745203435385159945
120928,-126,61,2,802,4652,-6822,1745203435385159945
121120,57,-40,34,-90,3836,-7094,1745203435385159945
121312,18,9,10,-436,3304,-7578,1745203435385159945
121504,34,-21,-4,-170,3521,-7316,1745203435385159945
121696,78,-14,5,-232,3602,-7420,1745203435385159945
121888,94,-42,20,-341,3601,-7425,1745203435385159945
122080,108,-32,22,-321,3617,-7397,1745203435385159945
122272,131,-30,18,-368,3610,-7391,1745203435449234881
122464,167,-24,15,-454,3578,-7441,1745203435449234881
122656,202,-15,14,-478,3524,-7437,1745203435449234881
122848,225,-9,11,-435,3506,-7417,1745203435449234881
123040,248,-4,9,-368,3424,-7437,1745203435449234881
123232,262,-4,8,-348,3204,-7475,1745203435449234881
123424,219,5,-1,-496,1987,-7691,1745203435449234881
123616,41,58,-33,-945,834,-7445,1745203435449234881
123808,-102,63,-31,-710,1086,-7533,1745203435449234881
124000,-190,44,14,-422,1712,-7384,1745203435449234881
124192,-257,26,58,-214,2682,-8111,1745203435449234881
124384,-740,10,84,-620,3189,-9550,1745203435449234881
124576,-822,-236,66,309,3521,-6295,1745203435498710471
124768,-457,-293,71,470,3904,-6435,1745203435498710471
124960,-285,-94,12,27,3927,-6973,1745203435498710471
125152,-202,-6,-6,-355,3731,-7524,1745203435498710471
125344,-186,-10,15,-358,3445,-7365,1745203435498710471
125536,-179,-2,25,-427,3204,-7380,1745203435498710471
125728,-190,-2,29,-507,3031,-7439,1745203435498710471
125920,-223,-8,33,-477,2946,-7391,1745203435498710471
126112,-261,-5,31,-404,2924,-7358,1745203435498710471
126304,-296,3,26,-333,3005,-7382,1745203435498710471
126496,-330,4,30,-287,3140,-7387,1745203435498710471
126688,-363,-1,37,-209,3243,-7419,1745203435498710471
126880,-389,-6,41,-210,3313,-7447,1745203435563393734
127072,-401,-11,45,-247,3369,-7462,1745203435563393734
127264,-401,-14,45,-281,3430,-7454,1745203435563393734
127456,-393,-17,42,-323,3482,-7425,1745203435563393734
127648,-383,-16,39,-360,3521,-7396,1745203435563393734
127840,-375,-11,37,-382,3499,-7369,1745203435563393734
128032,-374,-6,34,-386,3477,-7350,1745203435563393734
128224,-379,-3,28,-349,3422,-7260,1745203435563393734
128416,-386,0,19,-330,3358,-7360,1745203435563393734
128608,-403,-1,14,-295,3296,-7375,1745203435563393734
128800,-427,-1,13,-263,3256,-7378,1745203435563393734
128992,-452,-2,17,-271,3280,-7364,1745203435563393734
129184,-479,-5,22,-291,3349,-7373,1745203435624187085
129376,-505,-4,30,-307,3454,-7356,1745203435624187085
129568,-527,-1,35,-336,3543,-7387,1745203435624187085
129760,-545,2,36,-350,3644,-7403,1745203435624187085
129952,-556,9,36,-387,3723,-7406,1745203435624187085
130144,-563,21,36,-418,3802,-7419,1745203435624187085
130336,-570,34,35,-428,3841,-7399,1745203435624187085
130528,-575,49,36,-429,3879,-7382,1745203435624187085
130720,-577,62,36,-427,3897,-7375,1745203435624187085
130912,-578,72,40,-426,3921,-7348,1745203435624187085
131104,-576,83,41,-430,3927,-7372,1745203435624187085
131296,-574,95,38,-453,3951,-7410,1745203435624187085
131488,-574,109,34,-470,3989,-7391,1745203435677359932
131680,-574,125,29,-475,4009,-7374,1745203435677359932
131872,-571,142,23,-456,4035,-7389,1745203435677359932
132064,-565,160,19,-413,4073,-7383,1745203435677359932
132256,-553,180,15,-355,4093,-7377,1745203435677359932
132448,-536,200,8,-307,4130,-7388,1745203435677359932
132640,-515,218,-1,-246,4140,-7396,1745203435677359932
132832,-494,233,-9,-173,4180,-7284,1745203435677359932
133024,-467,244,-17,-92,4189,-7342,1745203435677359932
133216,-443,258,-31,-47,4201,-7496,1745203435677359932
133408,-426,269,-46,-14,4248,-7553,1745203435677359932
133600,-412,280,-56,4,4302,-7553,1745203435677359932
133792,-390,290,-62,-3,4366,-7549,1745203435737635163
133984,-361,302,-64,-19,4484,-7540,1745203435737635163
134176,-323,318,-71,-22,4558,-7599,1745203435737635163
134368,-276,333,-82,-18,4639,-7660,1745203435737635163
134560,-224,341,-95,9,4715,-7613,1745203435737635163
134752,-168,353,-108,44,4815,-7578,1745203435737635163
134944,-116,360,-124,50,4868,-7628,1745203435737635163
135136,-71,377,-149,130,4871,-7662,1745203435737635163
135328,-58,420,-210,502,4779,-7994,1745203435737635163
135520,-48,541,-392,795,4708,-7688,1745203435737635163
135712,191,664,-561,827,4350,-7984,1745203435737635163
135904,349,648,-584,706,4399,-7611,1745203435737635163
136096,299,535,-472,694,4590,-6692,1745203435795050732
136288,286,522,-353,874,4493,-5909,1745203435795050732
136480,408,593,-256,1061,4425,-5777,1745203435795050732
136672,500,678,-176,1258,4436,-6262,1745203435795050732
136864,444,748,-116,1742,3970,-6833,1745203435795050732
137056,-76,1004,111,2609,3472,-5020,1745203435795050732
137248,-768,1330,360,3134,2889,-4507,1745203435795050732
137440,-733,1111,312,3499,3326,-5881,1745203435795050732
137632,-552,566,47,3650,4089,-6440,1745203435795050732
137824,-535,247,-205,3334,4836,-6724,1745203435795050732
138016,-701,189,-323,2862,5013,-6797,1745203435795050732
138208,-786,214,-338,2474,4902,-6731,1745203435795050732
138400,-731,263,-317,2177,4853,-6768,1745203435854340868
138592,-644,287,-297,1986,4929,-6929,1745203435854340868
138784,-590,281,-310,1864,5036,-7094,1745203435854340868
138976,-572,277,-355,1790,5015,-7189,1745203435854340868
139168,-597,298,-408,1770,4923,-7164,1745203435854340868
139360,-644,332,-453,1791,4756,-7094,1745203435854340868
139552,-683,357,-489,1913,4604,-7003,1745203435854340868
139744,-730,375,-518,2087,4568,-6924,1745203435854340868
139936,-805,386,-538,2275,4563,-6717,1745203435854340868
140128,-892,385,-561,2442,4581,-6584,1745203435854340868
140320,-983,363,-591,2591,4673,-6461,1745203435854340868
140512,-1084,350,-626,2716,4750,-6301,1745203435854340868
140704,-1189,334,-656,2764,4835,-6184,1745203435912934603
140896,-1286,300,-676,2755,4918,-6057,1745203435912934603
141088,-1372,264,-689,2696,5026,-5935,1745203435912934603
141280,-1446,234,-699,2562,5147,-5836,1745203435912934603
141472,-1508,213,-710,2424,5244,-5742,1745203435912934603
141664,-1553,201,-726,2244,5369,-5671,1745203435912934603
141856,-1584,200,-747,2092,5485,-5615,1745203435912934603
142048,-1603,209,-769,1935,5549,-5513,1745203435912934603
142240,-1613,223,-779,1826,5588,-5389,1745203435912934603
142432,-1610,241,-779,1782,5529,-5267,1745203435912934603
142624,-1596,257,-776,1755,5448,-5192,1745203435912934603
142816,-1580,263,-772,1693,5355,-5116,1745203435912934603
143008,-1570,278,-773,1632,5266,-5066,1745203435973553997
143200,-1569,292,-776,1554,5214,-5084,1745203435973553997
143392,-1575,291,-773,1444,5237,-4977,1745203435973553997
143584,-1590,294,-764,1331,5251,-4907,1745203435973553997
143776,-1608,301,-748,1223,5264,-4791,1745203435973553997
143968,-1616,310,-727,1070,5289,-4752,1745203435973553997
144160,-1619,319,-698,926,5317,-4661,1745203435973553997
144352,-1618,325,-665,800,5301,-4578,1745203435973553997
144544,-1604,344,-628,656,5227,-4523,1745203435973553997
144736,-1584,362,-581,520,5170,-4466,1745203435973553997
144928,-1560,368,-529,380,5125,-4470,1745203435973553997
145120,-1540,375,-472,242,5114,-4473,1745203435973553997
145312,-1527,389,-416,104,5116,-4519,1745203436033768916
145504,-1510,407,-363,-19,5131,-4586,1745203436033768916
145696,-1479,424,-316,-130,5204,-4649,1745203436033768916
145888,-1433,439,-276,-236,5305,-4686,1745203436033768916
146080,-1371,454,-243,-297,5422,-4724,1745203436033768916
146272,-1308,459,-211,-326,5540,-4994,1745203436033768916
146464,-1246,468,-179,-334,5669,-5076,1745203436033768916
146656,-1198,499,-139,-319,5675,-4781,1745203436033768916
146848,-1147,536,-91,-343,5477,-4427,1745203436033768916
147040,-1113,570,-32,-369,5152,-4126,1745203436033768916
147232,-1122,586,36,-403,4767,-3985,1745203436033768916
147424,-1179,590,105,-404,4386,-3904,1745203436033768916
147616,-1272,593,169,-404,4077,-3799,1745203436086115261
147808,-1380,595,221,-406,3925,-3761,1745203436086115261
148000,-1476,595,266,-373,3910,-3771,1745203436086115261
148192,-1545,593,304,-321,4114,-3696,1745203436086115261
148384,-1585,598,330,-312,4519,-3655,1745203436086115261
148576,-1600,594,348,-302,5065,-3814,1745203436086115261
148768,-1579,579,372,-273,5653,-3942,1745203436086115261
148960,-1516,554,401,-187,6216,-4013,1745203436086115261
149152,-1431,512,414,-87,6546,-4218,1745203436086115261
149344,-1366,464,410,-15,6574,-4510,1745203436086115261
149536,-1340,432,404,16,6406,-4602,1745203436086115261
149728,-1345,410,406,41,6197,-4575,1745203436086115261
149920,-1367,394,428,87,6044,-4444,1745203436146452158
150112,-1404,371,466,142,5939,-4342,1745203436146452158
150304,-1451,339,510,228,5946,-4289,1745203436146452158
150496,-1516,299,547,316,5891,-4373,1745203436146452158
150688,-1599,257,570,372,5812,-4501,1745203436146452158
150880,-1704,216,589,419,5713,-4441,1745203436146452158
151072,-1817,179,610,438,5629,-4245,1745203436146452158
151264,-1922,148,636,465,5613,-3952,1745203436146452158
151456,-2016,123,666,485,5709,-3657,1745203436146452158
151648,-2106,103,695,488,5946,-3415,1745203436146452158
151840,-2189,85,720,487,6265,-3255,1745203436146452158
152032,-2253,70,738,478,6647,-3167,1745203436146452158
152224,-2289,57,752,442,7060,-3126,1745203436203006224
152416,-2280,43,763,403,7489,-3131,1745203436203006224
152608,-2229,26,772,384,7889,-3142,1745203436203006224
152800,-2140,7,785,357,8236,-3094,1745203436203006224
152992,-2013,-6,800,337,8548,-3006,1745203436203006224
153184,-1865,-13,812,326,8751,-2990,1745203436203006224
153376,-1713,-17,821,329,8835,-3007,1745203436203006224
153568,-1567,-23,836,372,8811,-2988,1745203436203006224
153760,-1428,-32,868,539,8616,-2935,1745203436203006224
153952,-1308,-57,864,724,8283,-2896,1745203436203006224
154144,-1208,-73,813,761,8087,-2839,1745203436203006224
154336,-1129,-75,765,777,7852,-2703,1745203436203006224
154528,-1080,-81,728,828,7654,-2518,1745203436263454787
154720,-1059,-91,707,898,7528,-2316,1745203436263454787
154912,-1054,-100,701,995,7467,-2083,1745203436263454787
155104,-1051,-111,707,1090,7490,-1797,1745203436263454787
155296,-1043,-115,719,1188,7535,-1589,1745203436263454787
155488,-1023,-120,727,1262,7654,-1470,1745203436263454787
155680,-989,-132,731,1307,7786,-1464,1745203436263454787
155872,-948,-153,734,1293,7965,-1518,1745203436263454787
156064,-912,-177,742,1240,8115,-1564,1745203436263454787
156256,-879,-198,754,1178,8181,-1585,1745203436263454787
156448,-851,-214,756,1058,8178,-1637,1745203436263454787
156640,-827,-220,767,972,8145,-1643,1745203436263454787
156832,-808,-221,792,926,8048,-1622,1745203436320127759
157024,-796,-221,820,917,7922,-1644,1745203436320127759
157216,-791,-215,844,916,7795,-1614,1745203436320127759
157408,-793,-209,864,966,7708,-1566,1745203436320127759
157600,-801,-199,877,1024,7644,-1481,1745203436320127759
157792,-809,-185,882,1088,7558,-1377,1745203436320127759
157984,-814,-173,876,1219,7470,-1231,1745203436320127759
158176,-818,-162,862,1315,7392,-1053,1745203436320127759
158368,-826,-154,856,1427,7311,-896,1745203436320127759
158560,-842,-150,865,1528,7180,-781,1745203436320127759
158752,-858,-148,888,1613,7067,-703,1745203436320127759
158944,-877,-147,920,1657,7022,-708,1745203436320127759
159136,-906,-145,957,1657,7022,-799,1745203436385623358
159328,-944,-141,994,1636,7108,-969,1745203436385623358
159520,-982,-132,1023,1610,7276,-1122,1745203436385623358
159712,-1013,-117,1041,1641,7456,-1212,1745203436385623358
159904,-1028,-98,1051,1693,7644,-1265,1745203436385623358
160096,-1024,-80,1055,1767,7779,-1261,1745203436385623358
160288,-1003,-67,1056,1885,7876,-1278,1745203436385623358
160480,-964,-63,1058,2000,7918,-1275,1745203436385623358
160672,-907,-65,1064,2140,7953,-1271,1745203436385623358
160864,-838,-68,1078,2243,7987,-1260,1745203436385623358
161056,-762,-75,1095,2348,7980,-1289,1745203436385623358
161248,-676,-90,1114,2464,7906,-1317,1745203436385623358
161440,-580,-114,1133,2555,7758,-1343,1745203436444968285
161632,-480,-144,1150,2652,7509,-1397,1745203436444968285
161824,-382,-178,1169,2749,7232,-1479,1745203436444968285
162016,-292,-210,1191,2816,6929,-1540,1745203436444968285
162208,-217,-243,1215,2887,6629,-1584,1745203436444968285
162400,-154,-274,1241,2914,6378,-1685,1745203436444968285
162592,-104,-301,1266,2919,6240,-1863,1745203436444968285
162784,-68,-329,1288,2892,6157,-2155,1745203436444968285
162976,-49,-357,1309,2867,6131,-2484,1745203436444968285
163168,-42,-379,1332,2830,6133,-2717,1745203436444968285
163360,-44,-402,1356,2851,6114,-2840,1745203436444968285
163552,-49,-424,1382,2889,6106,-2922,1745203436444968285
163744,-55,-442,1407,2955,6134,-3034,1745203436494765278
163936,-68,-458,1431,3030,6202,-3132,1745203436494765278
164128,-88,-470,1457,3161,6284,-3195,1745203436494765278
164320,-106,-480,1484,3317,6339,-3226,1745203436494765278
164512,-120,-491,1510,3517,6357,-3261,1745203436494765278
164704,-128,-508,1532,3755,6324,-3239,1745203436494765278
164896,-132,-535,1548,4021,6280,-3241,1745203436494765278
165088,-134,-570,1565,4237,6260,-3292,1745203436494765278
165280,-135,-610,1583,4460,6265,-3358,1745203436494765278
165472,-139,-656,1606,4658,6258,-3410,1745203436494765278
165664,-141,-711,1633,4825,6292,-3476,1745203436494765278
165856,-138,-772,1658,4959,6348,-3533,1745203436494765278
166048,-129,-834,1681,5034,6412,-3586,1745203436563842511
166240,-122,-897,1699,5108,6492,-3633,1745203436563842511
166432,-111,-959,1713,5203,6585,-3694,1745203436563842511
166624,-99,-1022,1726,5272,6689,-3771,1745203436563842511
166816,-97,-1081,1732,5357,6780,-3839,1745203436563842511
167008,-104,-1136,1736,5440,6836,-3904,1745203436563842511
167200,-119,-1184,1737,5528,6832,-3952,1745203436563842511
167392,-137,-1227,1737,5640,6810,-3966,1745203436563842511
167584,-160,-1272,1735,5754,6752,-3971,1745203436563842511
167776,-197,-1319,1734,5873,6713,-3937,1745203436563842511
167968,-250,-1371,1733,6011,6668,-3830,1745203436563842511
168160,-321,-1423,1728,6103,6648,-3695,1745203436563842511
168352,-413,-1468,1716,6217,6708,-3557,1745203436612340350
168544,-520,-1506,1705,6341,6814,-3422,1745203436612340350
168736,-631,-1541,1699,6427,6940,-3268,1745203436612340350
168928,-740,-1577,1695,6546,7126,-3120,1745203436612340350
169120,-849,-1619,1691,6646,7321,-2960,1745203436612340350
169312,-953,-1662,1682,6714,7518,-2824,1745203436612340350
169504,-1051,-1709,1666,6775,7699,-2675,1745203436612340350
169696,-1138,-1753,1648,6845,7863,-2547,1745203436612340350
169888,-1214,-1793,1624,6894,7992,-2446,1745203436612340350
170080,-1281,-1833,1593,6915,8094,-2338,1745203436612340350
170272,-1342,-1874,1557,6953,8230,-2198,1745203436612340350
170464,-1401,-1910,1514,6967,8399,-2055,1745203436612340350
170656,-1463,-1937,1465,6996,8620,-1943,1745203436680033846
170848,-1524,-1958,1407,7038,8912,-1772,1745203436680033846
171040,-1573,-1975,1341,7074,9210,-1567,1745203436680033846
171232,-1610,-1993,1266,7097,9510,-1354,1745203436680033846
171424,-1633,-2018,1185,7115,9769,-1133,1745203436680033846
171616,-1647,-2042,1105,7102,9980,-894,1745203436680033846
171808,-1663,-2071,1031,7070,10132,-634,1745203436680033846
172000,-1682,-2100,958,7040,10219,-408,1745203436680033846
172192,-1705,-2123,876,6936,10272,-192,1745203436680033846
172384,-1737,-2136,795,6899,10353,92,1745203436680033846
172576,-1773,-2145,702,6808,10382,374,1745203436680033846
172768,-1804,-2139,594,6692,10484,674,1745203436680033846
172960,-1812,-2124,479,6541,10592,918,1745203436728809754
173152,-1790,-2094,360,6335,10771,1111,1745203436728809754
173344,-1762,-2067,254,6122,10944,1263,1745203436728809754
173536,-1720,-2027,153,5858,11289,1340,1745203436728809754
173728,-1815,-2004,90,5725,11173,1417,1745203436728809754
173920,-1871,-1973,7,5588,11081,1495,1745203436728809754
174112,-1850,-1925,-94,5445,10954,1555,1745203436728809754
174304,-1830,-1876,-187,5316,10800,1619,1745203436728809754
174496,-1806,-1823,-272,5231,10673,1723,1745203436728809754
174688,-1782,-1760,-352,5168,10606,1871,1745203436728809754
174880,-1745,-1694,-429,5152,10586,2077,1745203436728809754
175072,-1693,-1626,-506,5066,10620,2285,1745203436728809754
175264,-1626,-1556,-583,4937,10700,2413,1745203436793905514
175456,-1550,-1486,-659,4747,10768,2481,1745203436793905514
175648,-1469,-1415,-726,4516,10752,2528,1745203436793905514
175840,-1373,-1339,-785,4282,10706,2573,1745203436793905514
176032,-1268,-1257,-835,4077,10650,2608,1745203436793905514
176224,-1154,-1173,-884,3935,10565,2620,1745203436793905514
176416,-1033,-1086,-935,3797,10527,2623,1745203436793905514
176608,-919,-996,-988,3739,10505,2624,1745203436793905514
176800,-808,-905,-1040,3708,10377,2660,1745203436793905514
176992,-690,-819,-1087,3762,10275,2702,1745203436793905514
177184,-568,-760,-1120,3788,9806,2626,1745203436793905514
177376,-447,-710,-1155,3856,9630,2886,1745203436793905514
177568,-324,-654,-1196,3821,9354,2883,1745203436852353730
177760,-210,-606,-1225,3680,9107,3018,1745203436852353730
177952,-99,-537,-1249,3566,8912,3084,1745203436852353730
178144,14,-468,-1265,3367,8753,3024,1745203436852353730
178336,126,-398,-1281,3207,8585,3009,1745203436852353730
178528,234,-330,-1298,3077,8399,2955,1745203436852353730
178720,329,-273,-1321,3015,8146,2890,1745203436852353730
178912,411,-218,-1339,2977,7846,2882,1745203436852353730
179104,474,-163,-1348,3006,7518,2836,1745203436852353730
179296,514,-109,-1350,3065,7204,2788,1745203436852353730
179488,528,-57,-1345,3153,6890,2734,1745203436852353730
179680,514,-5,-1336,3242,6615,2694,1745203436852353730
179872,482,47,-1320,3326,6442,2796,1745203436903826072
180064,437,105,-1297,3340,6313,2927,1745203436903826072
180256,388,174,-1272,3321,6281,2969,1745203436903826072
180448,333,241,-1246,3283,6237,2998,1745203436903826072
180640,265,306,-1223,3259,6229,3077,1745203436903826072
180832,184,373,-1202,3259,6189,3112,1745203436903826072
181024,91,442,-1181,3278,6067,3128,1745203436903826072
181216,-12,513,-1156,3345,5917,3242,1745203436903826072
181408,-121,592,-1127,3409,5774,3337,1745203436903826072
181600,-230,679,-1090,3481,5645,3371,1745203436903826072
181792,-335,773,-1043,3575,5591,3473,1745203436903826072
181984,-430,869,-991,3675,5640,3660,1745203436903826072
182176,-511,972,-936,3739,5748,3798,1745203436967043099
182368,-585,1082,-884,3728,5907,3836,1745203436967043099
182560,-651,1202,-837,3700,6048,3840,1745203436967043099
182752,-694,1326,-793,3733,6294,3929,1745203436967043099
182944,-713,1466,-749,3806,6400,3819,1745203436967043099
183136,-720,1608,-686,3845,6625,3927,1745203436967043099
183328,-718,1784,-632,3959,6969,3769,1745203436967043099
183520,-709,1965,-590,4076,7412,3701,1745203436967043099
183712,-672,2163,-560,4243,7928,3578,1745203436967043099
183904,-605,2353,-517,4737,8735,3741,1745203436967043099
184096,-517,2543,-487,5046,9349,3684,1745203436967043099
184288,-405,2687,-469,5548,10164,3413,1745203436967043099
184480,-314,2847,-470,5890,10801,3367,1745203437020877243
184672,-228,2973,-486,6160,11453,3230,1745203437020877243
184864,-135,3093,-517,6393,12049,3349,1745203437020877243
185056,-34,3232,-549,6471,12632,3280,1745203437020877243
185248,79,3363,-585,6471,13205,3164,1745203437020877243
185440,194,3485,-633,6506,13685,3105,1745203437020877243
185632,307,3602,-708,6581,14084,2910,1745203437020877243
185824,401,3697,-804,6719,14362,2601,1745203437020877243
186016,474,3774,-921,6968,14512,2341,1745203437020877243
186208,541,3824,-1056,7264,14594,2086,1745203437020877243
186400,605,3859,-1208,7508,14816,1828,1745203437020877243
186592,673,3883,-1375,7646,15108,1564,1745203437020877243
186784,746,3888,-1555,7695,15499,1074,1745203437080607374
186976,825,3870,-1752,7597,15968,461,1745203437080607374
187168,917,3829,-1961,7460,16501,-228,1745203437080607374
187360,1032,3765,-2180,7326,17053,-919,1745203437080607374
187552,1170,3683,-2404,7216,17538,-1649,1745203437080607374
187744,1330,3584,-2628,7107,17946,-2376,1745203437080607374
187936,1500,3472,-2848,7048,18178,-3020,1745203437080607374
188128,1667,3354,-3061,7051,18192,-3508,1745203437080607374
188320,1819,3230,-3263,7029,17944,-3946,1745203437080607374
188512,1948,3096,-3442,6996,17406,-4313,1745203437080607374
188704,2053,2954,-3597,6928,16660,-4574,1745203437080607374
188896,2126,2814,-3730,6816,15827,-4778,1745203437080607374
189088,2163,2678,-3844,6668,14978,-4941,1745203437139789229
189280,2169,2551,-3941,6529,14213,-5020,1745203437139789229
189472,2147,2434,-4025,6364,13540,-5090,1745203437139789229
189664,2102,2327,-4093,6251,12956,-5165,1745203437139789229
189856,2042,2228,-4148,6161,12399,-5278,1745203437139789229
190048,1981,2138,-4186,6134,11830,-5355,1745203437139789229
190240,1934,2046,-4206,6172,11242,-5480,1745203437139789229
190432,1907,1948,-4213,6202,10700,-5627,1745203437139789229
190624,1894,1835,-4208,6255,10218,-5819,1745203437139789229
190816,1888,1709,-4189,6292,9845,-5983,1745203437139789229
191008,1887,1576,-4159,6331,9477,-6084,1745203437139789229
191200,1899,1447,-4135,6275,9109,-6086,1745203437139789229
191392,1931,1323,-4108,6158,8804,-6060,1745203437263468204
191584,1975,1200,-4072,6018,8524,-6059,1745203437263468204
191776,2023,1073,-4026,5864,8253,-6058,1745203437263468204
191968,2047,945,-3966,5698,7972,-6033,1745203437263468204
192160,2001,804,-3870,5548,7700,-6000,1745203437263468204
192352,2079,658,-3797,5711,6538,-5811,1745203437263468204
192544,2380,565,-3809,5464,6582,-5717,1745203437263468204
192736,2466,436,-3752,5292,6056,-5340,1745203437263468204
192928,2533,315,-3687,5322,5442,-5280,1745203437263468204
193120,2591,176,-3630,5162,4754,-5201,1745203437263468204
193312,2630,43,-3556,5040,4397,-5118,1745203437263468204
193504,2656,-103,-3412,4966,3819,-5014,1745203437263468204
193696,2661,-231,-3282,4726,3295,-4682,1745203437267389314
193888,2660,-351,-3193,4603,2699,-4796,1745203437267389314
194080,2644,-506,-3110,4301,2206,-4324,1745203437267389314
194272,2603,-617,-3023,4029,1652,-4266,1745203437267389314
194464,2540,-745,-2922,3729,1137,-4115,1745203437267389314
194656,2452,-847,-2813,3379,681,-3981,1745203437267389314
194848,2341,-940,-2699,3061,324,-3768,1745203437267389314
195040,2209,-1030,-2583,2766,53,-3573,1745203437267389314
195232,2067,-1101,-2469,2405,-132,-3327,1745203437267389314
195424,1929,-1154,-2352,2001,-155,-2996,1745203437267389314
195616,1800,-1199,-2231,1737,-157,-2822,1745203437267389314
195808,1684,-1239,-2101,1447,-174,-2599,1745203437267389314
196192,1481,-1316,-1825,1052,-129,-2181,1745203437318117340
196384,1402,-1339,-1699,851,-168,-1994,1745203437318117340
196576,1338,-1355,-1583,682,-204,-1927,1745203437318117340
196768,1282,-1365,-1475,528,-239,-1865,1745203437318117340
196960,1237,-1368,-1373,392,-284,-1803,1745203437318117340
197152,1198,-1377,-1269,233,-371,-1786,1745203437318117340
197344,1167,-1382,-1159,99,-526,-1789,1745203437318117340
197536,1140,-1387,-1043,-84,-667,-1713,1745203437318117340
197728,1120,-1398,-910,-286,-827,-1626,1745203437318117340
197920,1103,-1406,-769,-434,-1026,-1539,1745203437318117340
198112,1082,-1409,-642,-630,-1100,-1436,1745203437318117340
198304,1054,-1406,-529,-818,-1111,-1329,1745203437318117340
198496,1023,-1400,-422,-999,-1055,-1218,1745203437378557152
198688,992,-1397,-318,-1144,-992,-1106,1745203437378557152
198880,969,-1392,-208,-1279,-898,-1060,1745203437378557152
199072,965,-1393,-102,-1389,-808,-900,1745203437378557152
199264,1007,-1387,-19,-1425,-858,-791,1745203437378557152
199456,1110,-1371,39,-1541,-790,-669,1745203437378557152
199648,1131,-1367,126,-1798,-140,-661,1745203437378557152
199840,895,-1407,278,-1740,-508,-299,1745203437378557152
200032,873,-1421,371,-1824,-466,-232,1745203437378557152
200224,877,-1420,479,-1981,-378,-142,1745203437378557152
200416,886,-1415,598,-2066,-289,-2,1745203437378557152
200608,888,-1436,716,-2169,-241,27,1745203437378557152
200800,885,-1433,824,-2257,-223,10,1745203437434703150
200992,872,-1450,927,-2341,-202,79,1745203437434703150
201184,849,-1455,1028,-2399,-239,121,1745203437434703150
201376,813,-1460,1127,-2446,-311,168,1745203437434703150
201568,759,-1466,1223,-2516,-370,247,1745203437434703150
201760,685,-1467,1312,-2586,-394,312,1745203437434703150
201952,594,-1464,1397,-2682,-377,382,1745203437434703150
202144,486,-1458,1482,-2752,-304,442,1745203437434703150
202336,374,-1449,1567,-2837,-166,484,1745203437434703150
202528,267,-1443,1653,-2889,72,558,1745203437434703150
202720,181,-1434,1738,-2973,406,607,1745203437434703150
202912,127,-1411,1821,-3087,865,637,1745203437434703150
203104,119,-1374,1902,-3204,1446,675,1745203437495136139
203296,170,-1325,1971,-3360,2178,697,1745203437495136139
203488,282,-1275,2029,-3466,2872,750,1745203437495136139
203680,452,-1231,2079,-3541,3499,777,1745203437495136139
203872,673,-1196,2129,-3514,3744,760,1745203437495136139
204064,900,-1158,2185,-3605,4188,843,1745203437495136139
204256,1124,-1126,2210,-3506,4393,818,1745203437495136139
204448,1336,-1091,2239,-3500,4342,954,1745203437495136139
204640,1512,-1034,2282,-3524,4156,971,1745203437495136139
204832,1625,-979,2337,-3508,4010,932,1745203437495136139
205024,1662,-917,2401,-3284,3838,854,1745203437495136139
205216,1569,-879,2482,-2995,3679,389,1745203437495136139
205408,1344,-986,2578,-3558,2891,-45,1745203437574580310
205600,1147,-1180,2744,-3881,4014,214,1745203437574580310
205792,945,-1269,2655,-3998,3069,1418,1745203437574580310
205984,816,-1168,2659,-2588,3497,3816,1745203437574580310
206176,601,-591,2733,-3687,3320,2250,1745203437574580310
206368,404,-249,2821,-3513,3797,1440,1745203437574580310
206560,208,-170,2872,-3482,4177,1498,1745203437574580310
206752,37,-44,2925,-3210,4731,1635,1745203437574580310
206944,-122,25,2972,-2973,5308,1684,1745203437574580310
207136,-273,90,3001,-2708,5812,1615,1745203437574580310
207328,-451,155,3022,-2525,6420,1459,1745203437574580310
207520,-797,137,3029,-2103,6476,1890,1745203437574580310
207712,-771,246,3026,-1860,7069,2026,1745203437612041999
207904,-906,372,3015,-1727,7542,2010,1745203437612041999
208096,-1106,426,3009,-1555,8081,2026,1745203437612041999
208288,-1303,494,3003,-1435,8563,2064,1745203437612041999
208480,-1465,564,2998,-1378,9136,2111,1745203437612041999
208672,-1567,616,2995,-1426,9875,2136,1745203437612041999
208864,-1615,653,2984,-1410,10739,2401,1745203437612041999
209056,-1631,724,2964,-1398,11651,2705,1745203437612041999
209248,-1652,827,2921,-1399,12320,2575,1745203437612041999
209440,-1690,891,2859,-1322,12684,2459,1745203437612041999
209632,-1728,957,2791,-1238,12702,2380,1745203437612041999
209824,-1762,1026,2732,-1164,12544,2206,1745203437612041999
210016,-1805,1091,2692,-1106,12420,2112,1745203437671916816
210208,-1869,1170,2662,-1101,12484,2053,1745203437671916816
210400,-1939,1266,2628,-1141,12757,2000,1745203437671916816
210592,-2001,1374,2578,-1160,13205,1940,1745203437671916816
210784,-2049,1476,2510,-1138,13662,1810,1745203437671916816
210976,-2084,1566,2430,-1079,14085,1639,1745203437671916816
211168,-2095,1640,2343,-1049,14466,1443,1745203437671916816
211360,-2074,1691,2257,-975,14847,1652,1745203437671916816
211552,-2015,1790,2173,-980,15371,1844,1745203437671916816
211744,-1934,1902,2084,-971,15953,1824,1745203437671916816
211936,-1822,2004,1985,-943,16647,1735,1745203437671916816
212128,-1676,2110,1869,-852,17365,1500,1745203437671916816
212320,-1503,2202,1738,-699,18003,1268,1745203437733491045
212512,-1311,2268,1597,-455,18402,1091,1745203437733491045
212704,-1103,2307,1449,-229,18489,885,1745203437733491045
212896,-883,2329,1298,-59,18389,656,1745203437733491045
213088,-672,2342,1139,-27,18238,326,1745203437733491045
213280,-487,2357,975,-137,18071,-148,1745203437733491045
213472,-332,2379,808,-354,18008,-750,1745203437733491045
213664,-202,2404,642,-547,18082,-1391,1745203437733491045
213856,-103,2428,475,-703,18185,-2039,1745203437733491045
214048,-33,2444,303,-782,18272,-2603,1745203437733491045
214240,22,2452,125,-825,18355,-3090,1745203437733491045
214432,64,2453,-52,-849,18444,-3584,1745203437733491045
214624,87,2452,-225,-847,18522,-4070,1745203437795439438
215008,68,2441,-552,-695,18595,-4893,1745203437795439438
215200,45,2433,-710,-523,18643,-5201,1745203437795439438
215392,31,2422,-864,-357,18696,-5459,1745203437795439438
215584,33,2406,-1018,-157,18766,-5672,1745203437795439438
215776,60,2381,-1172,89,18828,-5890,1745203437795439438
215968,110,2339,-1329,338,18798,-6172,1745203437795439438
216160,185,2282,-1491,548,18720,-6504,1745203437795439438
216352,287,2212,-1649,741,18553,-6806,1745203437795439438
216544,412,2134,-1796,920,18339,-7066,1745203437795439438
216736,556,2047,-1934,1095,18039,-7255,1745203437795439438
216928,710,1956,-2065,1238,17680,-7344,1745203437795439438
217120,865,1864,-2185,1429,17220,-7393,1745203437854500096
217312,1011,1767,-2300,1626,16588,-7413,1745203437854500096
217504,1137,1662,-2409,1822,15817,-7440,1745203437854500096
217696,1241,1551,-2507,1981,14995,-7397,1745203437854500096
217888,1317,1440,-2591,2085,14202,-7303,1745203437854500096
218080,1364,1338,-2657,2141,13495,-7207,1745203437854500096
218272,1387,1239,-2705,2217,12822,-7088,1745203437854500096
218464,1393,1145,-2744,2236,12193,-6979,1745203437854500096
218656,1385,1048,-2772,2265,11613,-6900,1745203437854500096
218848,1370,951,-2792,2285,11048,-6795,1745203437854500096
219040,1356,854,-2803,2281,10500,-6673,1745203437854500096
219232,1351,760,-2804,2273,10027,-6601,1745203437854500096
219424,1344,680,-2795,2091,9443,-6327,1745203437919658876
219616,1381,585,-2780,2155,8942,-6390,1745203437919658876
219808,1400,488,-2769,2038,8541,-6158,1745203437919658876
220000,1418,408,-2742,1912,8089,-6008,1745203437919658876
220192,1443,313,-2716,1856,7648,-5873,1745203437919658876
220384,1469,231,-2682,1770,7247,-5695,1745203437919658876
220576,1497,147,-2644,1675,6836,-5523,1745203437919658876
220768,1528,64,-2608,1571,6478,-5354,1745203437919658876
220960,1557,-13,-2562,1461,6181,-5157,1745203437919658876
221152,1588,-94,-2508,1360,5844,-5055,1745203437919658876
221344,1627,-166,-2458,1234,5575,-4998,1745203437919658876
221536,1662,-242,-2410,1137,5315,-4910,1745203437919658876
221728,1695,-312,-2361,1024,5073,-4817,1745203437965658091
221920,1724,-380,-2308,901,4843,-4657,1745203437965658091
222112,1746,-449,-2253,812,4544,-4455,1745203437965658091
222304,1763,-518,-2197,733,4233,-4284,1745203437965658091
222496,1773,-586,-2136,631,3868,-4076,1745203437965658091
222688,1770,-652,-2066,543,3508,-3875,1745203437965658091
222880,1753,-716,-1989,452,3166,-3686,1745203437965658091
223072,1715,-774,-1908,376,2833,-3463,1745203437965658091
223264,1659,-828,-1828,301,2524,-3256,1745203437965658091
223456,1588,-878,-1750,213,2286,-3073,1745203437965658091
223648,1505,-924,-1675,130,2087,-2919,1745203437965658091
223840,1411,-964,-1598,24,1951,-2766,1745203437965658091
224032,1314,-998,-1519,-87,1878,-2640,1745203438029195375
224224,1223,-1027,-1436,-201,1845,-2504,1745203438029195375
224416,1144,-1052,-1348,-318,1864,-2376,1745203438029195375
224608,1076,-1073,-1258,-436,1910,-2246,1745203438029195375
224800,1024,-1089,-1168,-546,1961,-2102,1745203438029195375
224992,985,-1103,-1079,-649,1986,-1982,1745203438029195375
225184,956,-1112,-993,-722,1987,-1873,1745203438029195375
225376,938,-1119,-908,-792,1977,-1763,1745203438029195375
225568,930,-1124,-826,-840,1918,-1658,1745203438029195375
225760,934,-1129,-742,-894,1864,-1547,1745203438029195375
225952,946,-1134,-658,-918,1803,-1428,1745203438029195375
226144,962,-1137,-572,-948,1721,-1367,1745203438029195375
226336,978,-1140,-489,-982,1669,-1272,1745203438098811719
226528,993,-1143,-410,-996,1599,-1147,1745203438098811719
226720,1007,-1148,-334,-1047,1516,-1013,1745203438098811719
226912,1019,-1152,-260,-1111,1447,-886,1745203438098811719
227104,1030,-1152,-186,-1181,1387,-825,1745203438098811719
227296,1038,-1150,-111,-1231,1345,-791,1745203438098811719
227488,1038,-1147,-38,-1290,1316,-750,1745203438098811719
227680,1028,-1144,33,-1343,1263,-723,1745203438098811719
227872,1012,-1140,103,-1407,1191,-744,1745203438098811719
228064,988,-1136,171,-1466,1117,-763,1745203438098811719
228256,958,-1133,241,-1530,977,-785,1745203438098811719
228448,923,-1132,317,-1580,818,-777,1745203438098811719
228640,889,-1129,397,-1663,680,-743,1745203438151211240
229024,801,-1114,558,-1785,496,-724,1745203438151211240
229216,741,-1102,631,-1846,467,-695,1745203438151211240
229408,673,-1090,698,-1904,484,-682,1745203438151211240
229600,603,-1078,761,-1924,538,-645,1745203438151211240
229792,534,-1067,818,-1992,587,-542,1745203438151211240
229984,468,-1058,879,-2021,653,-434,1745203438151211240
230176,404,-1046,942,-2071,759,-303,1745203438151211240
230368,338,-1036,1008,-2102,898,-200,1745203438151211240
230560,267,-1030,1074,-2139,1065,-124,1745203438151211240
230752,186,-1024,1141,-2216,1214,-64,1745203438151211240
230944,99,-1019,1209,-2292,1361,-8,1745203438151211240
231136,12,-1009,1276,-2402,1483,4,1745203438211565636
231328,-70,-995,1342,-2499,1600,-11,1745203438211565636
231520,-145,-979,1408,-2620,1701,5,1745203438211565636
231712,-216,-962,1478,-2716,1783,25,1745203438211565636
231904,-285,-944,1549,-2829,1842,21,1745203438211565636
232096,-354,-921,1621,-2902,1946,-17,1745203438211565636
232288,-425,-894,1693,-2987,2058,-37,1745203438211565636
232480,-496,-860,1765,-3027,2214,-65,1745203438211565636
232672,-560,-824,1833,-3032,2362,-97,1745203438211565636
232864,-616,-788,1900,-3015,2517,-176,1745203438211565636
233056,-659,-751,1961,-2969,2685,-234,1745203438211565636
233248,-685,-719,2020,-2903,2838,-237,1745203438211565636
233440,-692,-686,2080,-2807,3016,-187,1745203438263093551
233632,-679,-653,2137,-2716,3210,-118,1745203438263093551
233824,-654,-618,2194,-2636,3455,-62,1745203438263093551
234016,-620,-576,2251,-2575,3769,-9,1745203438263093551
234208,-583,-534,2304,-2483,4087,75,1745203438263093551
234400,-544,-494,2354,-2390,4381,179,1745203438263093551
234592,-505,-457,2400,-2295,4657,280,1745203438263093551
234784,-473,-425,2448,-2201,4909,356,1745203438263093551
234976,-459,-395,2497,-2122,5108,465,1745203438263093551
235168,-473,-362,2547,-2049,5272,542,1745203438263093551
235360,-524,-324,2600,-1979,5377,580,1745203438263093551
235552,-610,-279,2655,-1890,5392,541,1745203438263093551
235744,-722,-232,2716,-1787,5397,573,1745203438328737691
235936,-845,-182,2779,-1635,5353,582,1745203438328737691
236128,-977,-137,2847,-1527,5357,583,1745203438328737691
236320,-1112,-90,2924,-1390,5438,604,1745203438328737691
236512,-1248,-40,3000,-1257,5641,633,1745203438328737691
236704,-1383,7,3074,-1115,5966,776,1745203438328737691
236896,-1512,52,3138,-922,6389,953,1745203438328737691
237088,-1619,92,3192,-703,6819,1050,1745203438328737691
237280,-1687,124,3238,-514,7253,1232,1745203438328737691
237472,-1708,152,3281,-259,7700,1494,1745203438328737691
237664,-1685,173,3322,-10,8121,1713,1745203438328737691
237856,-1634,187,3360,263,8553,2001,1745203438328737691
238048,-1579,188,3394,621,8935,2240,1745203438390308847
238240,-1542,181,3422,957,9289,2302,1745203438390308847
238432,-1534,172,3445,1260,9551,2310,1745203438390308847
238624,-1553,168,3465,1484,9742,2265,1745203438390308847
238816,-1593,173,3488,1637,9819,2126,1745203438390308847
239008,-1639,186,3516,1737,9897,1956,1745203438390308847
239200,-1689,202,3548,1846,9977,1820,1745203438390308847
239392,-1744,218,3571,1938,10019,1717,1745203438390308847
239584,-1810,230,3585,1993,10013,1483,1745203438390308847
239776,-1895,237,3597,1942,9980,1291,1745203438390308847
239968,-2003,236,3609,1980,9903,1289,1745203438390308847
240160,-2118,254,3615,2426,9874,1574,1745203438390308847
240352,-2203,358,3610,2364,9875,1515,1745203438443544767
240544,-2274,448,3601,2274,9899,1320,1745203438443544767
240736,-2333,508,3594,2316,10037,1392,1745203438443544767
240928,-2371,585,3572,2287,10394,1499,1745203438443544767
241120,-2395,673,3534,2331,10977,1666,1745203438443544767
241312,-2400,760,3476,2453,11811,1901,1745203438443544767
241504,-2391,831,3400,2641,12780,2241,1745203438443544767
241696,-2346,882,3314,2788,13784,2681,1745203438443544767
241888,-2242,928,3234,2872,14750,3004,1745203438443544767
242080,-2100,968,3158,2917,15613,3135,1745203438443544767
242272,-1949,998,3072,2931,16257,3230,1745203438443544767
242464,-1785,1028,2973,2908,16621,3179,1745203438443544767
242656,-1624,1064,2875,2749,16922,3281,1745203438503960153
242848,-1420,1095,2729,2472,17431,3077,1745203438503960153
243040,-1230,1133,2558,2328,17966,2855,1745203438503960153
243232,-1091,1163,2360,2216,18430,2605,1745203438503960153
243424,-963,1175,2154,2287,18767,2467,1745203438503960153
243616,-843,1183,1950,2275,19045,2442,1745203438503960153
243808,-733,1188,1747,2128,19223,2460,1745203438503960153
244000,-629,1201,1540,1864,19363,2452,1745203438503960153
244192,-538,1210,1328,1566,19501,2380,1745203438503960153
244384,-467,1221,1110,1315,19567,2169,1745203438503960153
244576,-422,1224,885,1149,19635,1882,1745203438503960153
244768,-396,1222,654,1071,19712,1559,1745203438503960153
244960,-386,1211,430,1012,19795,1285,1745203438561731031
245152,-383,1200,220,915,19984,992,1745203438561731031
245344,-378,1184,22,736,20207,769,1745203438561731031
245536,-361,1166,-166,531,20434,614,1745203438561731031
245728,-333,1153,-354,312,20552,472,1745203438561731031
245920,-292,1141,-539,153,20535,438,1745203438561731031
246112,-240,1127,-716,75,20294,409,1745203438561731031
246304,-194,1108,-879,111,19907,419,1745203438561731031
246496,-160,1087,-1026,154,19452,537,1745203438561731031
246688,-140,1068,-1162,184,18990,675,1745203438561731031
246880,-133,1050,-1292,218,18581,814,1745203438561731031
247072,-139,1036,-1415,234,18202,952,1745203438561731031
247264,-153,1026,-1529,290,17868,1082,1745203438620992886
247456,-170,1017,-1634,394,17575,1189,1745203438620992886
247648,-186,1009,-1730,460,17307,1322,1745203438620992886
247840,-196,999,-1817,516,17083,1464,1745203438620992886
248032,-195,990,-1902,546,16900,1573,1745203438620992886
248224,-177,984,-1983,576,16710,1695,1745203438620992886
248416,-143,977,-2064,649,16481,1768,1745203438620992886
248608,-98,971,-2139,768,16179,1831,1745203438620992886
248800,-52,964,-2207,936,15854,1895,1745203438620992886
248992,-7,956,-2270,1102,15477,1918,1745203438620992886
249184,36,952,-2327,1202,15085,1889,1745203438620992886
249376,79,951,-2376,1317,14717,1877,1745203438620992886
249568,127,952,-2422,1382,14388,1924,1745203438677762576
249760,180,958,-2466,1446,14093,1965,1745203438677762576
249952,235,968,-2505,1509,13850,1972,1745203438677762576
250144,285,978,-2542,1637,13646,1964,1745203438677762576
250336,328,980,-2581,1755,13486,1941,1745203438677762576
250528,371,979,-2623,1850,13358,1982,1745203438677762576
250720,410,974,-2667,1953,13255,2025,1745203438677762576
250912,447,965,-2707,2054,13072,2135,1745203438677762576
251104,497,955,-2741,2137,12819,2302,1745203438677762576
251296,567,950,-2768,2172,12554,2416,1745203438677762576
251488,641,951,-2796,2177,12300,2439,1745203438677762576
251680,716,953,-2829,2192,12061,2419,1745203438677762576
251872,793,950,-2860,2238,11858,2378,1745203438743655672
252064,866,938,-2889,2340,11624,2349,1745203438743655672
252256,929,922,-2917,2436,11396,2309,1745203438743655672
252448,987,910,-2943,2513,11173,2250,1745203438743655672
252640,1044,896,-2966,2592,10890,2196,1745203438743655672
252832,1099,874,-2984,2647,10604,2148,1745203438743655672
253024,1153,848,-2997,2664,10283,2138,1745203438743655672
253216,1203,819,-3005,2647,9969,2114,1745203438743655672
253408,1250,794,-3011,2599,9608,2017,1745203438743655672
253600,1294,774,-3007,2590,9238,1917,1745203438743655672
253792,1328,752,-2991,2617,8883,1802,1745203438743655672
253984,1347,727,-2970,2599,8569,1684,1745203438743655672
254176,1355,698,-2950,2549,8234,1581,1745203438797667835
254368,1349,668,-2931,2476,7866,1514,1745203438797667835
254560,1336,638,-2907,2380,7452,1502,1745203438797667835
254752,1319,613,-2872,2289,7029,1514,1745203438797667835
254944,1297,597,-2827,2199,6660,1506,1745203438797667835
255136,1270,587,-2775,2100,6385,1437,1745203438797667835
255328,1248,579,-2723,1983,6212,1375,1745203438797667835
255520,1235,570,-2673,1891,6079,1253,1745203438797667835
255712,1235,558,-2626,1803,5967,1116,1745203438797667835
255904,1247,539,-2578,1731,5827,1044,1745203438797667835
256096,1268,516,-2531,1664,5640,993,1745203438797667835
256288,1297,491,-2486,1564,5372,998,1745203438797667835
256480,1323,468,-2440,1486,5075,1037,1745203438852445199
256672,1343,450,-2394,1382,4714,980,1745203438852445199
256864,1356,435,-2345,1286,4377,913,1745203438852445199
257056,1360,415,-2290,1186,4063,840,1745203438852445199
257248,1350,389,-2230,1088,3734,746,1745203438852445199
257440,1328,365,-2173,976,3411,668,1745203438852445199
257632,1300,347,-2114,841,3149,631,1745203438852445199
257824,1271,334,-2052,719,2922,615,1745203438852445199
258016,1248,329,-1984,577,2762,611,1745203438852445199
258208,1228,323,-1916,461,2679,573,1745203438852445199
258400,1203,315,-1848,310,2614,489,1745203438852445199
258592,1180,308,-1784,154,2547,401,1745203438852445199
258784,1161,306,-1720,11,2491,322,1745203438926692750
258976,1144,305,-1656,-117,2450,250,1745203438926692750
259168,1126,304,-1592,-232,2421,174,1745203438926692750
259360,1098,301,-1526,-321,2366,78,1745203438926692750
259552,1061,297,-1462,-397,2303,15,1745203438926692750
259744,1020,295,-1402,-458,2223,-84,1745203438926692750
259936,981,297,-1340,-579,2151,-180,1745203438926692750
260128,948,301,-1275,-676,2121,-288,1745203438926692750
260320,921,305,-1209,-798,2092,-384,1745203438926692750
260512,909,305,-1146,-874,2100,-464,1745203438926692750
260704,909,302,-1086,-957,2101,-535,1745203438926692750
260896,914,293,-1026,-1040,2092,-593,1745203438926692750
261088,920,281,-969,-1144,2021,-665,1745203438969436578
261280,923,267,-916,-1248,1929,-671,1745203438969436578
261472,919,255,-862,-1369,1801,-659,1745203438969436578
261664,903,245,-808,-1481,1665,-681,1745203438969436578
261856,870,240,-752,-1613,1543,-736,1745203438969436578
262048,823,240,-696,-1739,1442,-792,1745203438969436578
262240,768,246,-634,-1860,1400,-862,1745203438969436578
262432,712,253,-568,-1946,1417,-909,1745203438969436578
262624,657,261,-502,-2030,1492,-947,1745203438969436578
262816,609,271,-439,-2088,1653,-1026,1745203438969436578
263008,575,282,-381,-2126,1832,-1071,1745203438969436578
263200,560,290,-329,-2174,1964,-1098,1745203438969436578
263392,563,294,-275,-2205,2106,-1114,1745203439030096805
263584,585,298,-222,-2255,2228,-1137,1745203439030096805
263776,624,303,-170,-2340,2328,-1134,1745203439030096805
263968,677,310,-120,-2411,2417,-1115,1745203439030096805
264160,745,320,-69,-2531,2495,-1097,1745203439030096805
264352,827,331,-19,-2619,2532,-1072,1745203439030096805
264544,918,345,29,-2683,2545,-1063,1745203439030096805
264736,1011,354,77,-2746,2504,-1092,1745203439030096805
264928,1087,359,125,-2773,2353,-1116,1745203439030096805
265120,1143,368,169,-2855,2153,-1221,1745203439030096805
265312,1182,388,216,-2988,1988,-1307,1745203439030096805
265504,1207,414,266,-3109,1859,-1385,1745203439030096805
265696,1221,448,319,-3203,1807,-1498,1745203439088337054
265888,1237,479,375,-3236,1839,-1578,1745203439088337054
266080,1256,511,432,-3313,1941,-1681,1745203439088337054
266272,1280,542,491,-3312,2090,-1797,1745203439088337054
266464,1313,569,541,-3271,2229,-1926,1745203439088337054
266656,1363,586,580,-3230,2405,-2023,1745203439088337054
266848,1433,608,624,-3203,2544,-2060,1745203439088337054
267040,1513,614,656,-3160,2674,-2110,1745203439088337054
267232,1604,626,685,-3177,2770,-2153,1745203439088337054
267424,1700,634,710,-3190,2900,-2164,1745203439088337054
267616,1798,638,735,-3233,2950,-2175,1745203439088337054
267808,1879,638,755,-3262,2897,-2176,1745203439088337054
268000,1937,633,773,-3340,2723,-2138,1745203439211213276
268192,1969,638,792,-3351,2523,-2301,1745203439211213276
268384,1982,645,813,-3441,2331,-2202,1745203439211213276
268576,1975,669,834,-3504,2156,-2293,1745203439211213276
268768,1957,686,864,-3580,2063,-2382,1745203439211213276
268960,1931,715,902,-3668,2120,-2545,1745203439211213276
269152,1906,737,950,-3721,2252,-2709,1745203439211213276
269344,1891,762,1001,-3814,2427,-2885,1745203439211213276
269536,1899,787,1046,-3842,2677,-3071,1745203439211213276
269728,1936,811,1085,-3881,2947,-3248,1745203439211213276
269920,2007,836,1116,-3893,3230,-3417,1745203439211213276
270112,2113,854,1137,-3884,3493,-3615,1745203439211213276
270304,2250,867,1144,-3926,3717,-3625,1745203439220473556
270496,2364,868,1152,-3825,3711,-3489,1745203439220473556
270688,2449,860,1163,-3738,3458,-3662,1745203439220473556
270880,2512,862,1173,-3679,3184,-3627,1745203439220473556
271072,2531,873,1188,-3674,2920,-3669,1745203439220473556
271264,2481,890,1214,-3633,2614,-3709,1745203439220473556
271456,2373,913,1249,-3617,2346,-3875,1745203439220473556
271648,2231,943,1281,-3612,2179,-4057,1745203439220473556
271840,2049,984,1311,-3571,2153,-4083,1745203439220473556
272032,1842,1026,1350,-3498,2221,-4172,1745203439220473556
272224,1637,1067,1399,-3345,2354,-4247,1745203439220473556
272416,1449,1103,1447,-3150,2553,-4379,1745203439220473556
272608,1279,1121,1500,-2934,2856,-4506,1745203439261366932
272800,1146,1131,1552,-2788,3220,-4712,1745203439261366932
272992,1055,1149,1596,-2767,3640,-4900,1745203439261366932
273184,1003,1174,1634,-2793,4052,-5104,1745203439261366932
273376,992,1202,1668,-2797,4430,-5268,1745203439261366932
273568,1020,1220,1694,-2750,4756,-5392,1745203439261366932
273760,1073,1230,1712,-2687,5030,-5500,1745203439261366932
273952,1136,1233,1728,-2587,5284,-5587,1745203439261366932
274144,1198,1238,1744,-2430,5405,-5637,1745203439261366932
274336,1245,1249,1752,-2275,5447,-5724,1745203439261366932
274528,1280,1263,1755,-2138,5438,-5852,1745203439261366932
274720,1304,1280,1756,-2029,5439,-5943,1745203439261366932
274912,1318,1297,1758,-1935,5396,-6035,1745203439334851365
275104,1322,1311,1759,-1839,5356,-6103,1745203439334851365
275296,1320,1320,1762,-1749,5331,-6328,1745203439334851365
275488,1324,1335,1761,-1700,5363,-6443,1745203439334851365
275680,1356,1361,1751,-1695,5550,-6848,1745203439334851365
275872,1425,1392,1732,-1599,5772,-6488,1745203439334851365
276064,1460,1391,1719,-1328,5729,-6709,1745203439334851365
276256,1497,1376,1709,-1058,5596,-7151,1745203439334851365
276448,1565,1371,1689,-848,5630,-7279,1745203439334851365
276640,1651,1366,1659,-692,5783,-7334,1745203439334851365
276832,1747,1360,1631,-577,5943,-7375,1745203439334851365
277024,1866,1352,1600,-423,6096,-7343,1745203439334851365
277216,2000,1346,1565,-300,6171,-7311,1745203439383070924
277408,2139,1345,1526,-189,6127,-7216,1745203439383070924
277600,2273,1351,1482,-107,5942,-7185,1745203439383070924
277792,2392,1386,1441,127,5724,-6711,1745203439383070924
277984,2512,1528,1414,139,5236,-6352,1745203439383070924
278176,2620,1743,1438,309,5238,-6635,1745203439383070924
278368,2643,1904,1439,-79,5587,-7013,1745203439383070924
278560,2521,1925,1474,561,4016,-8796,1745203439383070924
278752,2781,1736,1378,203,4223,-9421,1745203439383070924
278944,2646,1421,1394,910,3936,-8305,1745203439383070924
279136,2576,1353,1383,1161,3610,-8027,1745203439383070924
279328,2534,1406,1367,1165,3388,-8409,1745203439383070924
279520,2459,1446,1370,1251,3397,-8480,1745203439436947620
279712,2383,1472,1384,1400,3488,-8730,1745203439436947620
279904,2327,1488,1385,1509,3648,-8865,1745203439436947620
280096,2295,1484,1381,1596,3875,-8873,1745203439436947620
280288,2291,1470,1382,1675,4007,-8576,1745203439436947620
280480,2309,1469,1388,1748,4044,-8352,1745203439436947620
280672,2334,1483,1390,1749,3851,-8012,1745203439436947620
280864,2348,1504,1387,1713,3476,-7720,1745203439436947620
281056,2332,1512,1386,1729,2932,-7515,1745203439436947620
281248,2273,1528,1381,1741,2222,-7377,1745203439436947620
281440,2162,1556,1366,1747,1501,-7377,1745203439436947620
281632,1992,1584,1355,1823,919,-7395,1745203439436947620
281824,1791,1613,1356,2050,780,-7667,1745203439497900813
282016,1585,1633,1351,2431,826,-6888,1745203439497900813
282208,1429,1623,1367,2967,1240,-6341,1745203439497900813
282400,1580,1548,1408,3498,2013,-7934,1745203439497900813
282592,1795,1373,1438,4341,2357,-11266,1745203439497900813
282784,1915,1160,1281,4847,3250,-11731,1745203439497900813
282976,1911,986,888,4625,4610,-10019,1745203439497900813
283168,1846,992,495,4300,5493,-11111,1745203439497900813
283360,1668,911,93,4378,5529,-14814,1745203439497900813
283552,1651,719,-374,5182,6493,-21037,1745203439497900813
283744,1845,705,-649,6409,8605,-22162,1745203439497900813
283936,2091,725,-432,4647,6408,-22543,1745203439497900813
284128,1609,-63,177,6970,5297,-22593,1745203439556415695
284320,1110,-576,394,5827,1934,-19014,1745203439556415695
284512,951,-832,380,4056,173,-18155,1745203439556415695
284704,553,-911,228,2622,-336,-16385,1745203439556415695
284896,62,-838,17,1733,9,-14463,1745203439556415695
285088,-359,-823,-118,1165,444,-12369,1745203439556415695
285280,-642,-818,-88,689,603,-10689,1745203439556415695
285472,-838,-802,47,385,427,-9400,1745203439556415695
285664,-1013,-748,154,250,132,-8496,1745203439556415695
285856,-1171,-651,157,277,-74,-7942,1745203439556415695
286048,-1291,-524,78,405,-47,-7595,1745203439556415695
286240,-1342,-398,-10,636,254,-7457,1745203439556415695
286432,-1309,-291,-58,989,701,-7346,1745203439618346119
286624,-1183,-216,-62,1364,1169,-7199,1745203439618346119
286816,-969,-179,-35,1643,1598,-7214,1745203439618346119
287008,-903,-162,5,1726,2448,-10119,1745203439618346119
287200,-889,-252,42,1969,925,-3800,1745203439618346119
287392,-81,-188,24,1699,1445,-6777,1745203439618346119
287584,168,-123,54,1471,1099,-6831,1745203439618346119
287776,347,-114,58,1335,590,-6834,1745203439618346119
287968,446,-66,50,1239,165,-6875,1745203439618346119
288160,480,-33,36,1225,-157,-7008,1745203439618346119
288352,466,10,27,1232,-303,-7098,1745203439618346119
288544,423,40,26,1307,-282,-7174,1745203439618346119
288736,367,58,29,1411,-116,-7262,1745203439670775327
288928,315,66,33,1524,206,-7398,1745203439670775327
289120,276,69,30,1627,589,-7504,1745203439670775327
289312,248,64,20,1690,966,-7598,1745203439670775327
289504,232,55,7,1703,1273,-7632,1745203439670775327
289696,217,45,-5,1654,1475,-7634,1745203439670775327
289888,201,30,-18,1576,1556,-7664,1745203439670775327
290080,179,17,-32,1458,1582,-7731,1745203439670775327
290272,145,9,-47,1347,1594,-7780,1745203439670775327
290464,104,2,-60,1240,1631,-7823,1745203439670775327
290656,60,-1,-68,1160,1719,-7826,1745203439670775327
290848,24,-1,-71,1104,1817,-7812,1745203439670775327
291040,4,5,-71,1053,1890,-7774,1745203439743456174
291232,4,12,-70,1049,1924,-7719,1745203439743456174
291424,22,19,-70,1039,1900,-7672,1745203439743456174
291616,44,25,-74,1061,1846,-7671,1745203439743456174
291808,61,27,-79,1073,1753,-7677,1745203439743456174
292000,71,25,-79,1085,1598,-7679,1745203439743456174
292192,75,21,-72,1078,1442,-7698,1745203439743456174
292384,70,17,-61,1059,1326,-7742,1745203439743456174
292576,56,15,-47,1045,1276,-7806,1745203439743456174
292768,34,13,-33,1058,1260,-7826,1745203439743456174
292960,13,12,-20,1072,1260,-7808,1745203439743456174
293152,1,12,-8,1105,1274,-7787,1745203439743456174
293344,-3,13,5,1167,1263,-7749,1745203439787730561
293536,-8,18,12,1236,1240,-7749,1745203439787730561
293728,-19,23,18,1312,1205,-7734,1745203439787730561
293920,-35,26,21,1393,1161,-7722,1745203439787730561
294112,-56,25,24,1479,1130,-7739,1745203439787730561
294304,-78,22,23,1548,1099,-7759,1745203439787730561
294496,-103,16,19,1622,1093,-7767,1745203439787730561
294688,-128,8,11,1632,1106,-7790,1745203439787730561
294880,-148,-1,5,1626,1133,-7811,1745203439787730561
295072,-162,-10,2,1640,1166,-7829,1745203439787730561
295264,-168,-23,1,1619,1197,-7875,1745203439787730561
295456,-165,-35,-2,1585,1201,-7900,1745203439787730561
295648,-158,-43,-1,1554,1197,-7894,1745203439848035010
295840,-151,-45,0,1517,1187,-7894,1745203439848035010
296032,-143,-45,1,1497,1149,-7959,1745203439848035010
296224,-133,-45,1,1443,1145,-8007,1745203439848035010
296416,-125,-42,3,1431,1171,-8019,1745203439848035010
296608,-122,-37,8,1431,1203,-8116,1745203439848035010
296800,-119,-34,15,1421,1230,-8194,1745203439848035010
296992,-115,-33,23,1432,1312,-8178,1745203439848035010
297184,-115,-31,29,1445,1348,-8213,1745203439848035010
297376,-113,-33,28,1448,1381,-8245,1745203439848035010
297568,-112,-31,27,1434,1376,-8169,1745203439848035010
297760,-117,-24,28,1403,1310,-8157,1745203439848035010
297952,-119,-29,27,1391,1218,-8224,1745203439906662183
298144,-117,-35,28,1380,1227,-8288,1745203439906662183
298336,-120,-37,30,1378,1252,-8244,1745203439906662183
298528,-121,-40,29,1374,1267,-8153,1745203439906662183
298720,-117,-40,25,1316,1252,-8065,1745203439906662183
298912,-111,-41,20,1281,1218,-8040,1745203439906662183
299104,-108,-37,16,1254,1197,-8028,1745203439906662183
299296,-112,-29,14,1238,1181,-8014,1745203439906662183
299488,-121,-19,13,1259,1179,-7985,1745203439906662183
299680,-127,-9,12,1286,1196,-7912,1745203439906662183
299872,-130,1,11,1323,1227,-7927,1745203439906662183
300064,-129,3,6,1381,1271,-7936,1745203439906662183
300256,-121,5,1,1411,1313,-7936,1745203439965181128
300448,-111,6,-4,1436,1372,-7909,1745203439965181128
300640,-99,6,-7,1460,1376,-7878,1745203439965181128
300832,-83,1,-14,1415,1356,-7856,1745203439965181128
301024,-68,2,-17,1364,1333,-7859,1745203439965181128
301216,-59,1,-20,1334,1317,-7870,1745203439965181128
301408,-51,1,-25,1303,1319,-7872,1745203439965181128
301600,-48,4,-30,1259,1320,-7840,1745203439965181128
301792,-48,8,-34,1250,1308,-7824,1745203439965181128
301984,-50,14,-38,1265,1295,-7837,1745203439965181128
302176,-55,21,-40,1279,1273,-7812,1745203439965181128
302368,-64,27,-42,1331,1281,-7795,1745203439965181128
302560,-73,29,-44,1360,1262,-7829,1745203440027331133
302752,-75,26,-45,1412,1276,-7853,1745203440027331133
302944,-71,21,-45,1425,1300,-7844,1745203440027331133
303136,-64,14,-44,1411,1308,-7848,1745203440027331133
303328,-56,4,-41,1373,1281,-7836,1745203440027331133
303520,-48,-2,-37,1318,1239,-7818,1745203440027331133
303712,-47,-5,-34,1272,1206,-7810,1745203440027331133
303904,-50,-5,-32,1253,1191,-7791,1745203440027331133
304096,-55,-2,-28,1229,1185,-7778,1745203440027331133
304288,-60,1,-24,1258,1234,-7784,1745203440027331133
304480,-66,6,-20,1284,1325,-7764,1745203440027331133
304672,-70,8,-16,1315,1403,-7781,1745203440027331133
304864,-70,6,-13,1351,1503,-7773,1745203440081631887
305056,-68,3,-10,1367,1590,-7783,1745203440081631887
305248,-63,0,-12,1392,1666,-7813,1745203440081631887
305440,-57,-2,-16,1379,1689,-7810,1745203440081631887
305632,-49,-6,-22,1369,1694,-7825,1745203440081631887
305824,-43,-7,-23,1355,1680,-7829,1745203440081631887
306016,-38,-6,-22,1349,1656,-7843,1745203440081631887
306208,-36,-6,-21,1350,1649,-7864,1745203440081631887
306400,-31,-6,-23,1351,1623,-7875,1745203440081631887
306592,-24,-5,-25,1356,1623,-7872,1745203440081631887
306784,-19,-3,-26,1361,1593,-7874,1745203440081631887
306976,-15,-2,-27,1380,1555,-7887,1745203440081631887
307168,-14,-1,-29,1382,1497,-7922,1745203440140649681
307360,-15,-1,-30,1401,1451,-7936,1745203440140649681
307552,-16,-1,-28,1400,1391,-7963,1745203440140649681
307744,-19,-1,-25,1422,1363,-7981,1745203440140649681
307936,-25,-3,-25,1456,1338,-8001,1745203440140649681
308128,-31,-9,-24,1463,1303,-7994,1745203440140649681
308320,-36,-13,-23,1451,1291,-7979,1745203440140649681
308512,-42,-18,-21,1440,1257,-7958,1745203440140649681
308704,-49,-22,-17,1412,1279,-7944,1745203440140649681
308896,-59,-24,-13,1392,1296,-7943,1745203440140649681
309088,-71,-25,-10,1379,1321,-7924,1745203440140649681
309280,-83,-25,-9,1365,1369,-7905,1745203440140649681
309472,-91,-25,-8,1371,1440,-7903,1745203440199519664
309664,-94,-25,-5,1375,1520,-7898,1745203440199519664
309856,-93,-26,-3,1357,1583,-7899,1745203440199519664
310048,-90,-27,-2,1361,1594,-7870,1745203440199519664
310240,-84,-26,-1,1271,1581,-7609,1745203440199519664
310432,-68,0,-6,1097,1357,-7754,1745203440199519664
310624,-88,26,-12,1151,1350,-8062,1745203440199519664
310816,-134,7,-9,1385,1464,-7823,1745203440199519664
311008,-148,-6,-1,1547,1624,-7777,1745203440199519664
311200,-144,-28,6,1609,1726,-7778,1745203440199519664
311392,-150,-42,2,1525,1662,-7777,1745203440199519664
311584,-167,-53,-11,1409,1574,-7837,1745203440199519664
311776,-176,-61,-25,1307,1411,-7647,1745203440255761963
311968,-120,-64,-29,1287,1316,-7599,1745203440255761963
312160,-87,-66,-23,1270,1412,-7932,1745203440255761963
312352,-163,-64,-15,1268,1458,-7891,1745203440255761963
312544,-214,-57,-18,1225,1435,-7784,1745203440255761963
312736,-261,-52,-25,1228,1605,-8241,1745203440255761963
312928,-372,-41,-27,1213,1583,-7803,1745203440255761963
313120,-374,-33,-28,1208,1626,-7783,1745203440255761963
313312,-355,-39,-28,1305,1703,-7715,1745203440255761963
313504,-319,-53,-24,1443,1806,-7651,1745203440255761963
313696,-278,-76,-16,1595,1870,-7704,1745203440255761963
313888,-235,-109,-13,1684,1861,-7779,1745203440255761963
314080,-199,-132,-14,1643,1773,-7791,1745203440315602822
314272,-182,-142,-17,1487,1619,-7783,1745203440315602822
314464,-161,-153,-21,1314,1523,-7817,1745203440315602822
314656,-132,-160,-18,1208,1567,-7866,1745203440315602822
314848,-109,-162,-11,1215,1639,-7931,1745203440315602822
315040,-92,-166,-5,1316,1695,-7932,1745203440315602822
315232,-78,-174,-1,1377,1694,-7951,1745203440315602822
315424,-61,-185,1,1371,1693,-7955,1745203440315602822
315616,-50,-195,0,1306,1695,-7956,1745203440315602822
315808,-52,-206,-2,1305,1627,-7938,1745203440315602822
316000,-63,-220,-7,1278,1604,-7920,1745203440315602822
316192,-72,-232,-9,1244,1679,-7903,1745203440315602822
405856,-84,203,-5,1465,2744,-7633,1745203442646975536
406048,-145,194,3,852,1561,-7975,1745203442646975536
406240,4,99,-6,1104,2345,-7767,1745203442646975536
406432,-1,94,12,1218,2489,-7565,1745203442646975536
406624,21,109,15,1161,2374,-7682,1745203442646975536
406816,48,73,2,1198,2319,-7681,1745203442646975536
407008,40,88,-5,1228,2235,-7686,1745203442646975536
407200,49,82,-8,1217,2144,-7736,1745203442646975536
407392,48,62,-7,1186,2191,-7760,1745203442646975536
407584,44,72,-4,1171,2288,-7776,1745203442646975536
407776,58,62,-5,1136,2329,-7791,1745203442646975536
407968,63,57,-7,1122,2286,-7815,1745203442646975536
408160,65,71,-9,1078,2194,-7842,1745203442702949347
408352,63,73,-11,1046,2108,-7868,1745203442702949347
408544,49,81,-10,1073,2082,-7867,1745203442702949347
408736,37,89,-8,1134,2099,-7858,1745203442702949347
408928,24,85,-5,1179,2114,-7860,1745203442702949347
409120,13,89,1,1203,2130,-7881,1745203442702949347
409312,7,87,2,1223,2157,-7901,1745203442702949347
409504,5,82,1,1259,2183,-7947,1745203442702949347
409696,2,81,-1,1285,2163,-7987,1745203442702949347
409888,-2,73,-2,1344,2209,-8016,1745203442702949347
410080,-5,60,0,1374,2244,-8048,1745203442702949347
410272,-9,49,5,1388,2248,-8080,1745203442702949347
410464,-18,35,7,1415,2245,-8091,1745203442765517890
410656,-28,22,7,1438,2254,-8106,1745203442765517890
410848,-39,11,6,1415,2263,-8061,1745203442765517890
411040,-45,-1,5,1360,2250,-8017,1745203442765517890
411232,-48,-11,3,1352,2266,-7971,1745203442765517890
411424,-49,-20,3,1323,2221,-7906,1745203442765517890
411616,-98,10,-19,1177,1316,-7895,1745203442765517890
411808,-50,-60,30,1760,3340,-7437,1745203442765517890
412000,-41,-82,59,1305,2357,-7717,1745203442765517890
412192,-3,-89,15,1354,2202,-7861,1745203442765517890
412384,6,-109,-4,1445,2381,-7705,1745203442765517890
412576,27,-118,16,1375,2452,-7657,1745203442765517890
412768,65,-134,33,1353,2502,-7605,1745203442821872636
412960,94,-153,36,1312,2523,-7532,1745203442821872636
413152,133,-158,33,1249,2510,-7516,1745203442821872636
413344,156,-157,31,1067,2270,-7519,1745203442821872636
413536,132,-124,21,488,1512,-7469,1745203442821872636
413728,74,-54,-1,224,1164,-7505,1745203442821872636
413920,17,-16,-4,399,1350,-7435,1745203442821872636
414112,-29,17,15,684,1701,-7438,1745203442821872636
414304,-58,30,35,977,2051,-7438,1745203442821872636
414496,-66,33,43,1227,2276,-7456,1745203442821872636
414688,-55,26,38,1355,2387,-7502,1745203442821872636
414880,-40,8,27,1398,2387,-7583,1745203442821872636
415072,-29,-16,18,1380,2323,-7650,1745203442878138112
415264,-23,-36,13,1291,2255,-7708,1745203442878138112
415456,-24,-52,11,1200,2222,-7717,1745203442878138112
415648,-32,-60,11,1109,2213,-7721,1745203442878138112
415840,-42,-61,13,1043,2186,-7712,1745203442878138112
416032,-54,-60,15,1018,2165,-7722,1745203442878138112
416224,-68,-57,15,1026,2135,-7743,1745203442878138112
416416,-85,-54,14,1037,2123,-7765,1745203442878138112
416608,-103,-49,12,1076,2142,-7807,1745203442878138112
416800,-123,-46,12,1106,2154,-7833,1745203442878138112
416992,-145,-41,11,1152,2201,-7882,1745203442878138112
417184,-164,-39,9,1212,2274,-7944,1745203442878138112
417376,-180,-39,6,1249,2309,-8025,1745203442937615589
417568,-196,-39,5,1327,2342,-8098,1745203442937615589
417760,-216,-42,4,1348,2338,-8161,1745203442937615589
417952,-242,-43,1,1426,2333,-8210,1745203442937615589
418144,-277,-47,-3,1494,2303,-8235,1745203442937615589
418336,-321,-49,-7,1562,2268,-8272,1745203442937615589
418528,-376,-51,-12,1612,2262,-8236,1745203442937615589
418720,-440,-52,-17,1704,2284,-7922,1745203442937615589
418912,-517,-36,-15,1789,2256,-7513,1745203442937615589
419104,-607,4,-11,1979,2165,-7531,1745203442937615589
419296,-718,47,-22,2250,2024,-7784,1745203442937615589
419488,-831,61,-48,2529,1891,-8024,1745203442937615589
419680,-934,45,-79,2748,1949,-8222,1745203442997096764
419872,-1032,14,-104,2928,2106,-8194,1745203442997096764
420064,-1099,3,-118,3088,2382,-7780,1745203442997096764
420256,-1134,3,-120,3200,2785,-7803,1745203442997096764
420448,-1139,-34,-150,3296,3040,-7940,1745203442997096764
420640,-1101,-85,-207,3302,3167,-7996,1745203442997096764
420832,-1047,-106,-256,3285,3183,-8029,1745203442997096764
421024,-983,-115,-293,3306,3082,-8063,1745203442997096764
421216,-909,-130,-319,3359,2772,-8127,1745203442997096764
421408,-804,-148,-317,3470,2381,-8066,1745203442997096764
421600,-680,-150,-309,3687,2112,-7993,1745203442997096764
421792,-588,-161,-348,3859,2011,-7820,1745203442997096764
421984,-553,-180,-413,3996,1995,-7571,1745203443060272489
422176,-550,-206,-475,4096,1995,-7438,1745203443060272489
422368,-554,-240,-525,4172,1954,-7315,1745203443060272489
422560,-561,-278,-560,4221,1923,-7120,1745203443060272489
422752,-569,-318,-586,4248,1959,-6796,1745203443060272489
422944,-570,-358,-607,4235,2013,-6470,1745203443060272489
423136,-566,-395,-631,4220,2151,-6193,1745203443060272489
423328,-563,-427,-659,4143,2207,-5915,1745203443060272489
423520,-563,-455,-694,4068,2194,-5733,1745203443060272489
423712,-573,-475,-730,3967,2091,-5630,1745203443060272489
423904,-593,-491,-762,3883,1917,-5599,1745203443060272489
424096,-626,-509,-784,3782,1705,-5608,1745203443060272489
424288,-673,-529,-797,3684,1499,-5585,1745203443111803842
424480,-734,-549,-798,3594,1366,-5576,1745203443111803842
424672,-801,-569,-794,3515,1301,-5552,1745203443111803842
424864,-866,-591,-789,3406,1325,-5542,1745203443111803842
425056,-924,-617,-784,3273,1436,-5574,1745203443111803842
425248,-975,-642,-781,3112,1571,-5653,1745203443111803842
425440,-1018,-668,-774,2942,1675,-5735,1745203443111803842
425632,-1059,-691,-758,2734,1750,-5846,1745203443111803842
425824,-1098,-711,-728,2476,1769,-5917,1745203443111803842
426016,-1136,-721,-681,2225,1717,-5944,1745203443111803842
426208,-1180,-717,-619,1968,1668,-6017,1745203443111803842
426400,-1227,-701,-545,1758,1675,-6031,1745203443111803842
426592,-1273,-679,-458,1571,1669,-5861,1745203443178343755
426784,-1298,-664,-353,1412,1631,-5647,1745203443178343755
426976,-1294,-658,-234,1241,1583,-5480,1745203443178343755
427168,-1282,-655,-118,1075,1526,-5353,1745203443178343755
427360,-1287,-650,-17,913,1450,-5312,1745203443178343755
427552,-1312,-643,65,785,1391,-5410,1745203443178343755
427744,-1352,-639,137,705,1344,-5492,1745203443178343755
427936,-1405,-636,206,650,1415,-5419,1745203443178343755
428128,-1462,-629,282,625,1560,-5310,1745203443178343755
428320,-1512,-628,369,635,1706,-5189,1745203443178343755
428512,-1552,-628,463,633,1802,-5152,1745203443178343755
428704,-1593,-638,560,599,1884,-5101,1745203443178343755
428896,-1655,-648,653,506,1924,-4948,1745203443252069956
429280,-1866,-670,824,215,1806,-4403,1745203443252069956
429472,-2005,-672,902,17,1670,-4020,1745203443252069956
429664,-2157,-668,983,-167,1568,-3678,1745203443252069956
429856,-2312,-658,1066,-353,1598,-3516,1745203443252069956
430048,-2471,-648,1144,-457,1795,-3426,1745203443252069956
430240,-2637,-636,1212,-545,2150,-3405,1745203443252069956
430432,-2808,-624,1275,-536,2594,-3397,1745203443252069956
430624,-2974,-619,1329,-471,3020,-3365,1745203443252069956
430816,-3129,-618,1377,-361,3492,-3269,1745203443252069956
431008,-3275,-622,1432,-242,3919,-3157,1745203443252069956
431200,-3418,-628,1491,-156,4289,-3030,1745203443252069956
431392,-3562,-638,1554,-36,4573,-2822,1745203443292015893
431584,-3699,-648,1617,68,4756,-2563,1745203443292015893
431776,-3826,-655,1673,55,4996,-2377,1745203443292015893
431968,-3945,-666,1745,-11,5251,-2160,1745203443292015893
432160,-4070,-695,1835,14,5470,-2080,1745203443292015893
432352,-4204,-717,1929,47,5653,-1840,1745203443292015893
432544,-4337,-749,2022,31,5870,-1487,1745203443292015893
432736,-4456,-767,2112,24,6150,-1145,1745203443292015893
432928,-4561,-780,2203,85,6490,-942,1745203443292015893
433120,-4654,-808,2278,176,6891,-813,1745203443292015893
433312,-4740,-849,2327,280,7345,-682,1745203443292015893
433504,-4829,-889,2346,311,7811,-569,1745203443292015893
433696,-4917,-943,2352,363,8300,-387,1745203443357515764
433888,-5004,-992,2360,404,8731,-260,1745203443357515764
434080,-5092,-1037,2366,467,9183,-78,1745203443357515764
434272,-5177,-1085,2374,456,9525,144,1745203443357515764
434464,-5259,-1134,2383,461,10021,358,1745203443357515764
434656,-5334,-1167,2410,435,10359,422,1745203443357515764
434848,-5621,-1192,2436,14,11100,-2224,1745203443357515764
435040,-5830,-1316,2450,1053,10299,4153,1745203443357515764
435232,-5305,-1248,2363,337,11391,1316,1745203443357515764
435424,-5325,-1286,2370,466,11591,1614,1745203443357515764
435616,-5275,-1283,2349,494,11823,1867,1745203443357515764
435808,-5227,-1300,2301,619,11863,2161,1745203443357515764
436000,-5154,-1324,2241,744,11914,2546,1745203443416215957
436192,-5065,-1319,2180,747,11963,2819,1745203443416215957
436384,-4960,-1280,2129,661,12109,3194,1745203443416215957
436576,-4811,-1197,2087,499,12416,3527,1745203443416215957
436768,-4609,-1067,2043,330,12927,3856,1745203443416215957
436960,-4324,-926,1972,300,13643,4068,1745203443416215957
437152,-3976,-777,1867,493,14316,4244,1745203443416215957
437344,-3593,-647,1737,823,14851,4476,1745203443416215957
437536,-3174,-526,1596,1214,15175,4808,1745203443416215957
437728,-2744,-404,1459,1536,15370,5143,1745203443416215957
437920,-2328,-273,1341,1679,15485,5527,1745203443416215957
438112,-1924,-110,1228,1618,15555,5909,1745203443416215957
438304,-1524,84,1111,1445,15623,6145,1745203443476198742
438496,-1133,290,985,1307,15571,6298,1745203443476198742
438688,-761,492,855,1314,15343,6372,1745203443476198742
438880,-420,679,726,1386,14998,6446,1745203443476198742
439072,-121,860,604,1435,14568,6413,1745203443476198742
439264,123,1030,504,1423,14073,6420,1745203443476198742
439456,309,1192,426,1369,13605,6367,1745203443476198742
439648,438,1344,366,1251,13231,6269,1745203443476198742
439840,518,1485,308,1166,12934,6048,1745203443476198742
440032,550,1613,242,1108,12714,5766,1745203443476198742
440224,542,1729,170,1099,12600,5505,1745203443476198742
440416,499,1835,91,1151,12595,5258,1745203443476198742
440608,431,1932,6,1197,12686,5049,1745203443531509330
440800,341,2028,-88,1235,12968,4826,1745203443531509330
440992,231,2126,-185,1279,13331,4583,1745203443531509330
441184,120,2226,-279,1340,13703,4353,1745203443531509330
441376,31,2316,-366,1449,14015,4122,1745203443531509330
441568,-30,2393,-448,1599,14250,3919,1745203443531509330
441760,-55,2454,-524,1741,14397,3730,1745203443531509330
441952,-44,2493,-601,1888,14486,3543,1745203443531509330
442144,-7,2506,-683,2047,14551,3450,1745203443531509330
442336,50,2500,-774,2191,14596,3569,1745203443531509330
442528,126,2487,-880,2282,14620,3764,1745203443531509330
442720,223,2481,-998,2289,14591,3972,1745203443531509330
442912,345,2479,-1121,2275,14504,4234,1745203443595726921
443104,493,2478,-1252,2295,14337,4444,1745203443595726921
443296,663,2479,-1395,2303,14208,4487,1745203443595726921
443488,849,2487,-1549,2302,14179,4319,1745203443595726921
443680,1039,2499,-1714,2310,14280,4026,1745203443595726921
443872,1227,2505,-1879,2339,14456,3642,1745203443595726921
444064,1407,2505,-2039,2419,14645,3153,1745203443595726921
444256,1574,2498,-2201,2511,14826,2608,1745203443595726921
444448,1728,2479,-2355,2617,14935,2088,1745203443595726921
444640,1869,2446,-2489,2772,14902,1602,1745203443595726921
444832,2003,2399,-2605,2952,14721,1236,1745203443595726921
445024,2135,2332,-2698,3143,14364,1029,1745203443595726921
445216,2272,2248,-2769,3339,13863,864,1745203443661077001
445408,2408,2149,-2825,3463,13285,690,1745203443661077001
445600,2530,2047,-2879,3567,12652,569,1745203443661077001
445792,2629,1948,-2935,3606,11985,481,1745203443661077001
445984,2708,1849,-2987,3599,11303,356,1745203443661077001
446176,2770,1758,-3028,3550,10622,206,1745203443661077001
446368,2831,1671,-3062,3508,9950,77,1745203443661077001
446560,2893,1584,-3088,3449,9376,19,1745203443661077001
446752,2947,1497,-3112,3402,8879,-62,1745203443661077001
446944,2978,1411,-3136,3347,8483,-287,1745203443661077001
447136,2981,1333,-3162,3294,8111,-678,1745203443661077001
447328,2976,1256,-3183,3232,7694,-921,1745203443661077001
447520,2976,1177,-3192,3189,7263,-792,1745203443707172205
447712,2967,1091,-3187,3120,6821,-598,1745203443707172205
447904,2951,1005,-3176,3003,6454,-663,1745203443707172205
448096,2917,928,-3170,2858,6176,-814,1745203443707172205
448288,2863,857,-3164,2703,5917,-943,1745203443707172205
448480,2804,798,-3155,2551,5593,-1027,1745203443707172205
448672,2742,738,-3140,2401,5206,-1126,1745203443707172205
448864,2676,680,-3114,2233,4700,-1173,1745203443707172205
449056,2605,620,-3077,2043,4177,-1080,1745203443707172205
449248,2510,559,-3030,1844,3658,-976,1745203443707172205
449440,2385,503,-2976,1608,3178,-970,1745203443707172205
449632,2228,457,-2913,1338,2702,-1062,1745203443707172205
449824,2049,420,-2839,1066,2235,-1107,1745203443766566194
450016,1871,384,-2753,787,1764,-1108,1745203443766566194
450208,1710,344,-2654,537,1292,-1080,1745203443766566194
450400,1569,302,-2549,270,869,-1050,1745203443766566194
450592,1442,257,-2438,52,505,-996,1745203443766566194
450784,1317,215,-2326,-205,188,-858,1745203443766566194
450976,1192,187,-2217,-482,-88,-734,1745203443766566194
451168,1068,161,-2111,-789,-364,-641,1745203443766566194
451360,948,142,-2002,-1078,-595,-592,1745203443766566194
451552,831,127,-1892,-1323,-779,-648,1745203443766566194
451744,710,115,-1788,-1551,-803,-729,1745203443766566194
451936,581,110,-1709,-1776,-894,-749,1745203443766566194
452128,432,91,-1609,-1972,-1029,-686,1745203443824603163
452320,277,92,-1485,-2219,-1118,-764,1745203443824603163
452512,142,102,-1347,-2326,-1149,-849,1745203443824603163
452704,19,125,-1198,-2428,-1189,-911,1745203443824603163
452896,-91,149,-1042,-2489,-1158,-1025,1745203443824603163
453088,-186,169,-888,-2500,-1033,-1213,1745203443824603163
453280,-260,184,-741,-2472,-872,-1409,1745203443824603163
453472,-310,193,-597,-2458,-646,-1567,1745203443824603163
453664,-335,193,-447,-2465,-471,-1679,1745203443824603163
453856,-328,187,-295,-2455,-314,-1812,1745203443824603163
454048,-294,177,-144,-2476,-191,-2002,1745203443824603163
454240,-244,163,8,-2518,-75,-2169,1745203443824603163
454432,-194,154,167,-2553,36,-2276,1745203443883562521
454624,-159,148,332,-2586,190,-2332,1745203443883562521
454816,-147,149,492,-2639,261,-2430,1745203443883562521
455008,-164,150,652,-2586,396,-2517,1745203443883562521
455200,-211,156,798,-2601,541,-2623,1745203443883562521
455392,-281,168,936,-2618,731,-2704,1745203443883562521
455584,-370,173,1069,-2623,942,-2737,1745203443883562521
455776,-481,177,1191,-2624,1186,-2769,1745203443883562521
455968,-621,177,1305,-2646,1467,-2809,1745203443883562521
456160,-784,170,1412,-2655,1747,-2788,1745203443883562521
456352,-956,158,1516,-2700,2053,-2769,1745203443883562521
456544,-1126,145,1618,-2755,2381,-2716,1745203443883562521
456736,-1281,128,1715,-2858,2735,-2606,1745203443946605643
456928,-1414,111,1813,-2974,3074,-2452,1745203443946605643
457120,-1539,93,1919,-3051,3614,-2259,1745203443946605643
457312,-1673,81,2019,-3117,4291,-2016,1745203443946605643
457504,-1832,73,2102,-3153,5139,-1672,1745203443946605643
457696,-2026,85,2164,-3191,6050,-1343,1745203443946605643
457888,-2243,114,2201,-3234,7094,-1064,1745203443946605643
458080,-2463,150,2210,-3258,8162,-760,1745203443946605643
458272,-2647,188,2198,-3239,9269,-461,1745203443946605643
458464,-2772,219,2177,-3235,10438,-213,1745203443946605643
458656,-2824,237,2152,-3227,11527,169,1745203443946605643
458848,-2802,237,2138,-2989,13007,528,1745203443946605643
459040,-2755,247,2099,-2896,14072,876,1745203443999791459
459232,-2680,249,2067,-2658,15136,1065,1745203443999791459
459424,-2595,242,2025,-2353,15990,1306,1745203443999791459
459616,-2495,224,1970,-2043,16579,1469,1745203443999791459
459808,-2365,187,1901,-1610,17024,1696,1745203443999791459
460000,-2211,146,1799,-1220,17228,1609,1745203443999791459
460192,-2076,78,1679,-860,16983,1403,1745203443999791459
460384,-1856,-33,1543,-552,15964,1077,1745203443999791459
460576,-1620,-110,1410,248,16994,347,1745203443999791459
460768,-1587,-12,1213,216,16353,398,1745203443999791459
460960,-1504,67,983,190,16047,413,1745203443999791459
461152,-1415,66,773,58,15416,128,1745203443999791459
461344,-1272,51,588,-234,15268,-453,1745203444067579277
461536,-1102,26,373,-723,15202,-1263,1745203444067579277
461728,-913,16,59,-1127,16110,-426,1745203444067579277
461920,-416,207,-453,-1744,15796,543,1745203444067579277
462112,86,651,-713,-2394,16528,786,1745203444067579277
462304,375,1067,-943,-2624,16617,51,1745203444067579277
462496,635,1195,-1124,-2464,16330,238,1745203444067579277
462688,873,1301,-1295,-2160,15575,554,1745203444067579277
462880,1098,1356,-1435,-1957,14638,776,1745203444067579277
463072,1300,1379,-1532,-1849,13676,903,1745203444067579277
463264,1461,1396,-1595,-1862,12816,1037,1745203444067579277
463456,1568,1406,-1643,-1980,12165,1078,1745203444067579277
463648,1635,1410,-1695,-2124,11683,1099,1745203444122590858
463840,1669,1403,-1768,-2346,11317,1025,1745203444122590858
464032,1665,1390,-1862,-2569,11024,830,1745203444122590858
464224,1642,1368,-1964,-2782,10726,592,1745203444122590858
464416,1608,1342,-2072,-2973,10409,278,1745203444122590858
464608,1557,1308,-2171,-3071,10030,-64,1745203444122590858
464800,1506,1275,-2252,-3151,9636,-340,1745203444122590858
464992,1468,1250,-2324,-3235,9198,-557,1745203444122590858
465184,1451,1229,-2391,-3309,8750,-813,1745203444122590858
465376,1449,1202,-2449,-3765,8363,-1133,1745203444122590858
465568,1401,1175,-2450,-3501,7694,-1146,1745203444122590858
465760,1375,1196,-2450,-3582,7091,-1596,1745203444122590858
465952,1373,1177,-2443,-3594,6413,-1828,1745203444173796536
466144,1381,1138,-2421,-3591,5721,-1979,1745203444173796536
466336,1386,1095,-2384,-3564,5023,-2164,1745203444173796536
466528,1379,1062,-2328,-3529,4287,-2399,1745203444173796536
466720,1357,1029,-2255,-3430,3569,-2635,1745203444173796536
466912,1316,983,-2174,-3321,2820,-2855,1745203444173796536
467104,1248,930,-2089,-3147,2192,-3041,1745203444173796536
467296,1160,868,-1995,-3069,1479,-3093,1745203444173796536
467488,1063,815,-1877,-2846,1102,-2900,1745203444173796536
467680,935,795,-1762,-2826,378,-3566,1745203444173796536
467872,775,720,-1605,-2635,92,-3617,1745203444173796536
468064,601,636,-1461,-2490,-233,-3805,1745203444173796536
468256,425,559,-1315,-2399,-475,-3934,1745203444237058823
468448,261,489,-1168,-2370,-632,-4101,1745203444237058823
468640,120,415,-1022,-2385,-710,-4297,1745203444237058823
468832,14,337,-880,-2461,-765,-4467,1745203444237058823
469024,-45,254,-740,-2550,-777,-4580,1745203444237058823
469216,-58,174,-607,-2689,-734,-4664,1745203444237058823
469408,-41,104,-471,-2798,-629,-4688,1745203444237058823
469600,-21,50,-336,-2945,-397,-4569,1745203444237058823
469792,-4,1,-182,-3073,-103,-4495,1745203444237058823
469984,-14,-22,-16,-3078,161,-4366,1745203444237058823
470176,-41,-35,148,-3021,480,-4169,1745203444237058823
470368,-79,-44,300,-2873,781,-3949,1745203444237058823
470560,-124,-57,446,-2719,1113,-3728,1745203444352560163
470752,-167,-73,588,-2548,1420,-3506,1745203444352560163
470944,-206,-103,723,-2414,1717,-3331,1745203444352560163
471136,-243,-143,850,-2316,1995,-3193,1745203444352560163
471328,-278,-194,976,-2290,2274,-3021,1745203444352560163
471520,-319,-244,1095,-2192,2693,-2756,1745203444352560163
471712,-368,-261,1187,-2279,2932,-2614,1745203444352560163
471904,-431,-272,1282,-2349,3259,-2536,1745203444352560163
472096,-502,-285,1364,-2417,3528,-2403,1745203444352560163
472288,-579,-294,1437,-2450,3921,-2268,1745203444352560163
472480,-667,-304,1512,-2526,4371,-2044,1745203444352560163
472672,-779,-322,1583,-2548,5011,-1897,1745203444352560163
472864,-926,-343,1645,-2530,5750,-1552,1745203444356742729
473056,-1095,-348,1691,-2509,6554,-1404,1745203444356742729
473248,-1277,-367,1726,-2112,7693,-267,1745203444356742729
473440,-1401,-223,1708,-2222,8668,-117,1745203444356742729
473632,-1512,-109,1687,-2266,9767,-269,1745203444356742729
473824,-1580,-96,1661,-2282,10816,-61,1745203444356742729
474016,-1589,-81,1624,-2239,11796,348,1745203444356742729
474208,-1568,-58,1576,-2153,12541,794,1745203444356742729
474400,-1511,-65,1515,-2012,13007,1159,1745203444356742729
474592,-1424,-71,1445,-1871,13189,1291,1745203444356742729
474784,-1320,-77,1380,-1658,13075,1275,1745203444356742729
474976,-1208,-101,1324,-1382,12828,1221,1745203444356742729
475168,-1114,-112,1259,-1121,12537,1118,1745203444407330497
475360,-1057,-119,1161,-931,12321,931,1745203444407330497
475552,-1058,-96,1020,-878,12355,578,1745203444407330497
475744,-1113,-38,855,-903,12510,211,1745203444407330497
475936,-1189,50,681,-903,12662,-128,1745203444407330497
476128,-1234,152,504,-862,12792,-480,1745203444407330497
476320,-1203,252,334,-854,13012,-787,1745203444407330497
476512,-1092,343,172,-928,13390,-977,1745203444407330497
476704,-921,424,18,-1096,13840,-1041,1745203444407330497
476896,-714,499,-123,-1319,14197,-1059,1745203444407330497
477088,-481,563,-253,-1559,14384,-924,1745203444407330497
477280,-224,611,-373,-1778,14233,-684,1745203444407330497
477472,49,638,-485,-1986,13804,-469,1745203444480403475
477664,333,652,-585,-2229,13194,-216,1745203444480403475
477856,599,658,-676,-2422,12441,80,1745203444480403475
478048,822,664,-762,-2624,11660,332,1745203444480403475
478240,987,673,-842,-2763,10844,465,1745203444480403475
478432,1099,683,-915,-2847,10049,553,1745203444480403475
478624,1166,686,-977,-2959,9297,408,1745203444480403475
478816,1196,683,-1026,-3086,8636,125,1745203444480403475
479008,1196,677,-1066,-3216,8071,-186,1745203444480403475
479200,1179,662,-1100,-3334,7643,-508,1745203444480403475
479392,1148,647,-1134,-3468,7325,-875,1745203444480403475
479584,1106,631,-1167,-3653,7101,-1179,1745203444480403475
479776,1051,619,-1197,-3818,6933,-1353,1745203444531889567
479968,982,610,-1214,-4009,6784,-1516,1745203444531889567
480160,891,606,-1206,-4163,6548,-1766,1745203444531889567
480352,780,603,-1178,-4282,6206,-2069,1745203444531889567
480544,660,599,-1131,-4364,5738,-2317,1745203444531889567
480736,552,591,-1069,-4390,5238,-2532,1745203444531889567
480928,463,576,-1000,-4406,4763,-2754,1745203444531889567
481120,390,555,-925,-4405,4297,-3031,1745203444531889567
481312,331,526,-847,-4405,3928,-3285,1745203444531889567
481504,281,491,-773,-4390,3585,-3513,1745203444531889567
481696,238,451,-707,-4370,3339,-3663,1745203444531889567
481888,199,407,-651,-4379,3121,-3799,1745203444531889567
482080,160,364,-594,-4362,2972,-3949,1745203444582615093
482272,119,322,-537,-4337,2877,-4054,1745203444582615093
482464,79,280,-477,-4296,2793,-4128,1745203444582615093
482656,45,237,-416,-4261,2720,-4227,1745203444582615093
482848,27,194,-353,-4253,2649,-4330,1745203444582615093
483040,34,150,-290,-4249,2508,-4437,1745203444582615093
483232,73,94,-221,-4226,2364,-4516,1745203444582615093
483424,138,34,-143,-4216,2249,-4590,1745203444582615093
483616,213,-32,-56,-4196,2141,-4605,1745203444582615093
483808,275,-94,35,-4152,2082,-4528,1745203444582615093
484000,310,-148,132,-4088,2070,-4442,1745203444582615093
484192,311,-194,236,-3987,2061,-4331,1745203444582615093
484384,281,-235,343,-3846,2087,-4191,1745203444642798398
484576,225,-274,453,-3676,2135,-4023,1745203444642798398
484768,146,-314,565,-3492,2245,-3813,1745203444642798398
484960,49,-355,679,-3327,2365,-3539,1745203444642798398
485152,-62,-400,797,-3137,2499,-3266,1745203444642798398
485344,-185,-449,911,-2983,2666,-3019,1745203444642798398
485536,-319,-495,1019,-2866,2856,-2817,1745203444642798398
485728,-461,-544,1122,-2800,3108,-2646,1745203444642798398
485920,-605,-589,1218,-2744,3388,-2467,1745203444642798398
486112,-746,-631,1309,-2713,3723,-2285,1745203444642798398
486304,-881,-673,1394,-2694,4107,-2072,1745203444642798398
486496,-1006,-709,1471,-2694,4602,-1834,1745203444642798398
486688,-1126,-736,1539,-2668,5126,-1601,1745203444701613850
486880,-1241,-752,1585,-2633,5751,-1333,1745203444701613850
487072,-1353,-754,1608,-2542,6487,-985,1745203444701613850
487264,-1468,-744,1605,-2462,7385,-685,1745203444701613850
487456,-1591,-718,1587,-2357,8354,-446,1745203444701613850
487648,-1707,-678,1555,-2237,9343,-228,1745203444701613850
487840,-1795,-632,1501,-2091,10249,-92,1745203444701613850
488032,-1826,-587,1426,-1934,11046,107,1745203444701613850
488224,-1789,-555,1333,-1775,11822,363,1745203444701613850
488416,-1705,-543,1234,-1601,12604,642,1745203444701613850
488608,-1605,-537,1148,-1415,13262,866,1745203444701613850
488800,-1530,-528,1068,-1212,13893,1064,1745203444701613850
488992,-1475,-511,987,-1094,14269,1277,1745203444760663831
489184,-1403,-476,912,-951,14526,1500,1745203444760663831
489376,-1295,-438,863,-747,14657,1646,1745203444760663831
489568,-1162,-410,834,-563,14618,1762,1745203444760663831
489760,-1024,-395,819,-362,14353,2031,1745203444760663831
489952,-869,-387,773,-147,13812,2310,1745203444760663831
490144,-699,-369,663,20,13039,2196,1745203444760663831
490336,-524,-332,505,25,12329,1923,1745203444760663831
490528,-357,-268,340,103,11576,1759,1745203444760663831
490720,-209,-175,167,99,11174,1784,1745203444760663831
490912,-113,-49,-7,-23,11086,1758,1745203444760663831
491104,-77,86,-176,-179,11276,1739,1745203444760663831
491296,-81,219,-339,-359,11569,1678,1745203444818198149
491488,-82,329,-493,-559,11820,1564,1745203444818198149
491680,-31,410,-625,-789,12040,1485,1745203444818198149
491872,81,467,-735,-1016,12129,1462,1745203444818198149
492064,212,504,-823,-1259,11991,1407,1745203444818198149
492256,324,533,-890,-1477,11562,1204,1745203444818198149
492448,404,552,-946,-1656,10894,959,1745203444818198149
492640,450,569,-990,-1841,10160,767,1745203444818198149
492832,464,588,-1021,-2010,9412,638,1745203444818198149
493024,449,609,-1041,-2162,8762,417,1745203444818198149
493216,408,637,-1057,-2347,8220,191,1745203444818198149
493408,352,673,-1072,-2524,7810,-84,1745203444818198149
493600,301,704,-1093,-2667,7508,-331,1745203444882515895
493792,270,722,-1125,-2834,7314,-597,1745203444882515895
493984,260,724,-1160,-3037,7238,-859,1745203444882515895
494176,274,714,-1195,-3260,7252,-1017,1745203444882515895
494368,301,692,-1232,-3506,7276,-1163,1745203444882515895
494560,331,664,-1264,-3765,7226,-1351,1745203444882515895
494752,361,641,-1280,-4033,7065,-1550,1745203444882515895
494944,398,622,-1276,-4256,6843,-1695,1745203444882515895
495136,435,611,-1250,-4426,6543,-1761,1745203444882515895
495328,468,604,-1208,-4562,6183,-1838,1745203444882515895
495520,499,601,-1158,-4622,5794,-1906,1745203444882515895
495712,525,600,-1103,-4630,5424,-2003,1745203444882515895
495904,541,596,-1044,-4602,5034,-2143,1745203444941561398
496096,547,580,-987,-4562,4676,-2288,1745203444941561398
496288,546,557,-928,-4496,4305,-2448,1745203444941561398
496480,531,525,-860,-4411,3995,-2566,1745203444941561398
496672,504,483,-788,-4296,3718,-2690,1745203444941561398
496864,460,434,-714,-4193,3488,-2794,1745203444941561398
497056,405,383,-639,-4090,3262,-2894,1745203444941561398
497248,352,330,-562,-4012,3082,-3009,1745203444941561398
497440,312,274,-480,-3928,2913,-3249,1745203444941561398
497632,287,215,-397,-3879,2779,-3535,1745203444941561398
497824,288,143,-311,-3902,2656,-3785,1745203444941561398
498016,314,65,-214,-3923,2558,-3937,1745203444941561398
498208,358,-11,-118,-3945,2476,-4012,1745203444996037306
498400,404,-88,-21,-3945,2406,-4057,1745203444996037306
498592,441,-162,77,-3946,2350,-4031,1745203444996037306
498784,457,-220,175,-3908,2311,-3946,1745203444996037306
498976,448,-261,277,-3911,2188,-3753,1745203444996037306
499168,415,-302,383,-3803,2147,-3809,1745203444996037306
499360,365,-353,488,-3662,2116,-3646,1745203444996037306
499552,292,-393,603,-3542,2131,-3537,1745203444996037306
499744,203,-437,732,-3407,2170,-3357,1745203444996037306
499936,94,-481,867,-3224,2289,-3154,1745203444996037306
500128,-36,-521,997,-3031,2494,-2901,1745203444996037306
500320,-183,-568,1120,-2850,2767,-2613,1745203444996037306
500512,-341,-615,1232,-2690,3095,-2361,1745203445052060440
500704,-501,-663,1329,-2596,3456,-2155,1745203445052060440
500896,-656,-710,1420,-2519,3924,-2020,1745203445052060440
501088,-799,-758,1507,-2499,4302,-1942,1745203445052060440
501280,-922,-798,1576,-2523,4715,-1841,1745203445052060440
501472,-1026,-838,1640,-2546,5147,-1697,1745203445052060440
501664,-1108,-862,1693,-2527,5723,-1406,1745203445052060440
501856,-1178,-876,1733,-2496,6396,-1067,1745203445052060440
502048,-1249,-879,1758,-2428,7176,-606,1745203445052060440
502240,-1315,-861,1764,-2358,8043,-106,1745203445052060440
502432,-1367,-828,1743,-2248,8916,353,1745203445052060440
502624,-1384,-783,1696,-2094,9752,781,1745203445052060440
502816,-1350,-739,1629,-1921,10494,1211,1745203445110535531
503008,-1274,-697,1542,-1733,11107,1703,1745203445110535531
503200,-1174,-662,1428,-1454,11719,2342,1745203445110535531
503392,-1101,-630,1293,-1202,12570,3069,1745203445110535531
503584,-1085,-605,1160,-970,13216,3421,1745203445110535531
503776,-1085,-549,1030,-650,13795,4150,1745203445110535531
503968,-1079,-441,903,-380,14263,4352,1745203445110535531
504160,-1075,-353,789,-37,14460,4504,1745203445110535531
504352,-1059,-269,679,260,14499,4581,1745203445110535531
504544,-1028,-195,605,583,14426,4337,1745203445110535531
504736,-975,-170,549,958,14107,3924,1745203445110535531
504928,-883,-168,478,1308,13647,3366,1745203445110535531
505120,-775,-186,357,1425,13145,2680,1745203445170698940
505312,-691,-198,199,1226,12930,1995,1745203445170698940
505504,-657,-173,41,853,12797,1364,1745203445170698940
505696,-665,-97,-117,369,12766,786,1745203445170698940
505888,-677,1,-276,-211,12763,382,1745203445170698940
506080,-638,119,-424,-737,12837,251,1745203445170698940
506272,-525,230,-542,-1177,12929,174,1745203445170698940
506464,-362,323,-626,-1473,12935,174,1745203445170698940
506656,-165,394,-688,-1673,12785,325,1745203445170698940
506848,51,459,-745,-1798,12402,562,1745203445170698940
507040,269,517,-799,-1917,11854,667,1745203445170698940
507232,471,569,-850,-1973,11182,653,1745203445170698940
507424,641,604,-897,-1992,10444,744,1745203445225425940
507616,761,618,-938,-1982,9726,927,1745203445225425940
507808,821,612,-979,-2026,9018,924,1745203445225425940
508000,828,601,-1021,-2199,8366,747,1745203445225425940
508192,807,604,-1062,-2426,7826,615,1745203445225425940
508384,779,625,-1101,-2675,7373,656,1745203445225425940
508576,747,649,-1133,-2928,6960,685,1745203445225425940
508768,713,673,-1158,-3185,6574,603,1745203445225425940
508960,679,696,-1175,-3410,6285,352,1745203445225425940
509152,637,710,-1176,-3604,6091,79,1745203445225425940
509344,596,714,-1170,-3787,5991,-156,1745203445225425940
509536,572,706,-1164,-3928,6002,-397,1745203445225425940
509728,557,694,-1159,-4061,6106,-584,1745203445292036373
509920,548,677,-1153,-4207,6245,-755,1745203445292036373
510112,537,658,-1144,-4306,6300,-927,1745203445292036373
510304,521,639,-1126,-4388,6168,-1110,1745203445292036373
510496,503,621,-1094,-4422,5899,-1293,1745203445292036373
510688,479,604,-1043,-4447,5502,-1456,1745203445292036373
510880,442,586,-973,-4418,4949,-1611,1745203445292036373
511072,394,563,-886,-4351,4326,-1799,1745203445292036373
511264,344,531,-785,-4242,3716,-1962,1745203445292036373
511456,296,493,-689,-4129,3251,-2169,1745203445292036373
511648,251,430,-599,-4087,2911,-2384,1745203445292036373
511840,201,354,-509,-4090,2758,-2614,1745203445292036373
512032,145,279,-436,-4069,2756,-2829,1745203445351164843
512224,82,205,-386,-4105,2856,-2958,1745203445351164843
512416,23,138,-353,-4155,3049,-3058,1745203445351164843
512608,-11,81,-324,-4222,3228,-3222,1745203445351164843
512800,0,26,-290,-4286,3417,-3435,1745203445351164843
512992,60,-33,-244,-4309,3582,-3619,1745203445351164843
513184,150,-99,-187,-4323,3675,-3719,1745203445351164843
513376,249,-168,-116,-4307,3695,-3767,1745203445351164843
513568,335,-236,-37,-4265,3620,-3743,1745203445351164843
513760,396,-298,53,-4188,3456,-3681,1745203445351164843
513952,429,-357,151,-4095,3230,-3673,1745203445351164843
514144,431,-413,259,-3984,3023,-3643,1745203445351164843
514336,399,-469,374,-3859,2808,-3559,1745203445402829163
514528,340,-526,489,-3712,2728,-3431,1745203445402829163
514720,256,-586,601,-3554,2761,-3323,1745203445402829163
514912,153,-650,710,-3432,2904,-3158,1745203445402829163
515104,44,-710,813,-3382,3138,-3003,1745203445402829163
515296,-63,-781,910,-3330,3472,-2814,1745203445402829163
515488,-157,-845,1002,-3396,3890,-2538,1745203445402829163
515680,-251,-906,1088,-3428,4408,-2529,1745203445402829163
515872,-339,-979,1160,-3478,4877,-2312,1745203445402829163
516064,-406,-1029,1224,-3583,5398,-2171,1745203445402829163
516256,-442,-1075,1272,-3713,5876,-2158,1745203445402829163
516448,-459,-1111,1312,-3861,6342,-2201,1745203445402829163
516640,-466,-1137,1342,-4041,6681,-2226,1745203445460982382
516832,-471,-1158,1366,-4239,6914,-2307,1745203445460982382
517024,-494,-1174,1385,-4426,7138,-2495,1745203445460982382
517216,-547,-1183,1401,-4618,7376,-2724,1745203445460982382
517408,-625,-1184,1414,-4786,7663,-2899,1745203445460982382
517600,-719,-1181,1421,-4916,7995,-2930,1745203445460982382
517792,-815,-1177,1421,-5010,8444,-2816,1745203445460982382
517984,-903,-1175,1414,-5033,9005,-2567,1745203445460982382
518176,-976,-1170,1397,-5010,9722,-2212,1745203445460982382
518368,-1024,-1154,1369,-4884,10545,-1789,1745203445460982382
518560,-1037,-1131,1331,-4701,11387,-1392,1745203445460982382
518752,-1001,-1102,1281,-4477,12165,-916,1745203445460982382
518944,-902,-1075,1225,-4208,12792,-352,1745203445517627281
519136,-741,-1060,1162,-3926,13231,233,1745203445517627281
519328,-524,-1052,1089,-3636,13539,556,1745203445517627281
519520,-269,-1045,1004,-3387,13772,501,1745203445517627281
519712,-5,-1033,927,-3201,13888,294,1745203445517627281
519904,260,-1022,863,-2978,13744,83,1745203445517627281
520096,522,-1029,777,-2732,13423,-154,1745203445517627281
520288,748,-1048,660,-2544,12945,-472,1745203445517627281
520480,921,-1076,554,-2257,12331,-677,1745203445517627281
520672,1032,-1117,472,-2013,11527,-659,1745203445517627281
520864,1097,-1145,432,-1794,10658,-621,1745203445517627281
521056,1121,-1178,427,-1623,9839,-637,1745203445517627281
521248,1091,-1205,427,-1496,9332,-595,1745203445577981365
521440,995,-1239,414,-1403,9096,-490,1745203445577981365
521632,830,-1278,375,-1363,9077,-266,1745203445577981365
521824,628,-1304,323,-1336,9130,51,1745203445577981365
522016,453,-1307,253,-1322,9084,399,1745203445577981365
522208,326,-1277,179,-1294,9367,702,1745203445577981365
522400,232,-1208,139,-1249,9675,793,1745203445577981365
522592,176,-1135,139,-1160,9826,813,1745203445577981365
522784,167,-1070,161,-1031,9823,803,1745203445577981365
522976,200,-1026,192,-817,9706,744,1745203445577981365
523168,261,-1011,219,-637,9482,680,1745203445577981365
523360,332,-1015,240,-519,9206,531,1745203445577981365
523552,402,-1025,252,-429,8856,320,1745203445636208125
523744,469,-1044,254,-422,8550,222,1745203445636208125
523936,536,-1053,253,-511,8319,207,1745203445636208125
524128,611,-1051,258,-656,8176,98,1745203445636208125
524320,703,-1049,268,-783,8153,-46,1745203445636208125
524512,834,-1034,279,-961,8294,-125,1745203445636208125
524704,1009,-1002,286,-1073,8556,-181,1745203445636208125
524896,1202,-979,295,-1121,8851,-12,1745203445636208125
525088,1389,-963,306,-1163,9029,159,1745203445636208125
525280,1566,-941,315,-1201,9009,202,1745203445636208125
525472,1734,-906,324,-1222,8877,177,1745203445636208125
525664,1885,-866,335,-1170,8610,208,1745203445636208125
525856,2027,-824,350,-1083,8264,185,1745203445703158555
526048,2159,-790,376,-937,7883,136,1745203445703158555
526240,2278,-767,412,-802,7538,139,1745203445703158555
526432,2384,-744,455,-748,7223,141,1745203445703158555
526624,2470,-709,500,-751,6961,58,1745203445703158555
526816,2537,-657,545,-825,6727,-112,1745203445703158555
527008,2597,-597,586,-886,6497,-334,1745203445703158555
527200,2659,-538,614,-919,6327,-610,1745203445703158555
527392,2734,-491,634,-915,6204,-757,1745203445703158555
527584,2825,-450,646,-902,6191,-814,1745203445703158555
527776,2940,-411,648,-853,6277,-854,1745203445703158555
527968,3067,-376,647,-753,6402,-906,1745203445703158555
528160,3186,-353,640,-624,6599,-888,1745203445762507179
528352,3290,-335,620,-513,6825,-886,1745203445762507179
528544,3361,-311,593,-399,7028,-939,1745203445762507179
528736,3393,-285,568,-344,7164,-1024,1745203445762507179
528928,3386,-247,554,-301,7241,-1155,1745203445762507179
529120,3354,-209,559,-221,7224,-1333,1745203445762507179
529312,3317,-168,578,-112,7207,-1416,1745203445762507179
529504,3275,-124,612,-3,7162,-1554,1745203445762507179
529696,3231,-70,646,89,7131,-1849,1745203445762507179
529888,3190,-14,679,176,7172,-2181,1745203445762507179
530080,3170,35,708,253,7267,-2502,1745203445762507179
530272,3191,77,728,312,7471,-2875,1745203445762507179
530464,3240,98,747,369,7636,-3139,1745203445811936207
530656,3314,117,762,399,7766,-3287,1745203445811936207
530848,3412,134,767,369,7813,-3339,1745203445811936207
531040,3526,154,761,343,7810,-3339,1745203445811936207
531232,3652,178,752,305,7700,-3300,1745203445811936207
531424,3783,195,735,236,7541,-3294,1745203445811936207
531616,3892,212,716,183,7271,-3403,1745203445811936207
531808,3948,241,706,113,6979,-3501,1745203445811936207
532000,3930,255,722,113,6543,-3724,1745203445811936207
532192,3851,262,748,138,5992,-3960,1745203445811936207
532384,3739,289,758,69,5516,-4197,1745203445811936207
532576,3591,311,767,133,5161,-4390,1745203445811936207
532768,3433,333,769,219,4899,-4767,1745203445870588067
532960,3299,387,762,292,4839,-4855,1745203445870588067
533152,3216,484,749,428,5199,-5025,1745203445870588067
533344,3175,570,682,557,5392,-5350,1745203445870588067
533536,3181,596,620,746,5738,-5245,1745203445870588067
533728,3229,639,600,599,6226,-5846,1745203445870588067
533920,3234,571,653,658,6497,-6435,1745203445870588067
534112,3343,492,660,930,6587,-5792,1745203445870588067
534304,3521,486,636,811,6562,-5540,1745203445870588067
534496,3657,477,617,740,6276,-5381,1745203445870588067
534688,3750,457,586,672,5713,-5336,1745203445870588067
534880,3793,447,545,532,5048,-5358,1745203445870588067
535072,3765,453,511,386,4348,-5407,1745203445934002227
535264,3656,481,502,305,3758,-5447,1745203445934002227
535456,3468,538,525,363,3260,-5572,1745203445934002227
535648,3222,600,582,287,2651,-6228,1745203445934002227
535840,3052,564,574,799,2575,-6911,1745203445934002227
536032,2824,499,618,891,2623,-6504,1745203445934002227
536224,2552,517,628,1046,2621,-6746,1745203445934002227
536416,2295,535,628,1082,2579,-6994,1745203445934002227
536608,2060,543,649,1217,2693,-6997,1745203445934002227
536800,1877,553,666,1291,2820,-7222,1745203445934002227
536992,1743,533,681,1447,3092,-7183,1745203445934002227
537184,1658,503,671,1541,3342,-7063,1745203445934002227
537376,1608,484,639,1578,3611,-7014,1745203445985747119
537376,1608,484,639,1578,3611,-7014,1745203445985747119
537760,1578,470,551,1490,3737,-6984,1745203445985747119
537952,1587,471,522,1428,3612,-7006,1745203445985747119
538144,1601,471,515,1406,3385,-7031,1745203445985747119
538336,1615,467,528,1411,3132,-7065,1745203445985747119
538528,1617,462,558,1425,2833,-7143,1745203445985747119
538720,1597,451,591,1470,2529,-7247,1745203445985747119
538912,1556,434,617,1515,2265,-7367,1745203445985747119
539104,1497,418,636,1552,2047,-7370,1745203445985747119
539296,1429,400,648,1572,1869,-7316,1745203445985747119
539488,1358,383,651,1578,1704,-7286,1745203445985747119
539680,1280,370,646,1596,1531,-7264,1745203446050548923
539872,1196,359,631,1558,1335,-7230,1745203446050548923
540064,1104,355,611,1539,1214,-7234,1745203446050548923
540256,1007,354,595,1490,1075,-7231,1745203446050548923
540448,904,357,586,1502,989,-7217,1745203446050548923
540640,797,360,581,1523,951,-7211,1745203446050548923
540832,690,363,578,1558,988,-7206,1745203446050548923
541024,585,365,581,1618,1019,-7175,1745203446050548923
541216,486,366,585,1666,1044,-7195,1745203446050548923
541408,394,362,594,1732,1135,-7219,1745203446050548923
541600,313,352,607,1800,1180,-7320,1745203446050548923
541792,238,333,615,1852,1006,-7155,1745203446050548923
541984,199,300,634,1938,844,-6859,1745203446110860143
542368,125,235,589,2131,1094,-7686,1745203446110860143
542560,-4,200,492,2072,852,-8202,1745203446110860143
542752,-166,165,419,2035,806,-8540,1745203446110860143
542944,-312,125,401,2042,1096,-8737,1745203446110860143
543136,-396,77,417,2081,1565,-8639,1745203446110860143
543328,-422,27,439,2042,2028,-8527,1745203446110860143
543520,-411,-12,451,1975,2403,-8361,1745203446110860143
543712,-368,-35,444,1817,2622,-8339,1745203446110860143
543904,-306,-51,426,1650,2695,-8377,1745203446110860143
544096,-248,-54,407,1499,2669,-8440,1745203446110860143
544288,-205,-52,390,1362,2583,-8445,1745203446110860143
544480,-179,-33,377,1235,2577,-8393,1745203446173310823
544672,-169,-24,362,1254,2574,-8363,1745203446173310823
544864,-165,-16,334,1199,2671,-8323,1745203446173310823
545056,-162,-4,313,1247,3027,-8355,1745203446173310823
545248,-144,-3,293,1355,3519,-8668,1745203446173310823
545440,-93,-6,268,1552,4181,-8916,1745203446173310823
545632,4,-26,238,1755,4807,-8873,1745203446173310823
545824,151,-48,198,1828,5117,-8668,1745203446173310823
546016,314,-60,140,1724,5032,-8613,1745203446173310823
546208,453,-66,69,1571,4605,-8539,1745203446173310823
546400,545,-57,7,1389,3996,-8493,1745203446173310823
546592,592,-37,-18,1222,3409,-8484,1745203446173310823
546784,607,-12,-6,1160,2823,-8534,1745203446231022900
546976,594,10,1,1184,2390,-8535,1745203446231022900
547168,559,31,3,1248,2060,-8466,1745203446231022900
547360,513,48,-4,1317,1794,-8414,1745203446231022900
547552,461,57,-8,1403,1609,-8371,1745203446231022900
547744,414,57,-9,1483,1481,-8317,1745203446231022900
547936,372,49,-6,1548,1383,-8252,1745203446231022900
548128,339,37,-2,1588,1277,-8189,1745203446231022900
548320,311,26,1,1587,1218,-8183,1745203446231022900
548512,286,13,4,1560,1160,-8219,1745203446231022900
548704,263,1,2,1528,1106,-8258,1745203446231022900
548896,246,-15,-5,1482,1066,-8197,1745203446231022900
549088,235,-25,-6,1398,1018,-8094,1745203446283730335
549280,231,-29,-2,1348,969,-8075,1745203446283730335
549472,234,-28,2,1287,994,-8076,1745203446283730335
549664,237,-19,7,1268,1071,-8056,1745203446283730335
549856,241,-9,12,1245,1159,-8034,1745203446283730335
550048,249,2,13,1220,1182,-7992,1745203446283730335
550240,259,14,16,1223,1188,-7966,1745203446283730335
550432,266,23,31,1188,1342,-7955,1745203446283730335
550624,277,32,62,1247,1237,-7909,1745203446283730335
550816,302,41,61,1309,1270,-7985,1745203446283730335
551008,324,50,39,1351,1449,-8037,1745203446283730335
551200,344,55,18,1388,1613,-7992,1745203446283730335
551392,373,56,8,1415,1739,-7906,1745203446348006258
551584,413,56,5,1423,1759,-7874,1745203446348006258
551776,451,59,1,1402,1740,-7879,1745203446348006258
551968,476,63,-8,1353,1606,-7906,1745203446348006258
552160,491,68,-22,1331,1457,-7899,1745203446348006258
552352,499,73,-39,1313,1313,-7918,1745203446348006258
552544,495,81,-51,1299,1198,-7935,1745203446348006258
552736,480,88,-58,1301,1089,-7972,1745203446348006258
552928,456,92,-61,1301,986,-7987,1745203446348006258
553120,427,91,-60,1316,893,-7987,1745203446348006258
553312,396,87,-57,1323,817,-7964,1745203446348006258
553504,360,79,-47,1323,757,-7933,1745203446348006258
553696,319,70,-36,1288,703,-7939,1745203446406154373
553888,273,62,-29,1270,695,-7966,1745203446406154373
554080,225,54,-24,1245,678,-8002,1745203446406154373
554272,179,46,-15,1206,709,-7982,1745203446406154373
554464,139,40,-3,1215,785,-7994,1745203446406154373
554656,106,36,8,1244,881,-8018,1745203446406154373
554848,85,30,13,1261,1038,-8061,1745203446406154373
555040,82,25,15,1283,1200,-8109,1745203446406154373
555232,93,19,15,1325,1323,-8088,1745203446406154373
555424,116,13,16,1316,1389,-8065,1745203446406154373
555616,149,6,16,1308,1411,-8029,1745203446406154373
555808,185,-3,19,1294,1391,-7962,1745203446406154373
556000,217,-7,15,1239,1304,-7901,1745203446464291133
556192,242,-8,8,1175,1185,-7843,1745203446464291133
556384,253,-1,-1,1161,1051,-7809,1745203446464291133
556576,247,8,-13,1107,922,-7770,1745203446464291133
556768,228,17,-21,1086,779,-7723,1745203446464291133
556960,199,24,-22,1094,683,-7710,1745203446464291133
557152,168,29,-18,1115,625,-7702,1745203446464291133
557344,138,33,-12,1147,633,-7698,1745203446464291133
557536,113,37,-9,1199,668,-7713,1745203446464291133
557728,97,44,-7,1240,724,-7793,1745203446464291133
557920,90,50,-6,1298,793,-7885,1745203446464291133
558112,96,53,-6,1342,859,-7946,1745203446464291133
558304,111,57,-7,1332,880,-7992,1745203446522907108
558496,132,61,-17,1367,843,-8049,1745203446522907108
558688,149,57,-37,1417,768,-8102,1745203446522907108
558880,157,52,-48,1473,710,-8122,1745203446522907108
559072,158,47,-42,1469,686,-8108,1745203446522907108
559264,158,41,-24,1455,688,-8125,1745203446522907108
559456,154,35,-7,1462,716,-8157,1745203446522907108
559648,150,30,2,1487,778,-8133,1745203446522907108
559840,153,27,7,1499,849,-8127,1745203446522907108
560032,159,25,5,1504,882,-8142,1745203446522907108
560224,162,23,0,1507,893,-8126,1745203446522907108
560416,160,21,-5,1501,855,-8102,1745203446522907108
560608,142,17,-9,1472,426,-8006,1745203446580796215
560800,87,17,-16,1409,201,-8130,1745203446580796215
560992,22,16,-11,1435,340,-7993,1745203446580796215
561184,-30,14,1,1451,539,-7913,1745203446580796215
561376,-57,6,7,1508,790,-7838,1745203446580796215
561568,-70,-1,8,1430,770,-7813,1745203446580796215
561760,-78,7,3,1247,712,-7812,1745203446580796215
561952,-87,27,-4,1051,554,-7820,1745203446580796215
562144,-104,57,-10,966,477,-7823,1745203446580796215
562336,-107,83,-5,1117,784,-7799,1745203446580796215
562528,-82,94,14,1326,1135,-7775,1745203446580796215
562720,-41,98,27,1483,1281,-7762,1745203446580796215
562912,6,99,24,1495,1223,-7790,1745203446639866509
563104,47,103,13,1417,1142,-7837,1745203446639866509
563296,82,110,9,1382,1105,-7810,1745203446639866509
563488,114,124,7,1385,1108,-7795,1745203446639866509
563680,144,141,0,1441,1091,-7777,1745203446639866509
563872,174,158,-10,1569,1055,-7765,1745203446639866509
564064,197,171,-22,1623,925,-7809,1745203446639866509
564256,210,178,-34,1555,797,-7856,1745203446639866509
564448,221,188,-42,1632,634,-7558,1745203446639866509
564640,272,265,-63,1734,903,-7690,1745203446639866509
564832,348,404,-173,2022,-312,-4722,1745203446639866509
565024,653,468,-129,219,698,-12443,1745203446639866509
565216,72,13,-18,1671,455,-7710,1745203446709249052
565408,25,10,-11,1992,397,-8089,1745203446709249052
565600,6,-71,17,2076,289,-7946,1745203446709249052
565792,-20,-82,14,1848,337,-8027,1745203446709249052
565984,-57,-111,-10,1644,492,-8016,1745203446709249052
566176,-72,-127,-30,1543,632,-7966,1745203446709249052
566368,-64,-132,-31,1472,707,-7795,1745203446709249052
566560,-6,-132,-23,1353,674,-7555,1745203446709249052
566752,125,-121,-20,1143,700,-7820,1745203446709249052
566944,67,-100,-12,1239,1077,-8541,1745203446709249052
567136,-40,-88,-3,1321,970,-7853,1745203446709249052
567328,-22,-79,-3,1372,813,-7910,1745203446709249052
567520,-5,-75,-5,1346,743,-7866,1745203446765333123
567712,9,-69,-7,1368,795,-7874,1745203446765333123
567904,18,-65,-9,1420,815,-7916,1745203446765333123
568096,27,-66,-10,1502,802,-7911,1745203446765333123
568288,35,-75,-5,1562,778,-7898,1745203446765333123
568480,40,-86,2,1544,760,-7918,1745203446765333123
568672,40,-94,6,1484,758,-7935,1745203446765333123
568864,34,-100,8,1438,715,-7967,1745203446765333123
569056,18,-108,10,1491,573,-7975,1745203446765333123
569248,3,-132,10,1593,459,-7984,1745203446765333123
569440,-46,-151,12,1695,513,-7968,1745203446765333123
569632,-85,-167,15,1637,577,-7904,1745203446765333123
571360,71,-9,19,1257,1003,-7991,1745203448122962596
621472,-100,-33,7,2033,685,-7866,1745203448122962596
621664,-48,-89,-9,1239,152,-8350,1745203448122962596
621856,-54,-113,-10,1553,617,-7933,1745203448122962596
622048,-49,-137,2,1367,714,-7975,1745203448122962596
622240,-65,-129,8,1211,670,-7939,1745203448122962596
622432,-59,-114,-1,1216,694,-7891,1745203448122962596
622624,-49,-116,-5,1211,731,-7858,1745203448122962596
622816,-47,-93,-6,1213,732,-7846,1745203448122962596
623008,-35,-88,-8,1226,737,-7824,1745203448122962596
623200,-29,-84,-12,1238,708,-7804,1745203448122962596
623392,-28,-70,-16,1210,690,-7792,1745203448122962596
623584,-23,-69,-16,1151,672,-7777,1745203448180902431
623776,-20,-60,-13,1115,737,-7802,1745203448180902431
623968,-12,-45,-11,1085,782,-7833,1745203448180902431
624160,-6,-33,-16,1072,772,-7867,1745203448180902431
624352,-6,-19,-20,1129,746,-7913,1745203448180902431
624544,-8,-10,-18,1184,749,-7969,1745203448180902431
624736,-13,-8,-13,1193,759,-8029,1745203448180902431
624928,-18,-2,-7,1179,784,-8072,1745203448180902431
625120,-27,2,-4,1151,753,-8099,1745203448180902431
625312,-40,4,-1,1177,721,-8127,1745203448180902431
625504,-55,4,6,1202,742,-8150,1745203448180902431
625696,-73,3,13,1202,784,-8176,1745203448180902431
625888,-87,5,13,1149,852,-8180,1745203448244216749
626080,-93,14,10,1078,938,-8175,1745203448244216749
626272,-89,25,6,1045,973,-8158,1745203448244216749
626464,-76,36,4,1085,1014,-8165,1745203448244216749
626656,-60,51,7,1099,1023,-8216,1745203448244216749
626848,-40,72,10,1018,1097,-8255,1745203448244216749
627040,-7,100,9,933,1254,-8245,1745203448244216749
627232,43,134,6,919,1317,-8241,1745203448244216749
627424,90,163,4,980,1149,-8280,1745203448244216749
627616,121,185,6,1148,795,-8320,1745203448244216749
627808,115,193,5,1590,473,-7882,1745203448244216749
628000,126,155,6,2140,869,-8880,1745203448244216749
628192,166,41,23,2681,1214,-8074,1745203448295715653
628384,182,-9,2,1960,415,-8467,1745203448295715653
628576,194,-45,-45,1747,149,-8497,1745203448295715653
628768,348,-85,-58,1604,126,-8620,1745203448295715653
628960,220,-177,-25,1597,486,-8445,1745203448295715653
629152,-5,-253,-5,235,-1309,-8831,1745203448295715653
629344,-1477,305,-82,-2399,-7050,-9429,1745203448295715653
629536,-1655,744,-185,-1120,-3246,-7111,1745203448295715653
629728,-1297,440,-74,1389,598,-7624,1745203448295715653
629920,-1264,348,98,2764,2285,-7588,1745203448295715653
630112,-1207,252,137,3519,2849,-7569,1745203448295715653
630304,-1074,151,43,3685,2312,-7891,1745203448295715653
630496,-980,41,-61,3372,1483,-8117,1745203448363552742
630688,-988,-41,-137,2985,556,-8524,1745203448363552742
630880,-1083,-132,-154,2345,-58,-8579,1745203448363552742
631072,-1246,-177,-147,1740,-283,-8587,1745203448363552742
631264,-1426,-193,-146,1537,-154,-8534,1745203448363552742
631456,-1585,-182,-167,1403,71,-8388,1745203448363552742
631648,-1723,-160,-183,1429,300,-8302,1745203448363552742
631840,-1835,-138,-190,1540,509,-8256,1745203448363552742
632032,-1933,-123,-191,1737,727,-8277,1745203448363552742
632224,-2025,-124,-196,1885,921,-8336,1745203448363552742
632416,-2108,-137,-212,2039,1157,-8480,1745203448363552742
632608,-2194,-160,-245,2186,1441,-8483,1745203448363552742
632800,-2288,-171,-299,2330,1737,-8394,1745203448423164854
632992,-2418,-180,-348,2404,1957,-8186,1745203448423164854
633184,-2592,-206,-389,2414,1928,-7850,1745203448423164854
633376,-2733,-251,-423,2378,1855,-7756,1745203448423164854
633568,-2847,-292,-450,2325,1825,-7667,1745203448423164854
633760,-2980,-323,-476,2249,1875,-7665,1745203448423164854
633952,-3137,-362,-510,2164,2011,-7576,1745203448423164854
634144,-3297,-397,-555,2067,2226,-7463,1745203448423164854
634336,-3437,-444,-595,1983,2427,-7443,1745203448423164854
634528,-3522,-479,-623,1932,2641,-7103,1745203448423164854
634720,-3551,-467,-649,1918,3097,-6786,1745203448423164854
634912,-3576,-436,-706,1950,3677,-6632,1745203448423164854
635104,-3625,-409,-799,2034,4195,-6427,1745203448472040501
635296,-3697,-395,-909,2107,4820,-6192,1745203448472040501
635488,-3774,-400,-1025,2087,5407,-6060,1745203448472040501
635680,-3843,-446,-1115,2052,5960,-6029,1745203448472040501
635872,-3884,-507,-1193,2208,6469,-5342,1745203448472040501
636064,-3858,-519,-1257,2018,7108,-5275,1745203448472040501
636256,-3810,-557,-1294,1880,7771,-4970,1745203448472040501
636448,-3710,-591,-1314,1684,8401,-4737,1745203448472040501
636640,-3545,-613,-1313,1404,8906,-4596,1745203448472040501
636832,-3336,-617,-1307,1131,9261,-4524,1745203448472040501
637024,-3094,-603,-1307,795,9435,-4665,1745203448472040501
637216,-2847,-588,-1311,484,9428,-4838,1745203448472040501
637408,-2610,-573,-1318,212,9228,-5014,1745203448532312815
637600,-2397,-556,-1324,28,8914,-5184,1745203448532312815
637792,-2217,-536,-1326,-102,8532,-5351,1745203448532312815
637984,-2081,-516,-1322,-146,8086,-5474,1745203448532312815
638176,-1989,-498,-1319,-174,7662,-5569,1745203448532312815
638368,-1945,-483,-1317,-150,7301,-5625,1745203448532312815
638560,-1943,-473,-1317,-118,7022,-5633,1745203448532312815
638752,-1975,-464,-1323,-124,6853,-5647,1745203448532312815
638944,-2030,-457,-1334,-133,6785,-5660,1745203448532312815
639136,-2102,-452,-1345,-194,6789,-5597,1745203448532312815
639328,-2183,-450,-1356,-257,6773,-5468,1745203448532312815
639520,-2268,-450,-1371,-370,6786,-5326,1745203448532312815
639712,-2349,-449,-1378,-542,6825,-5157,1745203448591430608
639904,-2421,-440,-1378,-755,6881,-4941,1745203448591430608
640096,-2484,-421,-1377,-991,6999,-4771,1745203448591430608
640288,-2541,-394,-1379,-1229,7169,-4628,1745203448591430608
640480,-2593,-362,-1388,-1437,7404,-4460,1745203448591430608
640672,-2636,-326,-1404,-1588,7651,-4265,1745203448591430608
640864,-2668,-288,-1422,-1657,7935,-4067,1745203448591430608
641056,-2692,-247,-1438,-1725,8190,-3887,1745203448591430608
641248,-2714,-208,-1453,-1726,8415,-3755,1745203448591430608
641440,-2741,-173,-1463,-1700,8538,-3614,1745203448591430608
641632,-2767,-143,-1466,-1671,8520,-3500,1745203448591430608
641824,-2792,-123,-1460,-1653,8416,-3374,1745203448591430608
642016,-2825,-116,-1440,-1669,8286,-3261,1745203448646609375
642208,-2882,-124,-1407,-1653,8159,-3092,1745203448646609375
642400,-2961,-127,-1388,-1701,7963,-2915,1745203448646609375
642592,-3073,-121,-1379,-1758,7811,-2895,1745203448646609375
642784,-3222,-132,-1369,-1870,7643,-3024,1745203448646609375
642976,-3417,-213,-1346,-2424,7448,-3570,1745203448646609375
643168,-3637,-430,-1280,-1688,7320,-1871,1745203448646609375
643360,-3466,-320,-1371,-1448,7892,-521,1745203448646609375
643552,-3369,69,-1465,-2253,7659,-922,1745203448646609375
643744,-3323,196,-1467,-2653,8424,-1590,1745203448646609375
643936,-3351,196,-1455,-2856,8568,-1287,1745203448646609375
644128,-3315,241,-1461,-3258,9063,-1007,1745203448646609375
644320,-3322,257,-1442,-3063,9102,-599,1745203448706686743
644512,-3288,316,-1471,-3008,9259,-314,1745203448706686743
644704,-3231,376,-1516,-3149,9347,-522,1745203448706686743
644896,-3199,387,-1547,-3178,9286,-668,1745203448706686743
645088,-3182,373,-1563,-2718,9349,416,1745203448706686743
645280,-3120,539,-1599,-2862,9194,337,1745203448706686743
645472,-3091,651,-1613,-2902,9168,207,1745203448706686743
645664,-3072,676,-1614,-2872,9237,401,1745203448706686743
645856,-3064,724,-1618,-2828,9299,643,1745203448706686743
646048,-3065,771,-1634,-2821,9383,733,1745203448706686743
646240,-3056,808,-1657,-2829,9506,809,1745203448706686743
646432,-3020,856,-1682,-2860,9689,970,1745203448706686743
646624,-2962,899,-1710,-2866,9958,1285,1745203448775660175
646816,-2893,937,-1745,-2860,10220,1507,1745203448775660175
647008,-2823,982,-1787,-2918,10412,1459,1745203448775660175
647200,-2733,1040,-1827,-3002,10505,1210,1745203448775660175
647392,-2606,1104,-1857,-3066,10459,959,1745203448775660175
647584,-2449,1152,-1874,-3139,10278,762,1745203448775660175
647776,-2271,1179,-1879,-3246,9979,451,1745203448775660175
647968,-2096,1188,-1878,-3394,9611,94,1745203448775660175
648160,-1931,1189,-1873,-3583,9201,-281,1745203448775660175
648352,-1784,1192,-1865,-3758,8798,-404,1745203448775660175
648544,-1655,1196,-1859,-3909,8476,-327,1745203448775660175
648736,-1553,1204,-1867,-4072,8281,-379,1745203448775660175
648928,-1486,1222,-1892,-4255,8199,-605,1745203448821514808
649120,-1451,1263,-1917,-4409,8085,-840,1745203448821514808
649312,-1407,1321,-1932,-4487,7950,-887,1745203448821514808
649504,-1340,1371,-1935,-4422,7869,-773,1745203448821514808
649696,-1271,1402,-1934,-4370,7839,-682,1745203448821514808
649888,-1218,1423,-1933,-4273,7721,-590,1745203448821514808
650080,-1152,1445,-1935,-4183,7481,-512,1745203448821514808
650272,-1059,1465,-1940,-4134,7187,-447,1745203448821514808
650464,-947,1475,-1942,-4084,6867,-474,1745203448821514808
650656,-844,1464,-1943,-4055,6542,-448,1745203448821514808
650848,-759,1442,-1940,-4019,6221,-348,1745203448821514808
651040,-700,1415,-1938,-4026,5919,-326,1745203448821514808
651232,-668,1383,-1935,-4049,5636,-256,1745203448884879334
651424,-653,1352,-1926,-4111,5406,-316,1745203448884879334
651616,-640,1316,-1909,-4293,5295,-497,1745203448884879334
651808,-632,1286,-1886,-4546,5312,-736,1745203448884879334
652000,-648,1265,-1858,-4717,5296,-938,1745203448884879334
652192,-679,1241,-1826,-4827,5178,-1014,1745203448884879334
652384,-701,1223,-1791,-4850,4984,-990,1745203448884879334
652576,-710,1206,-1743,-4946,4663,-1147,1745203448884879334
652768,-692,1165,-1666,-5086,4263,-1514,1745203448884879334
652960,-668,1129,-1562,-5161,3811,-1823,1745203448884879334
653152,-648,1093,-1451,-5103,3383,-2046,1745203448884879334
653344,-635,1058,-1350,-5068,2975,-2128,1745203448884879334
653536,-617,1009,-1257,-5058,2625,-2111,1745203448942778440
653728,-588,950,-1170,-5068,2356,-2191,1745203448942778440
653920,-555,886,-1101,-5075,2152,-2267,1745203448942778440
654112,-522,813,-1041,-5095,2011,-2313,1745203448942778440
654304,-491,735,-976,-5186,1891,-2438,1745203448942778440
654496,-474,651,-906,-5218,1777,-2602,1745203448942778440
654688,-466,585,-827,-5296,1668,-2736,1745203448942778440
654880,-461,530,-737,-5394,1549,-2971,1745203448942778440
655072,-458,469,-638,-5473,1429,-3094,1745203448942778440
655264,-451,414,-525,-5515,1320,-3245,1745203448942778440
655456,-434,357,-405,-5535,1294,-3394,1745203448942778440
655648,-413,297,-305,-5497,1386,-3458,1745203448942778440
655840,-396,234,-213,-5404,1576,-3440,1745203449004060068
656032,-383,159,-120,-5264,1824,-3326,1745203449004060068
656224,-366,81,-26,-5127,2146,-3142,1745203449004060068
656416,-345,2,66,-4960,2448,-2997,1745203449004060068
656608,-338,-83,150,-4823,2737,-2686,1745203449004060068
656800,-317,-169,232,-4720,3017,-2422,1745203449004060068
656992,-287,-251,303,-4687,3277,-2228,1745203449004060068
657184,-245,-332,366,-4733,3527,-2004,1745203449004060068
657376,-190,-405,423,-4831,3785,-1773,1745203449004060068
657568,-124,-466,474,-4934,4074,-1519,1745203449004060068
657760,-57,-522,518,-5015,4399,-1113,1745203449004060068
657952,5,-568,556,-5035,4781,-575,1745203449004060068
658144,54,-599,581,-4980,5225,9,1745203449064797378
658336,88,-615,592,-4945,5705,576,1745203449064797378
658528,114,-607,588,-4910,6299,1147,1745203449064797378
658720,139,-575,566,-4900,6893,1579,1745203449064797378
658912,164,-532,534,-4891,7475,1972,1745203449064797378
659104,197,-487,494,-4886,8016,2468,1745203449064797378
659296,237,-436,442,-4828,8553,2953,1745203449064797378
659488,262,-375,374,-4763,9010,3356,1745203449064797378
659680,272,-295,291,-4735,9368,3541,1745203449064797378
659872,261,-191,199,-4765,9565,3445,1745203449064797378
660064,239,-68,101,-4767,9548,3233,1745203449064797378
660256,210,63,7,-4720,9422,3011,1745203449064797378
660448,173,184,-86,-4625,9269,2842,1745203449116616071
660640,144,289,-180,-4506,9190,2761,1745203449116616071
660832,118,376,-276,-4454,9168,2678,1745203449116616071
661024,97,445,-369,-4400,9077,2498,1745203449116616071
661216,98,487,-453,-4483,9020,2686,1745203449116616071
661408,131,539,-542,-4683,8907,2659,1745203449116616071
661600,187,550,-632,-4985,8777,2812,1745203449116616071
661792,259,573,-725,-5342,8527,3018,1745203449116616071
661984,335,596,-814,-5734,8163,3066,1745203449116616071
