timestamp,gyr_x,gyr_y,gyr_z,acc_x,acc_y,acc_z,pkt_time_ns
239009,153,-284,27,3776,-121,-6947,1745225836908629273
239201,12,-15,13,3991,-81,-7387,1745225836908629273
239393,18,-53,8,3942,-367,-7317,1745225836908629273
239585,-19,-71,8,3907,-662,-7429,1745225836908629273
239777,-67,-39,9,3873,-549,-7440,1745225836908629273
239969,-68,-55,9,3897,-159,-7409,1745225836908629273
240161,-68,-50,-2,3882,235,-7600,1745225836908629273
240353,-42,-29,-8,3811,341,-7628,1745225836908629273
240545,-5,-33,-10,3723,88,-7724,1745225836908629273
240929,30,32,7,3599,-636,-7330,1745225836908629273
241121,14,45,3,3753,-834,-7466,1745225836908629273
241313,10,65,16,3895,-476,-7525,1745225836908629273
241505,46,79,22,3718,-80,-7619,1745225836965304067
241697,73,76,11,3493,-81,-7608,1745225836965304067
241889,107,82,11,3526,-291,-7385,1745225836965304067
242081,121,82,10,3627,-693,-7153,1745225836965304067
242273,111,86,9,3778,-730,-6948,1745225836965304067
242465,95,92,8,3884,-470,-6976,1745225836965304067
242657,87,88,12,3851,-221,-6966,1745225836965304067
242849,95,89,11,3823,-137,-7118,1745225836965304067
243041,102,77,10,3846,-368,-6565,1745225836965304067
243233,6,109,1,3831,-205,-8058,1745225836965304067
243425,141,68,-4,3923,-99,-6968,1745225836965304067
243617,112,120,-14,3738,-123,-7317,1745225836965304067
243809,123,134,-15,3664,-10,-7069,1745225837025292842
244001,131,122,-22,3646,-72,-6823,1745225837025292842
244193,145,103,-10,3913,-167,-6859,1745225837025292842
244385,155,92,-11,4091,-255,-6881,1745225837025292842
244577,128,65,-7,4069,-415,-6973,1745225837025292842
244769,95,48,3,3976,-522,-7046,1745225837025292842
244961,73,31,5,3845,-518,-7095,1745225837025292842
245153,66,25,2,3814,-336,-6968,1745225837025292842
245345,67,22,-10,3786,-284,-7058,1745225837025292842
245537,58,23,1,3807,-458,-6857,1745225837025292842
245729,67,23,15,3984,-659,-6705,1745225837025292842
245921,78,16,10,4077,-756,-6817,1745225837025292842
246113,71,2,11,3992,-772,-6967,1745225837081734618
246305,51,-10,17,3810,-697,-7164,1745225837081734618
246497,48,-15,21,3722,-523,-7093,1745225837081734618
246689,62,-19,4,3780,-370,-7220,1745225837081734618
246881,70,-23,-9,3785,-337,-7243,1745225837081734618
247073,68,-26,-1,3764,-482,-7320,1745225837081734618
247265,75,-23,14,3776,-645,-7176,1745225837081734618
247457,103,-15,12,3897,-674,-7065,1745225837081734618
247649,116,-12,-1,3854,-703,-7219,1745225837081734618
247841,89,-16,6,3718,-700,-7242,1745225837081734618
248033,90,-9,20,3713,-534,-7236,1745225837081734618
248225,103,-17,3,3721,-389,-7176,1745225837081734618
248417,110,-17,-13,3712,-378,-7262,1745225837142033755
248609,95,-15,-4,3584,-522,-7112,1745225837142033755
248801,94,3,16,3646,-712,-6872,1745225837142033755
248993,126,14,2,3897,-710,-6990,1745225837142033755
249185,127,18,-21,3921,-718,-7095,1745225837142033755
249377,70,7,-8,3727,-907,-7321,1745225837142033755
249569,50,9,7,3728,-859,-7319,1745225837142033755
249761,49,-5,-11,3983,-626,-7338,1745225837142033755
249953,35,-22,-36,4007,-363,-7611,1745225837142033755
250145,4,-28,-20,3681,-360,-7490,1745225837142033755
250337,17,-12,3,3558,-511,-7253,1745225837142033755
250529,53,-3,-10,3712,-644,-7103,1745225837142033755
250721,64,4,-27,3899,-636,-6945,1745225837199287815
250913,40,9,-26,3918,-602,-7369,1745225837199287815
251105,-5,-1,-11,3699,-480,-7289,1745225837199287815
251297,1,0,-7,3760,-283,-7585,1745225837199287815
251489,12,-17,-30,3824,-126,-7202,1745225837199287815
251681,19,-21,-48,3987,-101,-7487,1745225837199287815
251873,-3,-31,-45,3744,-234,-7370,1745225837199287815
252065,-14,-23,-29,3696,-347,-7382,1745225837199287815
252257,9,-22,-36,3761,-365,-7250,1745225837199287815
252449,27,-20,-52,3980,-356,-7198,1745225837199287815
252641,15,-23,-63,3954,-301,-7402,1745225837199287815
252833,-24,-26,-53,3743,-256,-7437,1745225837199287815
253025,-29,-18,-40,3677,-205,-7341,1745225837260703400
253217,0,-12,-51,3869,-214,-7093,1745225837260703400
253409,27,-5,-61,4048,-406,-6820,1745225837260703400
253601,14,2,-57,4052,-609,-6840,1745225837260703400
253793,-16,7,-42,3920,-627,-6889,1745225837260703400
253985,-24,12,-35,3962,-556,-6971,1745225837260703400
254177,-14,6,-42,4110,-510,-7088,1745225837260703400
254369,-11,-2,-43,4116,-464,-7161,1745225837260703400
254561,-33,-10,-38,3892,-432,-7311,1745225837260703400
254753,-43,-7,-31,3714,-351,-7211,1745225837260703400
254945,-19,0,-41,3793,-298,-7210,1745225837260703400
255137,8,2,-54,3961,-403,-7151,1745225837260703400
255329,14,3,-53,4000,-576,-7261,1745225837315076028
255521,2,-2,-42,3810,-681,-7337,1745225837315076028
255713,4,5,-34,3687,-689,-7197,1745225837315076028
255905,8,5,-52,3727,-598,-7243,1745225837315076028
256097,-2,1,-67,3804,-447,-7165,1745225837315076028
256289,-2,2,-66,3856,-273,-7213,1745225837315076028
256481,2,0,-64,3799,-271,-7157,1745225837315076028
256673,12,6,-63,3787,-383,-7214,1745225837315076028
256865,10,3,-61,3899,-575,-7156,1745225837315076028
257057,2,1,-52,3991,-727,-7053,1745225837315076028
257249,-16,4,-49,3931,-760,-7107,1745225837315076028
257441,-38,6,-46,3806,-706,-7116,1745225837315076028
257633,-48,12,-46,3718,-616,-7208,1745225837375588601
257825,-52,15,-48,3712,-569,-7225,1745225837375588601
258017,-52,21,-43,3752,-617,-7184,1745225837375588601
258209,-50,31,-39,3793,-665,-7110,1745225837375588601
258401,-52,39,-39,3802,-635,-7047,1745225837375588601
258593,-58,48,-41,3789,-636,-7083,1745225837375588601
258785,-70,53,-40,3832,-629,-7079,1745225837375588601
258977,-72,56,-37,3922,-608,-7194,1745225837375588601
259169,-79,53,-36,3959,-642,-7269,1745225837375588601
259361,-85,56,-28,3922,-672,-7225,1745225837375588601
259553,-90,62,-27,3840,-589,-7177,1745225837375588601
259745,-94,69,-33,3780,-490,-7117,1745225837375588601
259937,-96,76,-42,3846,-366,-7191,1745225837445575045
260129,-99,70,-49,3940,-262,-7296,1745225837445575045
260321,-100,66,-40,3956,-286,-7338,1745225837445575045
260513,-96,67,-26,3938,-439,-7367,1745225837445575045
260705,-90,73,-18,3891,-532,-7253,1745225837445575045
260897,-89,82,-19,3904,-521,-7201,1745225837445575045
261089,-102,88,-23,3927,-407,-7222,1745225837445575045
261281,-116,98,-22,3969,-229,-7082,1745225837445575045
261473,-121,105,-29,4025,24,-7133,1745225837445575045
261665,-121,102,-36,4108,266,-7176,1745225837445575045
261857,-119,90,-36,4104,343,-7311,1745225837445575045
262049,-126,80,-25,4010,231,-7277,1745225837445575045
262241,-122,79,-16,3906,95,-7189,1745225837490729788
262433,-115,80,-19,3832,17,-7128,1745225837490729788
262625,-115,85,-20,3871,-18,-7045,1745225837490729788
262817,-125,90,-20,3901,34,-6987,1745225837490729788
263009,-127,93,-24,4000,155,-7072,1745225837490729788
263201,-125,88,-44,4044,359,-7157,1745225837490729788
263393,-129,86,-55,4010,457,-7411,1745225837490729788
263585,-132,82,-43,3932,382,-7387,1745225837490729788
263777,-111,91,-17,3933,79,-7375,1745225837490729788
263969,-92,98,-1,3850,-318,-7144,1745225837490729788
264161,-77,112,6,3891,-542,-7074,1745225837490729788
264353,-74,120,-2,3907,-451,-6869,1745225837490729788
264545,-81,127,-20,3924,-212,-7044,1745225837550981478
264737,-99,118,-29,3810,10,-7096,1745225837550981478
264929,-94,110,-13,3865,31,-7142,1745225837550981478
265121,-52,87,3,4038,-189,-7161,1745225837550981478
265313,-22,55,5,4099,-511,-7084,1745225837550981478
265505,-18,34,8,3978,-742,-6842,1745225837550981478
265697,-37,22,8,3775,-803,-6724,1745225837550981478
265889,-63,18,11,3655,-729,-6597,1745225837550981478
266081,-57,15,5,3833,-538,-6594,1745225837550981478
266273,-38,-2,-22,4084,-293,-6687,1745225837550981478
266465,-40,-19,-45,4131,-85,-6858,1745225837550981478
266657,-72,-43,-39,3981,-96,-7067,1745225837550981478
266849,-81,-66,-2,3920,-385,-6916,1745225837608349756
267041,-37,-83,14,4059,-702,-6732,1745225837608349756
267233,0,-90,-11,4087,-839,-6632,1745225837608349756
267425,-34,-86,-43,3935,-780,-6991,1745225837608349756
267617,-109,-87,-37,3796,-515,-7208,1745225837608349756
267809,-110,-93,-15,3968,-53,-7223,1745225837608349756
268001,-31,-100,-36,4156,374,-7231,1745225837608349756
268193,-7,-115,-80,4055,384,-7637,1745225837608349756
268385,-37,-129,-63,3767,7,-7820,1745225837608349756
268577,-26,-135,-8,3631,-432,-7743,1745225837608349756
268769,47,-121,12,3703,-694,-7278,1745225837608349756
268961,80,-91,-28,3669,-894,-7193,1745225837608349756
269153,13,-56,-46,3513,-993,-7043,1745225837667924055
269345,-65,-29,-25,3612,-845,-7335,1745225837667924055
269537,-74,-22,-11,3962,-334,-7370,1745225837667924055
269729,-48,-42,-30,4253,-158,-7590,1745225837667924055
269921,-88,-57,-29,4125,-562,-7525,1745225837667924055
270113,-128,-44,10,3791,-893,-7484,1745225837667924055
270305,-130,-19,29,3572,-1000,-7672,1745225837667924055
270497,-161,12,9,3466,-1067,-7860,1745225837667924055
270689,-219,65,-1,3465,-1084,-8113,1745225837667924055
270881,-254,127,15,3398,-739,-8010,1745225837667924055
271073,-230,212,26,3427,-216,-8283,1745225837667924055
271265,-216,274,1,3431,45,-8781,1745225837667924055
271457,-234,338,-11,3343,-102,-9198,1745225837724366144
271649,-207,433,5,3406,-470,-9159,1745225837724366144
271841,-147,524,7,3378,-812,-8700,1745225837724366144
272033,-110,593,0,3659,-696,-8498,1745225837724366144
272225,-102,649,-9,3765,-329,-8239,1745225837724366144
272417,-76,695,-1,3970,259,-7742,1745225837724366144
272609,10,720,-6,4080,766,-7272,1745225837724366144
272801,83,731,-26,4018,839,-7281,1745225837724366144
272993,133,716,-20,4011,909,-7037,1745225837724366144
273185,231,726,17,3907,877,-7279,1745225837724366144
273377,492,865,49,3346,1349,-5584,1745225837724366144
273569,1074,1091,-24,3273,1891,-5359,1745225837724366144
273761,1254,1040,-233,2862,1064,-6839,1745225837782460509
273953,987,975,-181,3032,-410,-7001,1745225837782460509
274145,759,958,61,4316,-951,-6781,1745225837782460509
274337,639,895,136,5470,-750,-6448,1745225837782460509
274529,581,804,34,5817,-773,-6261,1745225837782460509
274721,581,706,-61,5424,-1103,-6374,1745225837782460509
274913,568,611,-99,4687,-1250,-6630,1745225837782460509
275105,493,569,-95,4051,-892,-6696,1745225837782460509
275297,423,573,-82,3882,-187,-6456,1745225837782460509
275489,394,557,-88,4204,393,-6442,1745225837782460509
275681,367,518,-98,4509,551,-6381,1745225837782460509
275873,332,481,-74,4713,342,-6259,1745225837782460509
276065,324,452,-29,4894,78,-6050,1745225837842967404
276257,340,419,8,5043,-217,-6099,1745225837842967404
276449,321,381,21,4959,-527,-5869,1745225837842967404
276641,266,355,39,4832,-794,-5847,1745225837842967404
276833,241,343,58,4857,-657,-5980,1745225837842967404
277025,238,328,54,5023,-245,-6225,1745225837842967404
277217,209,296,37,5012,34,-6122,1745225837842967404
277409,160,266,56,4906,6,-6050,1745225837842967404
277601,125,225,104,5014,-234,-6192,1745225837842967404
277793,130,183,140,5191,-579,-6071,1745225837842967404
277985,160,152,147,5155,-902,-5822,1745225837842967404
278177,147,125,143,4920,-1209,-5810,1745225837842967404
278369,109,105,138,4947,-1265,-6151,1745225837899425118
278561,91,77,117,5071,-1052,-6308,1745225837899425118
278753,67,47,81,4997,-637,-6234,1745225837899425118
278945,28,22,72,4810,-379,-6054,1745225837899425118
279137,25,-9,95,4908,-357,-6064,1745225837899425118
279329,73,-46,100,5077,-619,-6126,1745225837899425118
279521,115,-64,82,4949,-988,-6144,1745225837899425118
279713,115,-51,72,4595,-1224,-6084,1745225837899425118
279905,134,-20,73,4457,-1157,-6185,1745225837899425118
280097,180,-10,46,4806,-911,-6454,1745225837899425118
280289,217,-18,2,5048,-736,-6392,1745225837899425118
280481,221,-23,-13,5015,-658,-6453,1745225837899425118
280673,226,-38,7,4726,-726,-6433,1745225837959984043
280865,261,-50,28,4683,-934,-6576,1745225837959984043
281057,303,-64,27,4750,-1160,-6455,1745225837959984043
281249,312,-63,13,4738,-1225,-6331,1745225837959984043
281441,278,-67,1,4603,-1158,-6311,1745225837959984043
281633,228,-75,5,4510,-1110,-6503,1745225837959984043
281825,203,-89,19,4697,-1095,-6731,1745225837959984043
282017,190,-105,22,4719,-1103,-6691,1745225837959984043
282209,159,-103,22,4559,-1098,-6555,1745225837959984043
282401,120,-102,31,4426,-1147,-6483,1745225837959984043
282593,92,-102,49,4423,-1165,-6511,1745225837959984043
282785,83,-109,59,4717,-1072,-6628,1745225837959984043
282977,89,-118,49,4869,-902,-6734,1745225838016782118
283169,63,-123,40,4712,-758,-6907,1745225838016782118
283361,9,-124,56,4481,-703,-6920,1745225838016782118
283553,-11,-123,86,4491,-759,-6871,1745225838016782118
283745,11,-114,101,4629,-824,-6798,1745225838016782118
283937,63,-100,96,4697,-839,-6723,1745225838016782118
284129,85,-89,74,4631,-884,-6903,1745225838016782118
284321,73,-81,68,4611,-929,-6976,1745225838016782118
284513,56,-74,84,4658,-972,-7007,1745225838016782118
284705,49,-63,99,4746,-935,-6946,1745225838016782118
284897,43,-49,96,4720,-826,-6955,1745225838016782118
285089,28,-39,90,4598,-690,-6965,1745225838016782118
285281,19,-26,99,4478,-604,-6924,1745225838076775216
285473,8,-14,111,4470,-593,-6879,1745225838076775216
285665,2,-1,113,4590,-581,-6763,1745225838076775216
285857,3,10,103,4659,-456,-6649,1745225838076775216
286049,1,18,98,4719,-347,-6679,1745225838076775216
286241,-9,7,94,4846,-416,-6778,1745225838076775216
286433,-9,-8,91,4897,-542,-6759,1745225838076775216
286625,0,-11,80,4737,-446,-6734,1745225838076775216
286817,2,-14,69,4539,-228,-6630,1745225838076775216
287009,10,-18,59,4448,-86,-6501,1745225838076775216
287201,22,-27,50,4556,-49,-6465,1745225838076775216
287393,33,-45,48,4744,-142,-6411,1745225838076775216
287585,19,-75,57,4850,-352,-6502,1745225838134392919
287777,4,-105,87,4873,-569,-6396,1745225838134392919
287969,-2,-134,114,4763,-851,-6401,1745225838134392919
288161,-28,-145,125,4636,-1182,-6624,1745225838134392919
288353,-71,-140,120,4535,-1488,-6873,1745225838134392919
288545,-117,-108,108,4450,-1558,-7078,1745225838134392919
288737,-145,-65,108,4491,-1293,-7090,1745225838134392919
288929,-159,-35,104,4700,-937,-7356,1745225838134392919
289121,-137,-24,97,4817,-644,-7375,1745225838134392919
289313,-91,-13,103,4744,-595,-7343,1745225838134392919
289505,-46,6,114,4559,-669,-7222,1745225838134392919
289697,-1,32,117,4476,-797,-7123,1745225838134392919
289889,28,50,110,4643,-976,-6953,1745225838194129405
290081,37,61,100,4772,-1081,-6791,1745225838194129405
290273,36,64,98,4805,-954,-6623,1745225838194129405
290465,45,59,100,4799,-776,-6364,1745225838194129405
290657,56,48,92,4726,-817,-6146,1745225838194129405
290849,66,45,82,4694,-1028,-6024,1745225838194129405
291041,89,39,73,4624,-1149,-6002,1745225838194129405
291233,98,25,59,4642,-1138,-6098,1745225838194129405
291425,86,2,44,4786,-1010,-6326,1745225838194129405
291617,61,-31,30,4856,-877,-6530,1745225838194129405
291809,28,-49,30,4697,-923,-6501,1745225838194129405
292001,12,-46,44,4461,-1110,-6477,1745225838194129405
292193,18,-23,58,4370,-1295,-6562,1745225838250360505
292385,45,5,53,4586,-1358,-6938,1745225838250360505
292577,90,26,40,4792,-1190,-7050,1745225838250360505
292769,101,56,28,4695,-1053,-7132,1745225838250360505
292961,83,83,29,4376,-1062,-7108,1745225838250360505
293153,91,110,37,4315,-1149,-7093,1745225838250360505
293345,146,135,35,4606,-1283,-6969,1745225838250360505
293537,195,154,25,4679,-1411,-6674,1745225838250360505
293729,186,159,27,4551,-1550,-6671,1745225838250360505
293921,160,142,43,4464,-1679,-6466,1745225838250360505
294113,170,125,47,4727,-1675,-6476,1745225838250360505
294305,190,109,20,4810,-1576,-6240,1745225838250360505
294497,145,114,-11,4454,-1725,-6278,1745225838308660546
294689,64,129,-13,4166,-1672,-6149,1745225838308660546
294881,46,135,4,4530,-1271,-6144,1745225838308660546
295073,88,129,-5,5050,-898,-6104,1745225838308660546
295265,117,95,-30,5115,-861,-6337,1745225838308660546
295457,99,58,-23,4768,-1089,-6587,1745225838308660546
295649,84,45,-3,4514,-1126,-6591,1745225838308660546
295841,94,62,-20,4458,-1094,-6781,1745225838308660546
296033,80,73,-47,4474,-1075,-6747,1745225838308660546
296225,60,99,-41,4764,-1064,-6872,1745225838308660546
296417,64,112,-40,5048,-930,-6733,1745225838308660546
296609,75,129,-56,4945,-883,-7046,1745225838308660546
296801,75,134,-56,4756,-916,-7234,1745225838367867713
296993,89,148,-44,4769,-1002,-7214,1745225838367867713
297185,115,177,-51,4773,-1126,-7358,1745225838367867713
297377,118,196,-59,4590,-1181,-7241,1745225838367867713
297569,112,228,-55,4456,-1132,-7061,1745225838367867713
297761,124,268,-61,4584,-1018,-6805,1745225838367867713
297953,151,301,-76,4768,-1084,-6859,1745225838367867713
298145,146,299,-80,4808,-1215,-6981,1745225838367867713
298337,137,301,-76,4913,-1118,-6766,1745225838367867713
298529,146,297,-91,4965,-922,-6567,1745225838367867713
298721,142,281,-110,4974,-870,-6925,1745225838367867713
298913,130,246,-115,4866,-793,-6492,1745225838367867713
299105,149,262,-114,4793,-652,-6171,1745225838427763833
299297,166,263,-127,4888,-664,-6283,1745225838427763833
299489,185,249,-138,4965,-778,-6108,1745225838427763833
299681,215,252,-148,4927,-950,-6206,1745225838427763833
299873,193,255,-137,4952,-1153,-6505,1745225838427763833
300065,178,244,-121,5138,-1289,-6585,1745225838427763833
300257,196,229,-127,5118,-1296,-6417,1745225838427763833
300449,194,238,-132,4878,-1333,-6328,1745225838427763833
300641,195,238,-126,4882,-1308,-6475,1745225838427763833
300833,212,237,-129,4879,-1241,-6382,1745225838427763833
301025,216,247,-131,4804,-1244,-6403,1745225838427763833
301217,221,246,-125,4906,-1225,-6548,1745225838427763833
301409,242,217,-131,5021,-1205,-6447,1745225838483960455
301601,241,200,-136,4866,-1306,-6474,1745225838483960455
301793,215,192,-127,4743,-1419,-6468,1745225838483960455
301985,205,188,-125,4738,-1400,-6399,1745225838483960455
302177,207,200,-132,4640,-1413,-6423,1745225838483960455
302369,190,233,-123,4304,-1616,-6446,1745225838483960455
302561,190,246,-114,4937,-1461,-6471,1745225838483960455
302753,217,247,-134,5267,-1223,-6491,1745225838483960455
302945,230,236,-141,5071,-1113,-6472,1745225838483960455
303137,239,218,-124,4798,-1204,-6419,1745225838483960455
303329,268,215,-109,4715,-1249,-6260,1745225838483960455
303521,315,227,-107,4718,-1236,-6042,1745225838483960455
303713,334,215,-108,4879,-1351,-6202,1745225838544602036
303905,325,179,-93,5064,-1488,-6110,1745225838544602036
304097,313,146,-83,5129,-1595,-6022,1745225838544602036
304289,279,110,-89,5007,-1591,-6096,1745225838544602036
304481,232,84,-84,4818,-1433,-5918,1745225838544602036
304673,196,82,-73,4703,-1280,-5865,1745225838544602036
304865,187,93,-68,4736,-1159,-6013,1745225838544602036
305057,179,100,-62,4743,-1274,-6189,1745225838544602036
305249,151,70,-43,5033,-1451,-6070,1745225838544602036
305441,151,67,-30,5201,-1261,-6223,1745225838544602036
305633,144,57,-37,5059,-948,-6357,1745225838544602036
305825,135,41,-20,4804,-787,-6088,1745225838544602036
306017,158,45,16,4816,-814,-5933,1745225838601104906
306209,210,46,20,5000,-809,-6185,1745225838601104906
306401,201,36,8,4985,-946,-6427,1745225838601104906
306593,138,27,41,4957,-1107,-6413,1745225838601104906
306785,126,17,78,5173,-1077,-6421,1745225838601104906
306977,151,1,65,5282,-1132,-6554,1745225838601104906
307169,118,-15,51,5015,-1415,-6451,1745225838601104906
307361,74,-9,73,4874,-1691,-6250,1745225838601104906
307553,81,-4,75,5032,-1632,-6324,1745225838601104906
307745,90,9,46,5066,-1525,-6772,1745225838601104906
307937,23,37,42,4813,-1508,-6672,1745225838601104906
308129,-8,80,80,4888,-1285,-6389,1745225838601104906
308321,71,110,62,5159,-857,-6482,1745225838661317428
308513,145,116,6,5041,-767,-6637,1745225838661317428
308705,140,139,40,4901,-989,-6296,1745225838661317428
308897,154,146,86,5384,-1332,-6205,1745225838661317428
309089,195,111,56,5924,-1862,-6356,1745225838661317428
309281,204,86,0,5687,-2023,-6555,1745225838661317428
309473,157,87,-19,4876,-1481,-6247,1745225838661317428
309665,130,93,-23,4710,-839,-6028,1745225838661317428
309857,169,57,-30,5174,-788,-5798,1745225838661317428
310049,217,9,-43,5624,-1132,-5732,1745225838661317428
310241,205,-39,-49,5458,-1509,-5657,1745225838661317428
310433,156,-75,-42,5093,-1755,-5633,1745225838661317428
310625,121,-106,-39,5017,-1803,-5726,1745225838724663673
310817,113,-133,-41,5197,-1655,-5692,1745225838724663673
311009,85,-148,-45,5366,-1557,-5830,1745225838724663673
311201,57,-154,-34,5272,-1449,-5820,1745225838724663673
311393,58,-148,-18,5090,-1341,-5622,1745225838724663673
311585,77,-139,-16,5113,-1534,-5671,1745225838724663673
311777,120,-135,6,4981,-1253,-5806,1745225838724663673
311969,156,-128,51,5581,-1809,-6236,1745225838724663673
312161,103,-110,-18,5708,-2730,-6144,1745225838724663673
312353,31,-72,-57,5422,-3020,-6122,1745225838724663673
312545,-41,-39,-57,5137,-2640,-5931,1745225838724663673
312737,-82,-17,-74,5154,-1991,-5960,1745225838724663673
312929,-104,-23,-99,5279,-1456,-6110,1745225838776575178
313121,-131,-41,-89,5218,-1112,-5937,1745225838776575178
313313,-140,-55,-58,5077,-884,-5699,1745225838776575178
313505,-121,-80,-33,5077,-793,-5485,1745225838776575178
313697,-94,-116,-4,5226,-795,-5311,1745225838776575178
313889,-70,-154,33,5333,-792,-5070,1745225838776575178
314081,-58,-193,55,5393,-684,-5000,1745225838776575178
314273,-65,-249,66,5479,-537,-4946,1745225838776575178
314465,-63,-321,81,5620,-441,-4733,1745225838776575178
314657,-46,-399,97,5688,-535,-5286,1745225838776575178
314849,-41,-485,111,5617,-1149,-5723,1745225838776575178
315041,-84,-542,151,5659,-1682,-5653,1745225838776575178
315233,-72,-540,185,5367,-1752,-5331,1745225838840055483
315425,-118,-555,129,5222,-2060,-5899,1745225838840055483
315617,-240,-557,59,5094,-2510,-6312,1745225838840055483
315809,-333,-511,56,5165,-2607,-6809,1745225838840055483
316001,-426,-462,59,5186,-2351,-7071,1745225838840055483
316193,-488,-417,38,5157,-1971,-7178,1745225838840055483
316385,-494,-379,-8,4998,-1625,-7088,1745225838840055483
316577,-428,-348,-28,4942,-1145,-6769,1745225838840055483
316769,-358,-329,-37,4981,-470,-6330,1745225838840055483
316961,-317,-340,-57,5051,-46,-6317,1745225838840055483
317153,-310,-377,-64,5034,-85,-6355,1745225838840055483
317345,-286,-409,-37,4975,-325,-6468,1745225838840055483
317537,-235,-425,-6,4859,-483,-6345,1745225838893203383
317729,-152,-443,-5,4900,-589,-6488,1745225838893203383
317921,-80,-469,-32,4886,-750,-6440,1745225838893203383
318113,-44,-487,-58,4841,-951,-6545,1745225838893203383
318305,-42,-481,-67,4570,-992,-6438,1745225838893203383
318497,-46,-435,-60,4185,-838,-6452,1745225838893203383
318689,-61,-386,-58,3969,-763,-6703,1745225838893203383
318881,-91,-347,-51,3999,-959,-6757,1745225838893203383
319073,-108,-307,-21,4324,-1319,-6774,1745225838893203383
319265,-110,-280,13,4625,-1666,-6952,1745225838893203383
319457,-127,-259,23,4780,-1866,-7278,1745225838893203383
319649,-166,-248,7,4814,-2157,-7855,1745225838893203383
319841,-190,-235,-17,4842,-1896,-7516,1745225838953751268
320033,-209,-210,-57,4607,-1283,-6975,1745225838953751268
320225,-280,-191,-74,4388,-1137,-7030,1745225838953751268
320417,-324,-185,4,4294,-1654,-7267,1745225838953751268
320609,-286,-181,127,4523,-1799,-6978,1745225838953751268
320801,-220,-158,159,4449,-1346,-6496,1745225838953751268
320993,-214,-128,88,4311,-956,-6650,1745225838953751268
321185,-235,-117,30,4233,-626,-6673,1745225838953751268
321377,-208,-120,47,4345,-373,-6751,1745225838953751268
321569,-154,-153,104,4567,-443,-6826,1745225838953751268
321761,-81,-188,161,4592,-686,-6983,1745225838953751268
321953,-23,-192,195,4358,-895,-7075,1745225838953751268
322145,-7,-171,202,3975,-865,-6950,1745225839010127992
322337,-17,-153,205,3942,-849,-6821,1745225839010127992
322529,8,-164,223,4348,-933,-6739,1745225839010127992
322721,88,-189,233,4720,-965,-6636,1745225839010127992
322913,145,-203,205,4576,-871,-6569,1745225839010127992
323105,127,-200,176,4238,-901,-6552,1745225839010127992
323297,88,-205,200,4245,-1034,-6301,1745225839010127992
323489,110,-219,247,4534,-931,-6047,1745225839010127992
323681,180,-243,242,4660,-474,-5917,1745225839010127992
323873,220,-254,183,4391,-294,-6412,1745225839010127992
324065,214,-275,181,4200,-745,-6563,1745225839010127992
324257,278,-288,265,4419,-1222,-5993,1745225839010127992
324449,399,-301,307,4719,-1270,-5591,1745225839070911499
324641,466,-311,255,4564,-1353,-6139,1745225839070911499
324833,451,-326,207,4091,-1531,-6763,1745225839070911499
325025,429,-319,223,3803,-1698,-7035,1745225839070911499
325217,446,-305,237,3668,-1782,-6997,1745225839070911499
325409,462,-266,201,3532,-1938,-7007,1745225839070911499
325601,426,-245,164,3459,-2196,-6989,1745225839070911499
325793,380,-228,165,3638,-2253,-6256,1745225839070911499
325985,366,-226,148,4154,-2405,-6556,1745225839070911499
326177,321,-252,139,4454,-3780,-7695,1745225839070911499
326369,395,-248,111,4200,-3061,-6842,1745225839070911499
326561,308,-227,-21,3891,-2358,-6184,1745225839070911499
326753,182,-235,-41,4360,-2206,-6853,1745225839127435045
326945,154,-280,44,4867,-1936,-6874,1745225839127435045
327137,201,-303,76,4588,-1663,-6744,1745225839127435045
327329,235,-313,24,3866,-1535,-6838,1745225839127435045
327521,208,-316,13,3730,-1617,-6743,1745225839127435045
327713,238,-315,81,4312,-1601,-6813,1745225839127435045
327905,300,-332,109,4526,-1555,-7166,1745225839127435045
328097,319,-332,111,3988,-1671,-7046,1745225839127435045
328289,293,-305,149,3864,-2180,-6947,1745225839127435045
328481,248,-297,194,4381,-2746,-6543,1745225839127435045
328673,241,-290,182,4671,-2642,-6599,1745225839127435045
328865,197,-281,109,4087,-2488,-6977,1745225839127435045
329057,101,-254,76,3469,-2658,-7312,1745225839189402240
329249,9,-225,91,3481,-2989,-7281,1745225839189402240
329441,-48,-198,83,3490,-3140,-7292,1745225839189402240
329633,-108,-155,46,3105,-3296,-7300,1745225839189402240
329825,-196,-100,26,2704,-3531,-7282,1745225839189402240
330017,-298,-44,19,2699,-3771,-7506,1745225839189402240
330209,-377,8,4,2925,-3896,-7885,1745225839189402240
330401,-389,74,-39,3003,-3339,-8014,1745225839189402240
330593,-427,135,-109,2672,-2879,-8453,1745225839189402240
330785,-532,192,-111,2176,-2938,-8505,1745225839189402240
330977,-593,254,-43,2244,-3081,-8456,1745225839189402240
331169,-604,309,-26,2581,-3073,-8054,1745225839189402240
331361,-582,365,-120,2578,-1951,-7517,1745225839243770441
331553,-789,408,-246,2153,-1250,-7285,1745225839243770441
331745,-1061,385,-201,2403,-1719,-9199,1745225839243770441
331937,-788,395,43,4414,-1681,-9248,1745225839243770441
332129,-167,319,24,4791,-1385,-8483,1745225839243770441
332321,-159,315,-179,3642,-1891,-7454,1745225839243770441
332513,-209,401,-190,3557,-1750,-7452,1745225839243770441
332705,-205,404,-160,4284,-1218,-7651,1745225839243770441
332897,-229,365,-172,4618,-841,-7454,1745225839243770441
333089,-180,348,-166,4880,-355,-7169,1745225839243770441
333281,-81,310,-161,4869,166,-6731,1745225839243770441
333473,-26,268,-153,4482,396,-6112,1745225839243770441
333665,2,238,-118,4435,397,-5781,1745225839303929631
333857,41,190,-83,4719,295,-5611,1745225839303929631
334049,81,127,-81,4982,134,-5721,1745225839303929631
334241,63,61,-95,4906,-145,-5563,1745225839303929631
334433,85,21,-64,4942,-212,-5181,1745225839303929631
334625,134,-37,-30,4848,-301,-4959,1745225839303929631
334817,152,-92,-9,4692,-569,-4789,1745225839303929631
335009,162,-125,3,4607,-777,-4679,1745225839303929631
335201,152,-144,-8,4661,-726,-4537,1745225839303929631
335393,149,-176,-39,5086,-608,-4680,1745225839303929631
335585,156,-245,-72,5528,-609,-4867,1745225839303929631
335777,133,-332,-74,5663,-833,-5003,1745225839303929631
335969,82,-420,-34,5302,-1120,-5108,1745225839360592864
336161,29,-483,12,4791,-1311,-5058,1745225839360592864
336353,-8,-541,42,4554,-1542,-5299,1745225839360592864
336545,-91,-611,52,4526,-1760,-5651,1745225839360592864
336737,-174,-659,97,4496,-1854,-5996,1745225839360592864
336929,-127,-691,111,4870,-1440,-6356,1745225839360592864
337121,-109,-758,59,4232,-1029,-6520,1745225839360592864
337313,-218,-762,69,3678,-1270,-7223,1745225839360592864
337505,-209,-756,123,3884,-1651,-8094,1745225839360592864
337697,-135,-738,107,3827,-1945,-8319,1745225839360592864
337889,-116,-675,65,3635,-2057,-8385,1745225839360592864
338081,-134,-605,31,3519,-2026,-8487,1745225839360592864
338273,-124,-547,-5,3423,-1770,-8588,1745225839422572037
338465,-41,-485,-62,3396,-1542,-9030,1745225839422572037
338657,4,-385,-82,3601,-1611,-9097,1745225839422572037
338849,19,-325,-80,3533,-1629,-8914,1745225839422572037
339041,18,-256,-110,3484,-1428,-8776,1745225839422572037
339233,11,-210,-148,3617,-1201,-8740,1745225839422572037
339425,10,-172,-157,3732,-1053,-8656,1745225839422572037
339617,19,-145,-147,3743,-963,-8469,1745225839422572037
339809,22,-118,-138,3637,-1031,-8084,1745225839422572037
340001,7,-88,-130,3585,-1095,-7690,1745225839422572037
340193,2,-43,-121,3474,-859,-7222,1745225839422572037
340385,6,-1,-130,3636,-577,-7188,1745225839422572037
340577,23,20,-145,3777,-399,-7242,1745225839478736368
340769,32,37,-133,3839,-540,-7314,1745225839478736368
340961,36,50,-96,3878,-853,-7235,1745225839478736368
341153,34,59,-66,3886,-1213,-7047,1745225839478736368
341345,23,73,-50,3967,-1318,-6909,1745225839478736368
341537,0,85,-47,3950,-1253,-7023,1745225839478736368
341729,-30,104,-34,3826,-1200,-7109,1745225839478736368
341921,-50,125,-11,3799,-1091,-7102,1745225839478736368
342113,-46,140,5,3879,-987,-7027,1745225839478736368
342305,-41,137,23,3885,-1138,-7194,1745225839478736368
342497,-39,127,52,3704,-1357,-7158,1745225839478736368
342689,-41,124,64,3582,-1413,-7182,1745225839478736368
342881,-35,125,59,3558,-1268,-7002,1745225839535558557
343073,-35,126,55,3679,-1177,-7052,1745225839535558557
343265,-21,123,65,3777,-1264,-7021,1745225839535558557
343457,-6,118,79,3862,-1556,-6999,1745225839535558557
343649,-1,115,88,3828,-1877,-6906,1745225839535558557
343841,-16,110,87,3888,-2043,-7025,1745225839535558557
344033,-38,100,77,3915,-1903,-7003,1745225839535558557
344225,-64,88,64,3963,-1562,-7069,1745225839535558557
344417,-73,80,56,3945,-1166,-6945,1745225839535558557
344609,-64,76,49,3983,-1047,-6848,1745225839535558557
344801,-38,77,60,3925,-1203,-6579,1745225839535558557
344993,-6,88,70,3936,-1461,-6478,1745225839535558557
345185,14,90,59,4000,-1710,-6452,1745225839601082646
345377,16,84,47,4096,-1811,-6593,1745225839601082646
345569,-5,71,34,4056,-1856,-6753,1745225839601082646
345761,-33,68,24,3962,-1868,-6979,1745225839601082646
345953,-48,65,11,3828,-1710,-7042,1745225839601082646
346145,-49,66,-9,3857,-1514,-7141,1745225839601082646
346337,-41,63,-20,3837,-1382,-7049,1745225839601082646
346529,-32,59,-26,3862,-1289,-7243,1745225839601082646
346721,-19,45,-33,3864,-1194,-7161,1745225839601082646
346913,-16,39,-48,3824,-1219,-7123,1745225839601082646
347105,-17,38,-55,3995,-1155,-7264,1745225839601082646
347297,-21,29,-58,4014,-1134,-7032,1745225839601082646
347489,-20,45,-45,3994,-1190,-6918,1745225839653335033
347681,6,58,-45,4159,-1109,-6777,1745225839653335033
347873,33,53,-69,4409,-1205,-7048,1745225839653335033
348065,33,47,-66,4321,-1287,-7311,1745225839653335033
348257,21,40,-54,4023,-1273,-7296,1745225839653335033
348449,14,56,-68,3749,-1341,-7297,1745225839653335033
348641,3,72,-75,3755,-1411,-7066,1745225839653335033
348833,5,97,-63,4024,-1360,-6791,1745225839653335033
349025,15,98,-61,4111,-1428,-6743,1745225839653335033
349217,31,100,-59,4100,-1417,-6937,1745225839653335033
349409,26,87,-65,3838,-1364,-7147,1745225839653335033
349601,17,94,-70,3624,-1310,-7173,1745225839653335033
349793,10,98,-75,3753,-1192,-7213,1745225839713955938
349985,29,101,-82,3991,-1061,-7041,1745225839713955938
350177,42,93,-94,4004,-1070,-7064,1745225839713955938
350369,34,82,-90,3837,-1200,-7133,1745225839713955938
350561,19,73,-86,3847,-1408,-7452,1745225839713955938
350753,25,57,-91,3898,-1378,-7109,1745225839713955938
350945,36,47,-104,4015,-1240,-7146,1745225839713955938
351137,25,37,-107,3810,-1238,-6785,1745225839713955938
351329,-8,42,-95,3775,-1443,-6691,1745225839713955938
351521,-17,53,-79,3967,-1450,-6512,1745225839713955938
351713,-16,44,-80,4260,-1443,-6559,1745225839713955938
351905,-14,30,-75,4141,-1466,-7201,1745225839713955938
352097,-20,20,-72,3724,-1349,-7257,1745225839779503672
352289,-33,22,-81,3609,-1196,-7394,1745225839779503672
352481,-20,36,-82,3759,-1109,-7135,1745225839779503672
352673,6,47,-89,3950,-1188,-7191,1745225839779503672
352865,31,57,-93,3814,-1389,-7364,1745225839779503672
353057,38,76,-85,3601,-1633,-7378,1745225839779503672
353249,31,84,-76,3723,-1613,-7466,1745225839779503672
353441,43,93,-82,3909,-1342,-7394,1745225839779503672
353633,57,84,-103,3957,-1068,-7408,1745225839779503672
353825,62,86,-102,3758,-1027,-7267,1745225839779503672
354017,62,99,-81,3703,-1245,-6950,1745225839779503672
354209,77,114,-73,3991,-1489,-6671,1745225839779503672
354401,87,117,-83,4307,-1725,-6663,1745225839828686400
354593,70,114,-86,4304,-1836,-6878,1745225839828686400
354785,35,108,-78,4032,-1714,-6996,1745225839828686400
354977,12,107,-71,3918,-1410,-6801,1745225839828686400
355169,9,104,-75,4040,-1132,-6614,1745225839828686400
355361,5,98,-76,4143,-969,-6592,1745225839828686400
355553,6,90,-65,4114,-813,-6675,1745225839828686400
355745,13,76,-47,4142,-742,-6694,1745225839828686400
355937,24,44,-31,4326,-871,-6819,1745225839828686400
356129,35,15,-16,4005,-867,-6719,1745225839828686400
356321,56,74,-13,2747,-431,-6991,1745225839828686400
356513,89,55,-15,3620,-312,-6699,1745225839828686400
356705,144,35,2,4680,-842,-6421,1745225839883260120
356897,151,-7,43,4855,-1845,-6121,1745225839883260120
357089,129,-40,57,4558,-2469,-6393,1745225839883260120
357281,67,-70,26,4014,-2491,-6880,1745225839883260120
357473,-15,-60,-5,3625,-1971,-7129,1745225839883260120
357665,-67,-44,-11,3675,-1261,-7087,1745225839883260120
357857,-54,-33,5,4049,-931,-6736,1745225839883260120
358049,-15,-37,24,4425,-1049,-6636,1745225839883260120
358241,-4,-54,36,4276,-1285,-6858,1745225839883260120
358433,-36,-60,56,3924,-1377,-7055,1745225839883260120
358625,-60,-60,71,3919,-1224,-7167,1745225839883260120
358817,-49,-72,63,4143,-1000,-7259,1745225839883260120
359009,-31,-82,56,4091,-917,-7311,1745225839951845639
359201,-22,-74,62,3677,-928,-7219,1745225839951845639
359393,-15,-47,63,3483,-901,-7125,1745225839951845639
359585,3,-24,58,3733,-967,-6919,1745225839951845639
359777,36,-15,62,4195,-1207,-6817,1745225839951845639
359969,53,-28,60,4284,-1579,-7004,1745225839951845639
360161,38,-31,51,3974,-1811,-7178,1745225839951845639
360353,8,-29,30,3705,-1657,-7277,1745225839951845639
360545,-15,-16,8,3859,-1298,-7237,1745225839951845639
360737,-3,-5,-4,4267,-952,-7124,1745225839951845639
360929,28,-7,-8,4413,-966,-7121,1745225839951845639
361121,47,-11,-4,4278,-1239,-6959,1745225839951845639
361313,52,-9,-1,4213,-1380,-6980,1745225840004839791
361505,42,-11,-5,4198,-1340,-6979,1745225840004839791
361697,37,-7,-1,4164,-1297,-6837,1745225840004839791
361889,35,-1,4,4096,-1363,-6605,1745225840004839791
362081,35,10,4,4076,-1478,-6534,1745225840004839791
362273,33,14,-1,4139,-1639,-6585,1745225840004839791
362465,29,11,-4,4247,-1766,-6839,1745225840004839791
362657,21,-1,-9,4149,-1792,-7030,1745225840004839791
362849,14,-6,-15,4018,-1693,-7093,1745225840004839791
363041,9,-9,-32,3953,-1589,-7131,1745225840004839791
363233,7,-3,-48,3910,-1593,-7069,1745225840004839791
363425,4,5,-58,3979,-1623,-7033,1745225840004839791
363617,10,15,-69,4081,-1602,-6993,1745225840068920716
363809,11,21,-85,4070,-1532,-7139,1745225840068920716
364001,2,22,-89,4095,-1472,-7138,1745225840068920716
364193,-1,19,-88,4131,-1387,-7142,1745225840068920716
364385,5,15,-86,4083,-1285,-7004,1745225840068920716
364577,6,14,-84,3934,-1262,-6781,1745225840068920716
364769,-5,18,-88,3984,-1156,-6707,1745225840068920716
364961,-19,12,-99,4091,-1008,-6751,1745225840068920716
365153,-36,4,-104,4098,-974,-6741,1745225840068920716
365345,-51,-21,-90,4179,-1101,-6694,1745225840068920716
365537,-55,-61,-75,4307,-1450,-6824,1745225840068920716
365729,-61,-58,-69,4206,-1802,-6856,1745225840068920716
365921,-74,-28,-68,3954,-1828,-6642,1745225840126667428
366113,-98,-18,-81,3951,-1547,-6698,1745225840126667428
366305,-109,-11,-93,4081,-1361,-6776,1745225840126667428
366497,-106,-7,-102,4122,-1341,-6916,1745225840126667428
366689,-102,-6,-104,3970,-1313,-7004,1745225840126667428
366881,-108,1,-91,3834,-1314,-6939,1745225840126667428
367073,-116,8,-68,3947,-1412,-7042,1745225840126667428
367265,-110,5,-54,4054,-1520,-7150,1745225840126667428
367457,-103,3,-54,3965,-1419,-7091,1745225840126667428
367649,-105,4,-68,3894,-1117,-7154,1745225840126667428
367841,-109,-1,-83,3853,-804,-7237,1745225840126667428
368033,-103,-4,-74,3908,-784,-7172,1745225840126667428
368225,-95,-3,-45,3917,-949,-6857,1745225840186335008
368417,-87,-7,-8,4001,-1261,-6857,1745225840186335008
368609,-80,-2,10,4009,-1431,-6854,1745225840186335008
368801,-79,-11,1,3952,-1304,-6644,1745225840186335008
368993,-93,-51,-25,3935,-986,-6847,1745225840186335008
369185,-107,-55,-39,3916,-614,-6970,1745225840186335008
369377,-108,-58,-27,3944,-575,-7003,1745225840186335008
369569,-96,-72,4,3996,-905,-6889,1745225840186335008
369761,-85,-77,26,4007,-1208,-6877,1745225840186335008
369953,-86,-81,21,3990,-1273,-7026,1745225840186335008
370145,-95,-86,0,3886,-1136,-7108,1745225840186335008
370337,-95,-83,-11,3754,-859,-7058,1745225840186335008
371873,-10,-131,22,4066,-660,-7156,1745225842614064497
464033,286,-230,-38,3639,-1249,-7149,1745225842614064497
464225,-38,-88,-1,3449,-1073,-7056,1745225842614064497
464417,-93,-102,-14,3579,-1148,-7185,1745225842614064497
464609,-114,-76,-33,3959,-1271,-7481,1745225842614064497
464801,-93,-91,-49,3959,-1205,-7839,1745225842614064497
464993,-107,-118,-33,3370,-1098,-7726,1745225842614064497
465185,-131,-70,-19,3228,-1169,-7531,1745225842614064497
465377,-103,-61,-28,3513,-1452,-7324,1745225842614064497
465569,-107,-50,-37,3801,-1703,-7118,1745225842614064497
465761,-124,-5,-55,3547,-1596,-7146,1745225842614064497
465953,-163,10,-52,3295,-1426,-7245,1745225842614064497
466145,-181,38,-47,3508,-1297,-7322,1745225842674440925
466337,-157,54,-66,3922,-1287,-7564,1745225842674440925
466529,-130,43,-72,3979,-1193,-7763,1745225842674440925
466721,-116,58,-59,3524,-987,-7676,1745225842674440925
466913,-85,85,-48,3260,-690,-7490,1745225842674440925
467105,-30,102,-59,3581,-574,-7435,1745225842674440925
467297,53,106,-75,4049,-548,-7364,1745225842674440925
467489,122,93,-70,3997,-652,-7459,1745225842674440925
467681,140,85,-52,3576,-707,-7388,1745225842674440925
467873,141,87,-48,3404,-705,-7389,1745225842674440925
468065,172,86,-45,3528,-761,-7187,1745225842674440925
468257,224,97,-39,3760,-865,-7001,1745225842674440925
468449,251,106,-37,3694,-1045,-6772,1745225842729615004
468641,245,124,-29,3584,-1116,-6787,1745225842729615004
468833,207,148,-34,3149,-1550,-6674,1745225842729615004
469025,177,179,-51,4399,-590,-6803,1745225842729615004
469217,219,160,-64,3771,-1251,-7183,1745225842729615004
469409,185,210,-60,3738,-1320,-7199,1745225842729615004
469601,173,211,-49,3788,-1399,-7061,1745225842729615004
469793,139,157,-54,3705,-1499,-7084,1745225842729615004
469985,125,168,-56,3923,-1485,-7035,1745225842729615004
470177,109,164,-69,3898,-1419,-7145,1745225842729615004
470369,87,164,-76,3769,-1487,-7325,1745225842729615004
470561,79,175,-62,3635,-1683,-7181,1745225842729615004
470753,68,191,-52,3715,-1917,-7056,1745225842801576899
470945,61,212,-53,3820,-2039,-6846,1745225842801576899
471137,46,225,-69,3986,-2032,-7003,1745225842801576899
471329,21,227,-81,4034,-1921,-7086,1745225842801576899
471521,-5,226,-77,4044,-1679,-7145,1745225842801576899
471713,4,212,-62,4034,-1310,-7155,1745225842801576899
471905,7,239,-55,3804,-1478,-7155,1745225842801576899
472097,-2,255,-47,3774,-1768,-7200,1745225842801576899
472289,1,296,-39,3726,-1769,-6989,1745225842801576899
472481,5,324,-59,3939,-1838,-7055,1745225842801576899
472673,-52,324,-83,4140,-1812,-7179,1745225842801576899
472865,-99,317,-84,4184,-1382,-7325,1745225842801576899
473057,-99,316,-94,4020,-1124,-7531,1745225842846181648
473249,-98,313,-97,3859,-1248,-7505,1745225842846181648
473441,-90,321,-84,3873,-1362,-7433,1745225842846181648
473633,-78,328,-90,3801,-1382,-7379,1745225842846181648
473825,-75,346,-104,3677,-1504,-7332,1745225842846181648
474017,-79,359,-118,3743,-1557,-7285,1745225842846181648
474209,-71,363,-133,3956,-1416,-7272,1745225842846181648
474401,-72,351,-154,4038,-1268,-7280,1745225842846181648
474593,-82,338,-158,3995,-1093,-7161,1745225842846181648
474785,-77,334,-156,3920,-920,-7213,1745225842846181648
474977,-54,330,-165,3867,-855,-7191,1745225842846181648
475169,-20,330,-170,3917,-881,-7069,1745225842846181648
475361,15,324,-175,4157,-903,-6981,1745225842907199528
475553,31,303,-187,4303,-946,-6969,1745225842907199528
475745,32,285,-189,4343,-994,-7036,1745225842907199528
475937,38,274,-182,4235,-1050,-7098,1745225842907199528
476129,47,274,-165,4061,-1191,-7006,1745225842907199528
476321,61,289,-140,4021,-1334,-6790,1745225842907199528
476513,78,294,-136,4165,-1343,-6791,1745225842907199528
476705,77,290,-153,4200,-1132,-6769,1745225842907199528
476897,41,295,-170,4097,-926,-7127,1745225842907199528
477089,30,303,-168,3945,-757,-7192,1745225842907199528
477281,58,313,-156,3916,-815,-7256,1745225842907199528
477473,91,311,-129,4131,-984,-6908,1745225842907199528
477665,115,309,-109,4387,-1175,-6840,1745225842965260508
477857,117,301,-116,4282,-1217,-6897,1745225842965260508
478049,87,306,-132,3951,-1089,-7259,1745225842965260508
478241,47,300,-124,3913,-923,-7273,1745225842965260508
478433,48,305,-101,4167,-782,-7159,1745225842965260508
478625,78,305,-93,4326,-796,-7122,1745225842965260508
478817,101,315,-86,4209,-1021,-7247,1745225842965260508
479009,110,316,-61,4083,-1172,-7115,1745225842965260508
479201,146,334,-30,4186,-1097,-6835,1745225842965260508
479393,185,340,-44,4384,-922,-6728,1745225842965260508
479585,192,336,-74,4540,-883,-6943,1745225842965260508
479777,176,324,-78,4534,-854,-6985,1745225842965260508
479969,163,315,-52,4459,-797,-6907,1745225843022561963
480161,165,313,-29,4418,-840,-6707,1745225843022561963
480353,180,314,-28,4430,-1010,-6705,1745225843022561963
480545,198,324,-33,4499,-1147,-6810,1745225843022561963
480737,205,330,-45,4584,-1120,-6836,1745225843022561963
480929,197,339,-65,4672,-1065,-6970,1745225843022561963
481121,189,342,-84,4651,-889,-6909,1745225843022561963
481313,206,356,-82,4630,-810,-6695,1745225843022561963
481505,234,364,-79,4687,-939,-6553,1745225843022561963
481697,272,370,-81,4696,-1259,-6409,1745225843022561963
481889,308,378,-89,4582,-1518,-6306,1745225843022561963
482081,329,400,-94,4535,-1574,-6127,1745225843022561963
482273,346,413,-111,4580,-1587,-6196,1745225843082285585
482465,357,406,-134,4565,-1610,-6269,1745225843082285585
482657,352,397,-142,4503,-1653,-6116,1745225843082285585
482849,346,386,-126,4544,-1721,-5953,1745225843082285585
483041,344,350,-112,4623,-1862,-5881,1745225843082285585
483233,333,304,-109,4608,-2040,-5929,1745225843082285585
483425,303,263,-108,4526,-2050,-6029,1745225843082285585
483617,270,227,-109,4412,-2063,-6103,1745225843082285585
483809,245,198,-103,4317,-1772,-6230,1745225843082285585
484001,197,175,-112,4279,-1604,-6158,1745225843082285585
484193,180,169,-104,4364,-1711,-6000,1745225843082285585
484385,183,160,-91,4484,-1878,-5856,1745225843082285585
484577,169,156,-88,4469,-2302,-5820,1745225843139009806
484769,110,166,-109,4394,-2797,-5788,1745225843139009806
484961,39,166,-122,4562,-2784,-5879,1745225843139009806
485153,-33,146,-137,4769,-2214,-6077,1745225843139009806
485345,-88,133,-164,4712,-1678,-6206,1745225843139009806
485537,-91,98,-158,4748,-902,-5903,1745225843139009806
485729,-60,65,-130,4756,-653,-5835,1745225843139009806
485921,-18,19,-104,4766,-749,-5835,1745225843139009806
486113,20,-13,-72,4699,-1084,-5871,1745225843139009806
486305,34,-31,-49,4657,-1353,-6021,1745225843139009806
486497,50,-46,-42,4667,-1384,-6151,1745225843139009806
486689,51,-68,-50,4667,-1371,-6165,1745225843139009806
486881,48,-80,-49,4659,-1348,-6339,1745225843198441034
487073,39,-95,-47,4569,-1388,-6465,1745225843198441034
487265,21,-98,-46,4487,-1450,-6843,1745225843198441034
487457,-4,-94,-39,4416,-1436,-7048,1745225843198441034
487649,-16,-75,-26,4508,-1220,-7018,1745225843198441034
487841,-12,-66,-22,4594,-1059,-6957,1745225843198441034
488033,2,-62,-15,4638,-1073,-6900,1745225843198441034
488225,37,-59,9,4708,-1230,-6690,1745225843198441034
488417,75,-51,27,4777,-1506,-6608,1745225843198441034
488609,85,-46,21,4699,-1719,-6771,1745225843198441034
488801,58,-34,11,4614,-1666,-6941,1745225843198441034
488993,26,-21,10,4741,-1451,-6889,1745225843198441034
489185,17,-22,4,4895,-1252,-6973,1745225843258924075
489377,14,-38,5,4785,-1167,-6810,1745225843258924075
489569,23,-34,32,4583,-1094,-6546,1745225843258924075
489761,62,-25,48,4608,-1027,-6336,1745225843258924075
489953,103,-28,25,4739,-1114,-6650,1745225843258924075
490145,95,-27,7,4577,-1337,-6809,1745225843258924075
490337,69,-8,21,4572,-1423,-6932,1745225843258924075
490529,72,1,26,4796,-1400,-6777,1745225843258924075
490721,86,6,20,4854,-1441,-6627,1745225843258924075
490913,75,14,28,4621,-1523,-6408,1745225843258924075
491105,57,25,45,4549,-1543,-6339,1745225843258924075
491297,51,21,40,4743,-1524,-6401,1745225843258924075
491489,39,15,22,4868,-1477,-6509,1745225843314234299
491681,12,14,17,4825,-1486,-6537,1745225843314234299
491873,3,12,27,4768,-1437,-6524,1745225843314234299
492065,23,18,38,4620,-1314,-6356,1745225843314234299
492257,57,34,44,4652,-1219,-6182,1745225843314234299
492449,93,41,36,4758,-1258,-6198,1745225843314234299
492641,102,37,31,4808,-1386,-6395,1745225843314234299
492833,87,30,54,4798,-1647,-6374,1745225843314234299
493025,79,19,83,4851,-1927,-6379,1745225843314234299
493217,76,10,96,4821,-2162,-6259,1745225843314234299
493409,54,19,88,4555,-2181,-6277,1745225843314234299
493601,17,46,81,4303,-1996,-6122,1745225843314234299
493793,-16,68,63,4459,-1730,-6274,1745225843375131399
493985,-26,69,51,4886,-1532,-6313,1745225843375131399
494177,-8,51,46,5097,-1411,-6507,1745225843375131399
494369,5,24,52,5012,-1370,-6579,1745225843375131399
494561,20,-1,61,4785,-1400,-6632,1745225843375131399
494753,32,-22,63,4674,-1446,-6619,1745225843375131399
494945,47,-32,65,4635,-1449,-6500,1745225843375131399
495137,47,-37,60,4680,-1407,-6513,1745225843375131399
495329,36,-45,48,4694,-1233,-6567,1745225843375131399
495521,21,-49,39,4724,-1029,-6600,1745225843375131399
495713,15,-59,37,4760,-904,-6791,1745225843375131399
495905,15,-70,43,4746,-946,-6927,1745225843375131399
496097,24,-74,52,4696,-1028,-6942,1745225843430453446
496289,29,-70,48,4683,-1019,-6830,1745225843430453446
496481,24,-66,33,4736,-928,-6820,1745225843430453446
496673,13,-65,29,4842,-907,-6754,1745225843430453446
496865,11,-73,39,4961,-906,-6714,1745225843430453446
497057,10,-83,53,4940,-1039,-6636,1745225843430453446
497249,2,-86,64,4880,-1148,-6581,1745225843430453446
497441,-4,-80,67,4806,-1145,-6458,1745225843430453446
497633,-20,-63,64,4703,-1052,-6493,1745225843430453446
497825,-32,-44,69,4694,-908,-6412,1745225843430453446
498017,-19,-30,80,4837,-939,-6525,1745225843430453446
498209,7,-19,99,4880,-1259,-6467,1745225843430453446
498401,32,-4,128,4843,-1719,-6554,1745225843491003466
498593,40,9,140,4764,-2029,-6696,1745225843491003466
498785,32,24,132,4567,-2088,-6793,1745225843491003466
498977,10,45,111,4445,-1837,-6993,1745225843491003466
499169,-4,55,98,4411,-1588,-6947,1745225843491003466
499361,5,62,111,4494,-1552,-6731,1745225843491003466
499553,41,62,123,4532,-1659,-6455,1745225843491003466
499745,74,66,123,4515,-1829,-6228,1745225843491003466
499937,86,67,111,4559,-1933,-6263,1745225843491003466
500129,78,60,92,4599,-1948,-6252,1745225843491003466
500321,64,54,77,4623,-1887,-6179,1745225843491003466
500513,47,44,71,4664,-1889,-6054,1745225843491003466
500705,44,33,75,4732,-1931,-5950,1745225843550003604
500897,45,19,76,4799,-2008,-5965,1745225843550003604
501089,33,5,64,4754,-2049,-6103,1745225843550003604
501281,6,-4,47,4648,-1994,-6268,1745225843550003604
501473,-14,-8,35,4648,-1850,-6299,1745225843550003604
501665,-26,-16,28,4774,-1844,-6413,1745225843550003604
501857,-26,-23,42,4831,-1973,-6374,1745225843550003604
502049,-20,-20,59,4690,-2106,-6198,1745225843550003604
502241,-12,4,59,4447,-2127,-6198,1745225843550003604
502433,-12,27,42,4476,-2033,-6465,1745225843550003604
502625,-13,31,26,4792,-1943,-6792,1745225843550003604
502817,-8,24,13,4941,-1804,-6951,1745225843550003604
503009,-13,22,5,4623,-1685,-6918,1745225843605789761
503201,-18,37,13,4320,-1679,-6580,1745225843605789761
503393,0,47,19,4562,-1867,-6466,1745225843605789761
503585,33,50,14,4932,-2110,-6449,1745225843605789761
503777,39,42,-10,4892,-2085,-6654,1745225843605789761
503969,3,43,-24,4506,-1683,-6471,1745225843605789761
504161,-29,36,-38,4399,-1273,-6508,1745225843605789761
504353,-21,19,-42,4800,-1123,-6465,1745225843605789761
504545,17,-13,-43,5122,-1291,-6419,1745225843605789761
504737,37,-27,-41,4891,-1528,-6377,1745225843605789761
504929,16,-35,-37,4532,-1591,-6371,1745225843605789761
505121,-10,-40,-33,4722,-1506,-6413,1745225843605789761
505313,-7,-61,-46,5136,-1451,-6570,1745225843666213115
505505,-1,-73,-47,4997,-1422,-6422,1745225843666213115
505697,-21,-74,-36,4516,-1439,-6364,1745225843666213115
505889,-52,-64,-27,4402,-1484,-6229,1745225843666213115
506081,-52,-63,-34,4874,-1455,-6358,1745225843666213115
506273,-42,-65,-55,5037,-1440,-6738,1745225843666213115
506465,-58,-75,-54,4721,-1273,-6806,1745225843666213115
506657,-78,-80,-32,4598,-1077,-6796,1745225843666213115
506849,-78,-94,-33,4778,-1042,-6824,1745225843666213115
507041,-56,-104,-29,4906,-1120,-6822,1745225843666213115
507233,-43,-98,-11,4631,-1334,-6595,1745225843666213115
507425,-45,-79,1,4481,-1539,-6500,1745225843666213115
507617,-51,-76,-8,4730,-1631,-6694,1745225843724322376
507809,-53,-78,-21,4888,-1644,-6969,1745225843724322376
508001,-61,-69,-20,4419,-1508,-6800,1745225843724322376
508193,-71,-40,-6,4150,-1271,-6735,1745225843724322376
508385,-54,-25,-8,4472,-1088,-6587,1745225843724322376
508577,-18,-20,-16,4741,-1074,-6654,1745225843724322376
508769,-5,-15,2,4657,-1176,-6693,1745225843724322376
508961,-3,-26,27,4661,-1335,-6614,1745225843724322376
509153,13,-47,29,4931,-1431,-6727,1745225843724322376
509345,8,-67,21,4760,-1417,-6677,1745225843724322376
509537,-20,-63,44,4325,-1353,-6381,1745225843724322376
509729,-31,-52,72,4364,-1290,-5937,1745225843724322376
509921,-8,-60,71,4838,-1360,-5816,1745225843793923459
510113,-5,-82,66,5004,-1554,-6074,1745225843793923459
510305,-33,-100,80,4778,-1775,-6248,1745225843793923459
510497,-57,-115,83,4654,-2054,-6532,1745225843793923459
510689,-53,-117,61,4562,-2216,-6824,1745225843793923459
510881,-60,-97,46,4255,-2187,-6819,1745225843793923459
511073,-80,-56,58,4038,-2036,-6476,1745225843793923459
511265,-78,-24,64,4324,-1837,-6284,1745225843793923459
511457,-57,-12,55,4735,-1744,-6621,1745225843793923459
511649,-63,-17,51,4705,-1689,-6849,1745225843793923459
511841,-81,-17,73,4451,-1657,-6992,1745225843793923459
512033,-79,-17,90,4317,-1678,-6798,1745225843793923459
512225,-52,-12,82,4385,-1726,-6856,1745225843842969000
512417,-37,-1,69,4247,-1719,-6545,1745225843842969000
512609,-38,24,76,4265,-1656,-6285,1745225843842969000
512801,-27,25,70,4633,-1554,-6212,1745225843842969000
512993,-5,-2,42,4988,-1487,-6482,1745225843842969000
513185,-5,-30,22,4780,-1382,-6640,1745225843842969000
513377,-25,-39,33,4347,-1191,-6522,1745225843842969000
513569,-24,-44,48,4344,-1021,-6309,1745225843842969000
513761,13,-64,43,4711,-973,-6371,1745225843842969000
513953,40,-93,32,4772,-1245,-6504,1745225843842969000
514145,41,-104,47,4425,-1588,-6625,1745225843842969000
514337,38,-107,63,4257,-1930,-6922,1745225843842969000
514529,39,-114,55,4446,-2349,-6942,1745225843898338182
514721,30,-99,33,4665,-2769,-6928,1745225843898338182
514913,0,-53,16,4373,-2578,-6561,1745225843898338182
515105,-59,3,-9,4111,-2084,-6555,1745225843898338182
515297,-100,18,-21,4404,-1762,-6663,1745225843898338182
515489,-85,8,-17,5008,-1499,-6759,1745225843898338182
515681,-42,-15,-32,5156,-1403,-7019,1745225843898338182
515873,-36,-29,-37,4486,-1451,-6904,1745225843898338182
516065,-48,-7,-7,3990,-1422,-6651,1745225843898338182
516257,-36,7,9,4251,-1381,-6627,1745225843898338182
516449,-2,7,9,4765,-1446,-6585,1745225843898338182
516641,25,9,10,4982,-1362,-6620,1745225843898338182
516833,17,10,8,4701,-1017,-6555,1745225843958664141
517025,-6,11,23,4344,-726,-6462,1745225843958664141
517217,5,8,59,4417,-641,-6274,1745225843958664141
517409,57,-13,92,4720,-925,-6141,1745225843958664141
517601,94,-35,113,4874,-1450,-6080,1745225843958664141
517793,100,-32,101,4727,-1653,-6058,1745225843958664141
517985,63,-41,70,4775,-1800,-6234,1745225843958664141
518177,33,-58,50,4912,-1852,-6313,1745225843958664141
518369,28,-80,45,5042,-1869,-6370,1745225843958664141
518561,25,-98,37,4833,-1934,-6419,1745225843958664141
518753,-1,-94,37,4485,-1998,-6299,1745225843958664141
518945,-30,-83,36,4378,-2004,-6356,1745225843958664141
519137,-40,-80,22,4587,-1880,-6595,1745225844016421426
519329,-43,-82,6,4715,-1765,-6671,1745225844016421426
519521,-39,-74,7,4640,-1630,-6577,1745225844016421426
519713,-31,-63,22,4523,-1543,-6647,1745225844016421426
519905,-32,-64,34,4492,-1595,-6715,1745225844016421426
520097,-22,-62,51,4513,-1674,-6562,1745225844016421426
520289,-5,-43,57,4540,-1649,-6537,1745225844016421426
520481,-10,-33,39,4534,-1599,-6764,1745225844016421426
520673,-36,-37,18,4634,-1590,-6952,1745225844016421426
520865,-53,-49,20,4608,-1662,-6749,1745225844016421426
521057,-28,-35,31,4574,-1501,-6588,1745225844016421426
521249,-22,-27,26,4497,-1453,-6472,1745225844016421426
521441,-28,-38,17,4565,-1504,-6466,1745225844073961526
521633,-15,-45,22,4682,-1556,-6343,1745225844073961526
521825,5,-46,25,4645,-1609,-6317,1745225844073961526
522017,19,-30,19,4534,-1625,-6393,1745225844073961526
522209,9,-30,13,4543,-1702,-6391,1745225844073961526
522401,-4,-31,23,4561,-1752,-6470,1745225844073961526
522593,-20,-19,43,4525,-1752,-6393,1745225844073961526
522785,-37,-8,55,4510,-1693,-6357,1745225844073961526
522977,-45,-8,56,4572,-1649,-6310,1745225844073961526
523169,-44,-23,51,4632,-1652,-6361,1745225844073961526
523361,-39,-13,48,4746,-1592,-6400,1745225844073961526
523553,-56,-38,46,4793,-1627,-6562,1745225844073961526
523745,-63,-61,41,4783,-1583,-6786,1745225844136471944
523937,-62,-78,28,4663,-1336,-6940,1745225844136471944
524129,-65,-88,3,4422,-986,-6946,1745225844136471944
524321,-75,-92,-18,4269,-723,-6973,1745225844136471944
524513,-71,-100,-5,4217,-631,-6670,1745225844136471944
524705,-18,-106,26,4511,-556,-6544,1745225844136471944
524897,45,-111,55,4710,-535,-6234,1745225844136471944
525089,73,-137,71,4788,-640,-6312,1745225844136471944
525281,76,-156,75,4894,-720,-6494,1745225844136471944
525473,66,-183,74,4928,-794,-6563,1745225844136471944
525665,62,-203,80,4834,-904,-6512,1745225844136471944
525857,69,-213,94,4756,-1055,-6393,1745225844136471944
526049,74,-217,111,4713,-1216,-6226,1745225844190718740
526241,55,-222,129,4686,-1401,-6318,1745225844190718740
526433,7,-222,159,4646,-1592,-6504,1745225844190718740
526625,-53,-234,192,4698,-1756,-6849,1745225844190718740
526817,-99,-249,212,4583,-2071,-7106,1745225844190718740
527009,-121,-247,226,4420,-1966,-6840,1745225844190718740
527201,-138,-215,209,4214,-1456,-6597,1745225844190718740
527393,-228,-194,170,4023,-1684,-6969,1745225844190718740
527585,-295,-192,181,4151,-2089,-6798,1745225844190718740
527777,-253,-198,224,4540,-1984,-6964,1745225844190718740
527969,-256,-191,219,4568,-1777,-7087,1745225844190718740
528161,-307,-189,172,4200,-1556,-7245,1745225844190718740
528353,-342,-171,141,3711,-1157,-6991,1745225844249258622
528545,-323,-144,152,3604,-863,-6746,1745225844249258622
528737,-262,-153,188,4020,-916,-6603,1745225844249258622
528929,-181,-188,217,4317,-1236,-6614,1745225844249258622
529121,-98,-210,227,4346,-1374,-6897,1745225844249258622
529313,-83,-228,201,3938,-1374,-7070,1745225844249258622
529505,-99,-231,207,3411,-1347,-6744,1745225844249258622
529697,-62,-240,265,3548,-1581,-6573,1745225844249258622
529889,19,-255,308,3867,-1703,-6432,1745225844249258622
530081,81,-261,295,3907,-1604,-6855,1745225844249258622
530273,71,-263,255,3497,-1498,-6930,1745225844249258622
530465,38,-260,268,3295,-1670,-6710,1745225844249258622
530657,42,-271,315,3718,-1792,-6515,1745225844309252970
530849,84,-307,346,4018,-1945,-6598,1745225844309252970
531041,144,-319,327,3825,-2089,-6716,1745225844309252970
531233,161,-304,292,3423,-2165,-6343,1745225844309252970
531425,116,-298,294,3513,-2046,-5985,1745225844309252970
531617,17,-366,356,4230,-4078,-7874,1745225844309252970
531809,45,-352,415,4510,-4542,-6850,1745225844309252970
532001,142,-305,278,3866,-2871,-6378,1745225844309252970
532193,-32,-279,79,2738,-2068,-6573,1745225844309252970
532385,-154,-289,158,3186,-2155,-6806,1745225844309252970
532577,-112,-274,324,4550,-2265,-6619,1745225844309252970
532769,35,-277,316,4801,-2045,-6685,1745225844309252970
532961,120,-296,176,3802,-1763,-7096,1745225844365918807
533153,110,-309,129,3100,-1770,-7140,1745225844365918807
533345,104,-307,195,3703,-2133,-7094,1745225844365918807
533537,154,-331,238,4422,-2690,-7082,1745225844365918807
533729,223,-303,177,3875,-2992,-7228,1745225844365918807
533921,162,-233,77,2882,-3461,-7298,1745225844365918807
534113,22,-167,62,2877,-3782,-7107,1745225844365918807
534305,-61,-150,62,3540,-4020,-6981,1745225844365918807
534497,-73,-141,-3,3476,-4031,-6636,1745225844365918807
534689,-91,-117,-103,2525,-4214,-7290,1745225844365918807
534881,-248,-51,-139,1200,-4849,-6867,1745225844365918807
535073,-399,31,-95,1567,-5310,-6169,1745225844365918807
535265,-424,60,-103,2788,-5023,-5860,1745225844426146433
535457,-411,77,-202,3283,-4371,-7043,1745225844426146433
535649,-462,106,-285,2471,-3898,-7885,1745225844426146433
535841,-564,161,-269,1792,-3813,-8360,1745225844426146433
536033,-601,202,-221,2019,-3772,-8178,1745225844426146433
536225,-549,234,-236,2554,-3293,-7558,1745225844426146433
536417,-485,299,-345,2516,-1783,-7147,1745225844426146433
536609,-562,353,-470,2007,-435,-6978,1745225844426146433
536801,-604,309,-493,2617,785,-5969,1745225844426146433
536993,-1039,62,-495,2465,675,-7141,1745225844426146433
537185,-1475,104,-261,4187,942,-7568,1745225844426146433
537377,-615,-64,-65,6924,1553,-9800,1745225844426146433
537569,-206,-367,-347,4753,391,-8414,1745225844485698337
537761,-340,-401,-423,3272,-900,-7226,1745225844485698337
537953,-325,-418,-270,4561,-755,-7723,1745225844485698337
538145,-374,-528,-251,4421,-426,-7552,1745225844485698337
538337,-527,-555,-242,3554,-248,-7092,1745225844485698337
538529,-504,-511,-151,3641,472,-6536,1745225844485698337
538721,-346,-509,-115,4297,1072,-5832,1745225844485698337
538913,-181,-502,-115,4588,1060,-5198,1745225844485698337
539105,-72,-471,-91,4746,822,-5410,1745225844485698337
539297,-62,-472,-53,5031,253,-5701,1745225844485698337
539489,-77,-504,4,5462,-413,-6052,1745225844485698337
539681,-105,-519,60,5467,-968,-6303,1745225844485698337
539873,-163,-542,115,5208,-1498,-6420,1745225844541922928
540065,-224,-557,162,4757,-1903,-6470,1745225844541922928
540257,-287,-559,202,4230,-2057,-6614,1745225844541922928
540449,-144,-475,202,4778,-1011,-5974,1745225844541922928
540641,61,-500,33,5092,-1040,-6810,1745225844541922928
540833,11,-529,-44,4329,-1542,-7091,1745225844541922928
541025,-60,-512,36,4199,-1176,-7011,1745225844541922928
541217,-64,-503,36,3931,-775,-6970,1745225844541922928
541409,-83,-490,15,3785,-1043,-7343,1745225844541922928
541601,-80,-466,38,3677,-1413,-7525,1745225844541922928
541793,-62,-429,16,3565,-1460,-8105,1745225844541922928
541985,-65,-417,-47,3322,-1159,-8271,1745225844541922928
542177,-80,-399,-79,3149,-1029,-8543,1745225844614961219
542369,-89,-387,-79,3182,-1017,-8246,1745225844614961219
542561,-66,-371,-86,3359,-1156,-7939,1745225844614961219
542753,-24,-352,-101,3280,-1359,-7610,1745225844614961219
542945,-41,-321,-130,3071,-1485,-7333,1745225844614961219
543137,-81,-288,-166,3300,-1294,-7465,1745225844614961219
543329,-100,-294,-210,3673,-1107,-8162,1745225844614961219
543521,-106,-300,-217,3220,-1259,-8315,1745225844614961219
543713,-128,-270,-196,3027,-1505,-7922,1745225844614961219
543905,-146,-241,-208,3235,-1465,-7562,1745225844614961219
544097,-185,-220,-246,3173,-1349,-7342,1745225844614961219
544289,-261,-200,-298,3609,-485,-7795,1745225844614961219
544481,-303,-277,-359,3594,461,-8802,1745225844658084158
544673,-250,-273,-286,2806,-456,-8892,1745225844658084158
544865,-189,-252,-192,2666,-1575,-7336,1745225844658084158
545057,-167,-204,-209,3301,-1787,-6396,1745225844658084158
545249,-263,-200,-270,3691,-1102,-6799,1745225844658084158
545441,-323,-207,-288,3469,231,-7991,1745225844658084158
545633,-309,-232,-268,3065,703,-8444,1745225844658084158
545825,-209,-218,-206,3019,-62,-7906,1745225844658084158
546017,-141,-193,-169,3206,-1172,-7304,1745225844658084158
546209,-151,-181,-164,2978,-1636,-7084,1745225844658084158
546401,-211,-143,-147,2866,-1438,-6999,1745225844658084158
546593,-225,-112,-124,3121,-812,-6934,1745225844658084158
546785,-210,-99,-115,3106,-457,-6996,1745225844720168539
546977,-206,-103,-102,3297,170,-7381,1745225844720168539
547169,-196,-128,-84,3212,761,-7897,1745225844720168539
547361,-152,-157,-40,3041,827,-8306,1745225844720168539
547553,-68,-154,31,2536,-136,-7838,1745225844720168539
547745,-36,-113,67,3107,-1000,-7748,1745225844720168539
547937,-20,-144,66,2902,-1220,-7515,1745225844720168539
548129,-57,-96,100,2811,-1406,-7843,1745225844720168539
548321,-97,-71,97,2564,-642,-7561,1745225844720168539
548513,-132,-58,50,2996,775,-8209,1745225844720168539
548705,-74,-38,80,2531,700,-8343,1745225844720168539
548897,35,23,131,2800,-64,-8009,1745225844720168539
549089,132,39,140,3018,-1149,-7742,1745225844775279286
549281,138,60,183,2671,-2481,-7478,1745225844775279286
549473,101,120,224,2661,-2756,-6510,1745225844775279286
549665,5,110,150,3382,-1561,-6672,1745225844775279286
549857,-48,59,92,3672,305,-7534,1745225844775279286
550049,9,34,120,2914,540,-7897,1745225844775279286
550241,116,55,155,2864,-454,-7311,1745225844775279286
550433,160,50,135,3642,-1169,-7034,1745225844775279286
550625,121,18,136,3617,-1576,-7420,1745225844775279286
550817,98,26,170,2926,-1590,-7207,1745225844775279286
551009,74,37,146,3080,-1532,-7046,1745225844775279286
551201,44,22,109,3333,-1150,-6993,1745225844775279286
551393,22,11,110,3231,-842,-7347,1745225844833545056
551585,51,21,124,3207,-882,-7153,1745225844833545056
551777,69,11,97,3666,-971,-7391,1745225844833545056
551969,54,-29,74,3351,-986,-7854,1745225844833545056
552161,27,-29,88,2855,-1276,-7983,1745225844833545056
552353,20,-17,64,3156,-1241,-7692,1745225844833545056
552545,18,-20,27,3191,-1399,-7489,1745225844833545056
552737,5,3,36,3062,-1694,-7130,1745225844833545056
552929,-9,20,15,3413,-1611,-7086,1745225844833545056
553121,-23,-4,-24,3529,-1389,-7220,1745225844833545056
553313,-51,-17,-20,3197,-1701,-7286,1745225844833545056
553505,-64,-17,-14,3326,-1544,-7079,1745225844833545056
553697,-77,-33,-42,3278,-1284,-7089,1745225844894010962
553889,-99,-33,-37,3149,-1330,-7068,1745225844894010962
554081,-126,-46,-48,3397,-1154,-7206,1745225844894010962
554273,-162,-78,-77,3198,-1129,-7360,1745225844894010962
554465,-204,-86,-67,2919,-1311,-7494,1745225844894010962
554657,-210,-88,-64,3108,-956,-7458,1745225844894010962
554849,-195,-100,-77,3060,-856,-7533,1745225844894010962
555041,-178,-92,-63,3098,-914,-7393,1745225844894010962
555233,-163,-86,-77,3033,-421,-7574,1745225844894010962
555425,-153,-76,-88,2667,-292,-7684,1745225844894010962
555617,-125,-37,-81,2830,-561,-7711,1745225844894010962
555809,-83,-27,-93,3092,-842,-7804,1745225844894010962
556001,-71,-24,-80,3075,-2240,-1,1745225844952105014
556193,-85,-17,-74,3065,-765,-7669,1745225844952105014
556385,-114,-34,-103,2621,-372,-8178,1745225844952105014
556577,-110,-25,-87,2598,-382,-7975,1745225844952105014
556769,-56,-12,-91,3008,-256,-7810,1745225844952105014
556961,-27,-18,-92,2842,-686,-7752,1745225844952105014
557153,-17,10,-50,3052,-838,-7498,1745225844952105014
557345,-27,15,-67,3064,-399,-7630,1745225844952105014
557537,-43,31,-59,2740,-611,-7871,1745225844952105014
557729,-15,63,-28,3147,-683,-7664,1745225844952105014
557921,16,59,-53,3266,-698,-7755,1745225844952105014
558113,14,61,-32,3173,-873,-7620,1745225844952105014
558305,3,63,-29,3144,-553,-7684,1745225845013361434
558497,-12,61,-52,2649,-426,-7746,1745225845013361434
558689,-9,84,-33,2746,-692,-7704,1745225845013361434
558881,24,87,-36,3231,-649,-7419,1745225845013361434
559073,46,73,-39,3286,-966,-7448,1745225845013361434
559265,33,66,-17,3054,-1105,-7431,1745225845013361434
559457,2,68,-25,2820,-721,-7469,1745225845013361434
559649,-15,79,-26,2965,-877,-7339,1745225845013361434
559841,-16,80,-23,3380,-1013,-7332,1745225845013361434
560033,-14,68,-29,3375,-712,-7442,1745225845013361434
560225,-2,62,-24,3073,-55,-7731,1745225845013361434
560417,26,52,-32,2847,388,-7886,1745225845013361434
560609,97,62,-19,2743,775,-7988,1745225845067421357
560801,218,85,25,3129,214,-7783,1745225845067421357
560993,273,95,21,3309,-1316,-7491,1745225845067421357
561185,247,94,28,3328,-2004,-7407,1745225845067421357
561377,156,95,22,3208,-1975,-7506,1745225845067421357
561569,66,94,4,2994,-1424,-7458,1745225845067421357
561761,40,104,-2,3099,-859,-7365,1745225845067421357
561953,59,110,-6,3186,-760,-7261,1745225845067421357
562145,75,113,-3,3175,-975,-7211,1745225845067421357
562337,71,114,0,3257,-1092,-7162,1745225845067421357
562529,46,104,-13,3304,-1105,-7470,1745225845067421357
562721,25,89,-7,3206,-1110,-7528,1745225845067421357
562913,32,95,-2,3205,-1162,-7422,1745225845132604042
563105,32,95,-15,3210,-1209,-7325,1745225845132604042
563297,10,96,-22,3255,-1148,-7310,1745225845132604042
563489,-9,93,-21,3401,-951,-7178,1745225845132604042
563681,-11,82,-31,3422,-813,-7367,1745225845132604042
563873,-9,75,-26,3235,-842,-7314,1745225845132604042
564065,-8,84,-18,3291,-968,-7309,1745225845132604042
564257,-15,77,-21,3314,-1125,-7216,1745225845132604042
564449,-29,89,-25,3331,-1061,-7242,1745225845132604042
564641,-48,86,-35,3366,-817,-7132,1745225845132604042
564833,-58,85,-43,3517,-632,-7422,1745225845132604042
565025,-52,71,-37,3303,-764,-7458,1745225845132604042
565217,-38,82,-24,3237,-951,-7359,1745225845184430131
565409,-35,83,-32,3323,-1031,-7295,1745225845184430131
565601,-43,86,-34,3425,-1036,-7321,1745225845184430131
565793,-51,82,-30,3464,-1064,-7171,1745225845184430131
565985,-61,76,-38,3500,-1099,-7222,1745225845184430131
566177,-75,66,-45,3401,-1014,-7368,1745225845184430131
566369,-83,68,-44,3278,-1133,-7438,1745225845184430131
566561,-90,78,-45,3165,-1349,-7461,1745225845184430131
566753,-88,97,-50,3278,-1256,-7376,1745225845184430131
566945,-85,98,-71,3344,-1175,-7301,1745225845184430131
567137,-90,103,-78,3382,-1160,-7316,1745225845184430131
567329,-97,95,-81,3415,-1135,-7320,1745225845184430131
567521,-94,90,-79,3364,-1085,-7335,1745225845244763226
567713,-95,80,-82,3313,-990,-7409,1745225845244763226
567905,-96,68,-87,3294,-832,-7431,1745225845244763226
568097,-101,54,-86,3277,-716,-7378,1745225845244763226
568289,-97,47,-76,3245,-634,-7325,1745225845244763226
568481,-112,24,-72,3266,-897,-7342,1745225845244763226
568673,-113,17,-51,3257,-892,-7173,1745225845244763226
568865,-109,12,-48,3267,-741,-7082,1745225845244763226
569057,-112,7,-61,3195,-773,-7110,1745225845244763226
569249,-125,3,-62,3171,-756,-7238,1745225845244763226
569441,-127,6,-62,3216,-660,-7297,1745225845244763226
569633,-113,9,-58,3299,-679,-7253,1745225845244763226
569825,-95,6,-51,3387,-815,-7276,1745225845301486718
570017,-91,-1,-42,3347,-975,-7173,1745225845301486718
570209,-98,-10,-39,3424,-854,-7177,1745225845301486718
570401,-99,-27,-52,3373,-702,-7290,1745225845301486718
570593,-95,-35,-57,3242,-742,-7430,1745225845301486718
570785,-82,-34,-43,3177,-810,-7406,1745225845301486718
570977,-64,-31,-30,3268,-817,-7267,1745225845301486718
571169,-56,-31,-30,3307,-798,-7223,1745225845301486718
571361,-51,-30,-38,3293,-598,-7359,1745225845301486718
571553,-49,-37,-54,3199,-318,-7590,1745225845301486718
571745,-45,-43,-53,3073,-286,-7596,1745225845301486718
571937,-36,-42,-27,3083,-562,-7430,1745225845301486718
572129,-34,-36,-2,3223,-794,-7299,1745225845361672471
572321,-39,-33,-2,3271,-756,-7311,1745225845361672471
572513,-42,-32,-18,3252,-433,-7467,1745225845361672471
572705,-37,-36,-33,3224,-141,-7747,1745225845361672471
572897,-21,-43,-28,3153,-89,-7760,1745225845361672471
573089,4,-44,-9,3204,-309,-7613,1745225845361672471
573281,24,-52,-2,3252,-541,-7532,1745225845361672471
573473,30,-55,-9,3116,-634,-7472,1745225845361672471
573665,28,-53,-9,3147,-649,-7532,1745225845361672471
573857,32,-54,-9,3219,-588,-7572,1745225845361672471
574049,36,-56,3,3190,-738,-7435,1745225845361672471
574241,31,-42,26,3213,-953,-7198,1745225845361672471
574433,17,-34,35,3333,-931,-7112,1745225845434010820
574625,12,-28,26,3364,-679,-7228,1745225845434010820
574817,8,-31,18,3378,-529,-7340,1745225845434010820
575009,4,-38,11,3361,-452,-7446,1745225845434010820
575201,-5,-49,8,3238,-355,-7613,1745225845434010820
575393,-7,-50,12,3157,-261,-7609,1745225845434010820
575585,-1,-55,20,3136,-452,-7566,1745225845434010820
575777,5,-54,25,3194,-757,-7487,1745225845434010820
575969,7,-52,23,3243,-854,-7375,1745225845434010820
576161,9,-44,10,3186,-736,-7420,1745225845434010820
576353,7,-36,-2,3111,-646,-7503,1745225845434010820
576545,7,-26,3,3067,-716,-7485,1745225845434010820
576737,9,-15,19,3066,-873,-7397,1745225845483079070
576929,15,-6,26,3196,-875,-7245,1745225845483079070
577121,19,-9,7,3317,-738,-7453,1745225845483079070
577313,18,-13,-12,3182,-606,-7684,1745225845483079070
577505,7,-14,-11,2997,-635,-7982,1745225845483079070
577697,6,-13,8,2835,-797,-7858,1745225845483079070
577889,13,4,35,2912,-1189,-7488,1745225845483079070
578081,23,13,43,3207,-1246,-7233,1745225845483079070
578273,29,11,20,3159,-959,-7289,1745225845483079070
578465,16,13,11,2889,-800,-7463,1745225845483079070
578657,5,16,24,2738,-851,-7545,1745225845483079070
578849,6,23,50,2835,-1116,-7181,1745225845483079070
579041,4,33,72,3294,-1433,-6968,1745225845538393200
579233,-4,18,62,3432,-1344,-7053,1745225845538393200
579425,-21,7,32,3171,-1129,-7343,1745225845538393200
579617,-50,-1,16,3052,-917,-7421,1745225845538393200
579809,-66,-9,12,3162,-896,-7420,1745225845538393200
580001,-63,-13,18,3364,-939,-7274,1745225845538393200
580193,-54,-19,14,3356,-938,-7406,1745225845538393200
580385,-53,-26,8,3086,-894,-7588,1745225845538393200
580577,-55,-20,5,3014,-791,-7509,1745225845538393200
580769,-44,-23,4,3170,-724,-7533,1745225845538393200
580961,-15,-23,13,3306,-737,-7489,1745225845538393200
581153,-1,-27,21,3300,-912,-7487,1745225845538393200
581345,-2,-25,32,3029,-1005,-7481,1745225845601067836
581537,-23,-8,40,2833,-942,-7466,1745225845601067836
581729,-36,10,33,3013,-596,-7452,1745225845601067836
581921,-28,16,18,3369,-180,-7601,1745225845601067836
582113,1,4,18,3354,-48,-7914,1745225845601067836
582305,24,-2,41,3033,-373,-7946,1745225845601067836
582497,24,1,67,2855,-898,-7805,1745225845601067836
582689,21,16,84,2903,-1327,-7387,1745225845601067836
582881,11,29,92,3198,-1244,-6979,1745225845601067836
583073,8,32,76,3434,-736,-6899,1745225845601067836
583265,1,27,59,3217,-498,-7189,1745225845601067836
583457,1,28,63,3132,-529,-7562,1745225845601067836
583649,11,15,77,3248,-646,-7525,1745225845658536842
583841,16,14,99,3352,-875,-7268,1745225845658536842
584033,8,11,107,3409,-927,-7101,1745225845658536842
584225,-9,2,79,3442,-554,-7248,1745225845658536842
584417,-19,-67,51,3412,-346,-7496,1745225845658536842
584609,-34,-84,56,3232,-689,-7977,1745225845658536842
584801,-37,-13,74,3302,-751,-7549,1745225845658536842
584993,-45,-17,68,3217,-894,-7455,1745225845658536842
585185,-56,-6,63,3258,-816,-7311,1745225845658536842
585377,-54,-6,40,3473,-275,-7491,1745225845658536842
585569,-39,-29,11,3471,86,-7803,1745225845658536842
585761,-19,-42,23,3273,-340,-7824,1745225845658536842
586721,-36,-43,41,3601,-440,-7464,1745225848591195834
699233,270,13,-65,3208,-1224,-7531,1745225848591195834
699425,244,22,-70,3406,-621,-7779,1745225848591195834
699617,194,71,-68,2979,-663,-7839,1745225848591195834
699809,173,92,-67,2871,-1286,-7737,1745225848591195834
700001,145,112,-72,3295,-1487,-7493,1745225848591195834
700001,145,112,-72,3295,-1487,-7493,1745225848591195834
700385,82,90,-74,2957,-1366,-7455,1745225848591195834
700577,27,93,-66,2994,-1234,-7211,1745225848591195834
700769,-19,76,-71,3101,-1339,-7208,1745225848591195834
700961,-65,79,-57,3181,-1557,-7184,1745225848591195834
701153,-102,70,-43,3209,-1647,-7215,1745225848591195834
701345,-147,55,-37,3288,-1524,-7428,1745225848642443803
701537,-176,58,-30,3072,-1065,-7959,1745225848642443803
701729,-170,81,7,2822,-287,-7982,1745225848642443803
701921,-97,107,21,3036,75,-8063,1745225848642443803
702113,-18,132,17,3253,-283,-7938,1745225848642443803
702305,26,154,32,3292,-724,-7761,1745225848642443803
702497,14,165,24,3304,-992,-7881,1745225848642443803
702689,8,191,25,3689,-531,-8260,1745225848642443803
702881,56,176,50,3232,-454,-7552,1745225848642443803
703073,32,115,51,2933,-1220,-7882,1745225848642443803
703265,53,89,34,3192,-747,-7569,1745225848642443803
703457,51,80,24,3129,-629,-7289,1745225848642443803
703649,52,70,21,3131,-698,-6889,1745225848709966415
703841,84,-22,20,4085,241,-6767,1745225848709966415
704033,79,11,24,2866,-705,-7334,1745225848709966415
704225,56,27,22,3066,-1371,-7167,1745225848709966415
704417,38,29,-4,3571,-1353,-6962,1745225848709966415
704609,-13,38,-14,3730,-960,-6929,1745225848709966415
704801,-46,29,-16,3543,-500,-7071,1745225848709966415
704993,-44,23,-23,3474,-345,-7229,1745225848709966415
705185,-19,25,-27,3455,-460,-7308,1745225848709966415
705377,-18,24,-30,3379,-773,-7452,1745225848709966415
705569,-33,25,-19,3357,-991,-7403,1745225848709966415
705761,-37,31,-22,3373,-1055,-7383,1745225848709966415
705953,-54,35,-32,3392,-1222,-7342,1745225848765228983
705953,-54,35,-32,3392,-1222,-7342,1745225848765228983
706337,-120,32,-44,3360,-858,-7640,1745225848765228983
706529,-122,55,-53,3113,-819,-7637,1745225848765228983
706721,-117,64,-51,3152,-1018,-7567,1745225848765228983
706913,-114,73,-59,3279,-971,-7502,1745225848765228983
707105,-128,67,-74,3371,-924,-7576,1745225848765228983
707297,-124,61,-75,3290,-943,-7489,1745225848765228983
707489,-119,65,-79,3269,-1085,-7458,1745225848765228983
707681,-122,67,-85,3272,-1287,-7363,1745225848765228983
707873,-141,72,-78,3337,-1821,-7526,1745225848765228983
708065,-204,62,-35,3282,-2641,-7364,1745225848765228983
708257,-248,96,0,3064,-1908,-6852,1745225848824260736
708449,-197,145,-76,3158,-506,-6854,1745225848824260736
708641,-183,161,-157,3257,-394,-6875,1745225848824260736
708833,-147,178,-121,3533,-700,-7147,1745225848824260736
709025,-115,186,-92,3402,-820,-7129,1745225848824260736
709217,-123,192,-96,3279,-1076,-7315,1745225848824260736
709409,-145,184,-91,3378,-1110,-7467,1745225848824260736
709601,-169,180,-96,3466,-823,-7544,1745225848824260736
709793,-189,171,-124,3309,-488,-7688,1745225848824260736
709985,-184,167,-148,3164,-287,-7876,1745225848824260736
710177,-170,162,-157,3084,-356,-7886,1745225848824260736
710369,-149,164,-144,3111,-602,-7812,1745225848824260736
710561,-138,159,-124,3076,-959,-7589,1745225848876707913
710753,-126,174,-103,3039,-1156,-7375,1745225848876707913
710945,-124,199,-113,3005,-1147,-7396,1745225848876707913
711137,-132,226,-138,3082,-975,-7516,1745225848876707913
711329,-143,241,-147,3214,-814,-7634,1745225848876707913
711521,-127,254,-133,3339,-740,-7581,1745225848876707913
711713,-114,262,-118,3447,-832,-7521,1745225848876707913
711905,-103,263,-105,3510,-941,-7397,1745225848876707913
712097,-101,274,-104,3481,-988,-7471,1745225848876707913
712289,-108,283,-113,3416,-1029,-7662,1745225848876707913
712481,-114,296,-116,3296,-1202,-7726,1745225848876707913
712673,-119,317,-110,3268,-1506,-7652,1745225848876707913
712865,-114,338,-103,3250,-1762,-7458,1745225848943336315
713057,-130,359,-103,3275,-1939,-7447,1745225848943336315
713249,-153,367,-115,3323,-1985,-7446,1745225848943336315
713441,-163,374,-148,3462,-1880,-7450,1745225848943336315
713633,-212,332,-208,3495,-1788,-7772,1745225848943336315
713825,-252,330,-232,2981,-1443,-7636,1745225848943336315
714017,-199,347,-217,2803,-851,-7664,1745225848943336315
714209,-114,341,-241,2912,-580,-7544,1745225848943336315
714401,-51,323,-265,3256,-783,-7245,1745225848943336315
714593,-21,300,-269,3491,-1120,-6946,1745225848943336315
714785,-29,278,-273,3549,-1294,-6955,1745225848943336315
714977,-48,257,-285,3408,-1199,-6883,1745225848943336315
715169,-63,250,-293,3280,-988,-6780,1745225848998526696
715361,-49,246,-284,3387,-754,-6518,1745225848998526696
715553,-25,236,-275,3624,-668,-6355,1745225848998526696
715745,-18,209,-279,3817,-706,-6488,1745225848998526696
715937,-28,179,-283,3722,-711,-6682,1745225848998526696
716129,-51,152,-287,3526,-562,-6947,1745225848998526696
716321,-70,127,-289,3371,-286,-7097,1745225848998526696
716513,-85,107,-287,3288,-27,-7136,1745225848998526696
716705,-98,87,-276,3275,-17,-7236,1745225848998526696
716897,-108,68,-254,3315,-165,-7368,1745225848998526696
717089,-112,47,-233,3287,-225,-7343,1745225848998526696
717281,-96,41,-220,3359,-116,-7373,1745225848998526696
717473,-63,26,-230,3468,42,-7442,1745225849076048696
717665,-29,8,-244,3541,-36,-7589,1745225849076048696
717857,-19,-24,-232,3546,-377,-7503,1745225849076048696
718049,-21,-37,-194,3476,-706,-7209,1745225849076048696
718241,-38,-43,-172,3407,-733,-7019,1745225849076048696
718433,-68,-35,-178,3371,-492,-7176,1745225849076048696
718625,-90,-38,-184,3378,-136,-7413,1745225849076048696
718817,-87,-40,-174,3381,260,-7328,1745225849076048696
719009,-73,-37,-160,3417,474,-7206,1745225849076048696
719201,-41,-37,-139,3493,397,-7277,1745225849076048696
719393,-14,-28,-120,3475,28,-7372,1745225849076048696
719585,30,-5,-97,3502,-237,-7417,1745225849076048696
719777,88,21,-100,3681,-172,-7386,1745225849118522371
719969,108,32,-130,3810,-152,-7456,1745225849118522371
720161,107,35,-137,3754,-276,-7575,1745225849118522371
720353,98,35,-114,3561,-411,-7528,1745225849118522371
720545,88,45,-84,3455,-421,-7261,1745225849118522371
720737,75,56,-73,3574,-327,-7030,1745225849118522371
720929,58,62,-80,3722,-184,-7002,1745225849118522371
721121,41,65,-95,3852,-114,-7153,1745225849118522371
721313,46,45,-109,4031,-42,-7338,1745225849118522371
721505,59,22,-130,4199,62,-7508,1745225849118522371
721697,67,-32,-162,4644,391,-8113,1745225849118522371
721889,76,-127,-224,4763,844,-8974,1745225849118522371
722081,66,-207,-305,4011,1310,-9616,1745225849177580581
722273,42,-227,-381,2764,2182,-8524,1745225849177580581
722465,-10,-105,-435,2021,2776,-6420,1745225849177580581
722657,-60,61,-391,3086,2059,-5061,1745225849177580581
722849,14,164,-220,4995,-71,-4509,1745225849177580581
723041,133,195,-3,6023,-3143,-4326,1745225849177580581
723233,196,210,162,5890,-5636,-4443,1745225849177580581
723425,148,237,161,5064,-6355,-4927,1745225849177580581
723617,-10,278,-6,4436,-4912,-6060,1745225849177580581
723809,-223,295,-223,4372,-1869,-7438,1745225849177580581
724001,-366,279,-347,4588,1303,-8550,1745225849177580581
724193,-371,207,-349,4650,3304,-9053,1745225849177580581
724385,-260,119,-257,4421,3393,-8888,1745225849232295081
724577,-89,56,-122,3980,1718,-8380,1745225849232295081
724769,73,37,-25,3543,-544,-7814,1745225849232295081
724961,146,90,-6,2960,-2310,-6677,1745225849232295081
725153,105,150,-42,3484,-2942,-7224,1745225849232295081
725345,61,174,-101,3844,-2299,-7240,1745225849232295081
725537,-35,201,-145,3841,-1734,-7325,1745225849232295081
725729,-103,224,-149,3592,-1244,-7492,1745225849232295081
725921,-127,235,-195,3561,-372,-8108,1745225849232295081
726113,-112,217,-283,3620,692,-8513,1745225849232295081
726305,-84,192,-340,3369,1364,-8478,1745225849232295081
726497,-50,190,-338,3063,1677,-8196,1745225849232295081
726689,3,192,-311,3034,1716,-7712,1745225849293481397
726881,72,187,-281,3263,1338,-7107,1745225849293481397
727073,151,180,-240,3562,689,-6724,1745225849293481397
727265,202,165,-224,3612,199,-6678,1745225849293481397
727457,197,150,-221,3391,17,-6891,1745225849293481397
727649,172,134,-204,3303,115,-7180,1745225849293481397
727841,141,111,-188,3280,143,-7159,1745225849293481397
728033,115,111,-171,3310,-34,-7229,1745225849293481397
728225,109,107,-149,3465,-245,-7348,1745225849293481397
728417,110,107,-125,3617,-477,-7461,1745225849293481397
728609,142,120,-92,3808,-678,-7373,1745225849293481397
728801,209,138,-74,4043,-794,-7375,1745225849293481397
728993,237,139,-72,4123,-937,-7261,1745225849352750179
729185,218,146,-47,4025,-1006,-7052,1745225849352750179
729377,192,160,-23,3902,-923,-6961,1745225849352750179
729569,171,181,-17,3772,-628,-7003,1745225849352750179
729761,150,204,-15,3762,-227,-7172,1745225849352750179
729953,151,222,3,3901,25,-7128,1745225849352750179
730145,179,219,26,4054,-6,-7038,1745225849352750179
730337,207,214,52,3973,-107,-6975,1745225849352750179
730529,209,216,78,3819,-150,-6988,1745225849352750179
730721,210,223,95,3759,-97,-6860,1745225849352750179
730913,217,223,101,3893,96,-6863,1745225849352750179
731105,220,206,102,4093,352,-6842,1745225849352750179
731297,223,182,106,4223,402,-6902,1745225849412933171
731489,231,147,110,4228,135,-6972,1745225849412933171
731681,226,111,129,4094,-194,-7068,1745225849412933171
731873,193,89,157,4043,-447,-6863,1745225849412933171
732065,145,62,172,4137,-535,-6709,1745225849412933171
732257,108,59,165,4164,-485,-6797,1745225849412933171
732449,82,53,143,4092,-323,-6974,1745225849412933171
732641,51,55,141,3916,-180,-7099,1745225849412933171
732833,28,62,175,3828,-319,-7146,1745225849412933171
733025,48,71,215,3847,-532,-7124,1745225849412933171
733217,75,83,223,3836,-653,-7058,1745225849412933171
733409,82,107,209,3849,-584,-7080,1745225849412933171
733601,76,121,184,3925,-336,-7243,1745225849466703148
733793,80,130,164,3987,-152,-7336,1745225849466703148
733985,95,135,165,3991,-234,-7363,1745225849466703148
734177,121,143,188,3969,-536,-7226,1745225849466703148
734369,147,152,203,4056,-896,-7120,1745225849466703148
734561,166,147,194,4186,-1112,-6966,1745225849466703148
734753,166,143,174,4275,-1164,-6863,1745225849466703148
734945,149,139,156,4246,-983,-6808,1745225849466703148
735137,134,138,143,4210,-868,-6785,1745225849466703148
735329,130,136,139,4199,-997,-6791,1745225849466703148
735521,138,136,149,4186,-1269,-6841,1745225849466703148
735713,135,143,159,4222,-1422,-6885,1745225849466703148
735905,123,153,154,4233,-1376,-6915,1745225849528839924
736097,107,166,141,4154,-1195,-6930,1745225849528839924
736289,100,190,135,4052,-938,-6927,1745225849528839924
736481,117,212,130,4072,-659,-6898,1745225849528839924
736673,148,219,116,4239,-574,-7029,1745225849528839924
736865,161,212,106,4309,-817,-7109,1745225849528839924
737057,152,208,112,4289,-1084,-7268,1745225849528839924
737249,136,207,107,4106,-1201,-7239,1745225849528839924
737441,113,221,94,3966,-1093,-7149,1745225849528839924
737633,98,235,81,3994,-923,-7001,1745225849528839924
737825,88,241,68,4139,-806,-6968,1745225849528839924
738017,90,240,66,4199,-773,-6771,1745225849528839924
738209,106,234,69,4280,-789,-6602,1745225849584342699
738401,122,214,60,4295,-827,-6558,1745225849584342699
738593,129,197,53,4259,-809,-6562,1745225849584342699
738785,125,186,52,4212,-716,-6576,1745225849584342699
738977,129,179,53,4215,-627,-6540,1745225849584342699
739169,130,167,48,4223,-686,-6604,1745225849584342699
739361,126,162,48,4214,-766,-6673,1745225849584342699
739553,120,156,49,4349,-728,-6837,1745225849584342699
739745,122,137,41,4512,-613,-6884,1745225849584342699
739937,131,117,31,4626,-561,-6793,1745225849584342699
740129,134,95,21,4603,-598,-6651,1745225849584342699
740321,133,79,19,4457,-698,-6653,1745225849584342699
740513,130,70,19,4326,-790,-6695,1745225849643539241
740705,120,58,12,4362,-934,-6886,1745225849643539241
740897,96,56,6,4375,-1094,-7110,1745225849643539241
741089,60,63,0,4293,-1084,-7228,1745225849643539241
741281,31,81,-8,4220,-909,-7233,1745225849643539241
741473,14,89,-23,4347,-669,-7205,1745225849643539241
741665,17,85,-36,4559,-478,-7146,1745225849643539241
741857,24,76,-52,4636,-396,-7156,1745225849643539241
742049,36,74,-70,4449,-382,-7131,1745225849643539241
742241,39,75,-79,4385,-417,-7356,1745225849643539241
742433,49,65,-74,4510,-511,-7209,1745225849643539241
742625,84,52,-73,4662,-688,-6939,1745225849643539241
742817,99,44,-84,4593,-969,-6652,1745225849702161050
743009,87,52,-90,4413,-1135,-6582,1745225849702161050
743201,68,63,-92,4367,-1132,-6539,1745225849702161050
743393,72,78,-98,4496,-1050,-6630,1745225849702161050
743585,102,85,-123,4681,-862,-6728,1745225849702161050
743777,111,83,-156,4534,-768,-6900,1745225849702161050
743969,30,92,-156,4255,-773,-7109,1745225849702161050
744161,-1,130,-127,4246,-447,-6936,1745225849702161050
744353,39,143,-136,4510,-202,-6725,1745225849702161050
744545,79,132,-148,4766,-459,-6613,1745225849702161050
744737,107,114,-129,4803,-780,-6674,1745225849702161050
744929,102,96,-120,4555,-952,-6731,1745225849702161050
745121,70,88,-118,4292,-962,-6779,1745225849761043480
745313,39,82,-105,4121,-888,-6713,1745225849761043480
745505,27,77,-87,4045,-819,-6643,1745225849761043480
745697,29,68,-83,4023,-824,-6808,1745225849761043480
745889,38,56,-77,4013,-894,-6925,1745225849761043480
746081,44,44,-69,3981,-989,-6965,1745225849761043480
746273,48,27,-64,3976,-1078,-6878,1745225849761043480
746465,61,14,-63,3929,-1119,-6780,1745225849761043480
746657,62,8,-64,3896,-1175,-6753,1745225849761043480
746849,48,23,-48,3841,-1227,-6628,1745225849761043480
747041,47,49,-31,3981,-1174,-6682,1745225849761043480
747233,52,63,-30,4175,-1100,-6811,1745225849761043480
747425,53,73,-21,4257,-995,-6873,1745225849820057577
747617,60,84,-7,4246,-844,-6894,1745225849820057577
747809,68,92,-3,4259,-795,-6909,1745225849820057577
748001,78,102,3,4271,-879,-6838,1745225849820057577
748193,88,113,21,4296,-959,-6720,1745225849820057577
748385,93,121,33,4342,-962,-6713,1745225849820057577
748577,104,121,39,4434,-934,-6703,1745225849820057577
748769,117,108,40,4540,-930,-6738,1745225849820057577
748961,122,94,47,4537,-908,-6616,1745225849820057577
749153,121,87,63,4446,-887,-6402,1745225849820057577
749345,136,85,80,4369,-749,-6151,1745225849820057577
749537,169,82,86,4323,-540,-5965,1745225849820057577
749729,196,63,82,4375,-427,-5925,1745225849875512070
749921,207,37,85,4410,-414,-5954,1745225849875512070
750113,212,9,102,4436,-336,-6100,1745225849875512070
750305,214,-17,117,4545,-264,-6421,1745225849875512070
750497,204,-52,115,4656,-619,-6705,1745225849875512070
750689,199,-79,104,4593,-1239,-7053,1745225849875512070
750881,165,-83,97,4455,-1591,-7530,1745225849875512070
751073,97,-54,111,4342,-1604,-7580,1745225849875512070
751265,42,-2,146,4394,-1351,-7461,1745225849875512070
751457,26,38,177,4463,-987,-7144,1745225849875512070
751649,31,73,195,4521,-777,-7094,1745225849875512070
751841,33,87,201,4484,-752,-6932,1745225849875512070
752033,43,97,201,4506,-807,-6992,1745225849938789357
752225,66,102,196,4549,-784,-6937,1745225849938789357
752417,81,111,189,4562,-674,-6758,1745225849938789357
752609,95,115,177,4615,-559,-6705,1745225849938789357
752801,99,110,167,4553,-630,-6867,1745225849938789357
752993,102,84,155,4781,-1276,-6975,1745225849938789357
753185,74,53,144,4978,-1675,-6623,1745225849938789357
753377,75,76,167,5206,-1619,-6299,1745225849938789357
753569,56,68,143,5150,-1339,-6248,1745225849938789357
753761,3,53,111,4973,-1122,-6346,1745225849938789357
753953,-30,41,110,4800,-925,-6320,1745225849938789357
754145,-39,29,116,4727,-803,-6195,1745225849938789357
754337,-46,1,113,4750,-866,-6099,1745225849994015154
754529,-30,-26,105,4940,-847,-6121,1745225849994015154
754721,-32,-53,102,4988,-919,-6223,1745225849994015154
754913,-45,-71,106,4859,-971,-6391,1745225849994015154
755105,-71,-77,108,4686,-1023,-6650,1745225849994015154
755297,-93,-82,109,4548,-1019,-6746,1745225849994015154
755489,-104,-73,115,4414,-1121,-6771,1745225849994015154
755681,-105,-58,116,4412,-1181,-6732,1745225849994015154
755873,-121,-57,118,4430,-1297,-6638,1745225849994015154
756065,-127,-59,109,4588,-1256,-6686,1745225849994015154
756257,-121,-58,87,4603,-1055,-6715,1745225849994015154
756449,-114,-57,63,4578,-839,-6801,1745225849994015154
756641,-103,-70,54,4424,-714,-6798,1745225850052823315
756833,-63,-66,62,4354,-545,-6692,1745225850052823315
757025,-36,-78,81,4262,-601,-6499,1745225850052823315
757217,-4,-82,103,4335,-823,-6362,1745225850052823315
757409,29,-92,106,4475,-958,-6425,1745225850052823315
757601,39,-110,102,4723,-1067,-6384,1745225850052823315
757793,43,-129,88,4764,-899,-6386,1745225850052823315
757985,48,-141,76,4597,-663,-6315,1745225850052823315
758177,66,-160,62,4533,-467,-6463,1745225850052823315
758369,89,-187,52,4493,-376,-6478,1745225850052823315
758561,113,-211,58,4503,-361,-6470,1745225850052823315
758753,136,-241,74,4468,-463,-6513,1745225850052823315
758945,154,-270,86,4483,-709,-6680,1745225850111008096
759137,172,-296,73,4538,-905,-6750,1745225850111008096
759329,195,-313,46,4452,-902,-6680,1745225850111008096
759521,204,-322,22,4379,-860,-6789,1745225850111008096
759713,183,-321,22,4234,-875,-6768,1745225850111008096
759905,140,-297,43,4120,-844,-6778,1745225850111008096
760097,106,-275,65,4158,-858,-7002,1745225850111008096
760289,83,-263,89,4291,-979,-7211,1745225850111008096
760481,73,-258,119,4435,-1115,-7271,1745225850111008096
760673,69,-247,149,4461,-1085,-7188,1745225850111008096
760865,53,-239,165,4340,-1328,-7450,1745225850111008096
761057,30,-231,194,4419,-1729,-7326,1745225850111008096
761249,40,-229,214,4696,-1259,-7009,1745225850178790029
761441,31,-220,194,4403,-642,-6866,1745225850178790029
761633,-14,-216,186,4119,-699,-6824,1745225850178790029
761825,-9,-224,228,4147,-814,-6661,1745225850178790029
762017,31,-216,271,4233,-517,-6574,1745225850178790029
762209,37,-216,260,4120,-341,-6797,1745225850178790029
762401,24,-216,248,3975,-470,-6955,1745225850178790029
762593,40,-224,285,4066,-570,-6925,1745225850178790029
762785,81,-236,336,4123,-362,-6786,1745225850178790029
762977,91,-242,357,3956,-496,-6799,1745225850178790029
763169,98,-248,388,3800,-944,-6625,1745225850178790029
763361,140,-252,439,3921,-1190,-6675,1745225850178790029
763553,163,-264,465,3986,-1475,-6852,1745225850227449741
763745,151,-274,478,3940,-1837,-6895,1745225850227449741
763937,131,-285,493,4015,-2077,-6959,1745225850227449741
764129,120,-294,486,4085,-1952,-6843,1745225850227449741
764321,98,-304,458,3976,-1755,-6972,1745225850227449741
764513,61,-305,452,3605,-1603,-6881,1745225850227449741
764705,42,-292,481,3509,-1519,-6739,1745225850227449741
764897,72,-288,503,3654,-1362,-6616,1745225850227449741
765089,113,-289,482,3714,-1227,-6559,1745225850227449741
765281,135,-302,454,3648,-1278,-6851,1745225850227449741
765473,173,-317,462,3547,-1291,-6830,1745225850227449741
765665,204,-327,475,3432,-1641,-7069,1745225850227449741
765857,233,-320,493,3405,-1996,-6894,1745225850287018259
766049,260,-304,483,3567,-2155,-6883,1745225850287018259
766241,244,-296,447,3509,-2162,-6666,1745225850287018259
766433,200,-308,401,3330,-2887,-8239,1745225850287018259
766625,109,-281,447,3538,-4301,-7217,1745225850287018259
766817,199,-275,468,4457,-3713,-7446,1745225850287018259
767009,164,-279,310,3675,-2922,-7305,1745225850287018259
767201,111,-279,240,3135,-2524,-7436,1745225850287018259
767393,99,-251,259,3275,-2038,-7162,1745225850287018259
767585,117,-242,250,3412,-1727,-7098,1745225850287018259
767777,161,-233,228,3468,-1761,-6843,1745225850287018259
767969,207,-239,207,3540,-2044,-7036,1745225850287018259
768161,207,-229,181,3503,-2307,-6968,1745225850348210929
768353,180,-218,149,3471,-2433,-6892,1745225850348210929
768545,135,-205,120,3546,-2511,-6776,1745225850348210929
768737,80,-191,105,3615,-2448,-6607,1745225850348210929
768929,-80,-118,98,3970,-1282,-4394,1745225850348210929
769121,-816,-145,67,3991,-2821,-8696,1745225850348210929
769313,-1051,-290,382,3554,-2989,-9669,1745225850348210929
769505,-415,-108,454,3779,-1547,-7321,1745225850348210929
769697,-18,-104,111,3380,-2019,-7798,1745225850348210929
769889,-167,-188,-119,2059,-4225,-7984,1745225850348210929
770081,-415,-84,17,2518,-5348,-8112,1745225850348210929
770273,-603,34,119,2787,-5527,-7903,1745225850348210929
770465,-774,104,-14,1929,-5858,-7639,1745225850403494903
770657,-893,179,-199,1392,-5800,-7186,1745225850403494903
770849,-945,242,-341,1538,-5313,-6954,1745225850403494903
771041,-992,287,-449,1727,-5198,-7068,1745225850403494903
771233,-1035,323,-507,1685,-5362,-7443,1745225850403494903
771425,-1074,372,-535,1702,-5448,-7904,1745225850403494903
771617,-1079,418,-578,1948,-4865,-8292,1745225850403494903
771809,-1063,460,-644,2189,-3697,-8611,1745225850403494903
772001,-1016,482,-702,2456,-2300,-8889,1745225850403494903
772193,-919,499,-741,2790,-212,-8292,1745225850403494903
772385,-862,493,-818,2426,1667,-8166,1745225850403494903
772577,-832,477,-832,2273,2654,-8029,1745225850403494903
772769,-621,406,-744,3097,3016,-7915,1745225850463647270
772961,-295,317,-619,4152,2716,-7720,1745225850463647270
773153,-68,230,-520,4789,1301,-7651,1745225850463647270
773345,49,153,-425,5291,114,-7110,1745225850463647270
773537,-264,15,-367,3883,-1749,-8232,1745225850463647270
773729,-750,168,-196,4365,-369,-6372,1745225850463647270
773921,-467,247,-111,6311,908,-6556,1745225850463647270
774113,-234,132,-271,5697,681,-6473,1745225850463647270
774305,-314,108,-318,4857,40,-6460,1745225850463647270
774497,-344,162,-227,5034,450,-6515,1745225850463647270
774689,-352,149,-239,4913,891,-6412,1745225850463647270
774881,-359,133,-272,4837,661,-6292,1745225850463647270
775073,-322,126,-247,4862,266,-6119,1745225850520342794
775265,-279,120,-203,4877,-25,-5944,1745225850520342794
775457,-247,114,-186,4863,-258,-5961,1745225850520342794
775649,-237,100,-202,4760,-412,-5983,1745225850520342794
775841,-261,95,-235,4628,-315,-5617,1745225850520342794
776033,-317,59,-331,5383,588,-6391,1745225850520342794
776225,-332,-16,-417,5301,1248,-7041,1745225850520342794
776417,-317,-71,-332,4456,975,-7129,1745225850520342794
776609,-264,-97,-126,3756,369,-6261,1745225850520342794
776801,-178,-66,8,3366,-255,-4870,1745225850520342794
776993,-148,-10,12,3819,-752,-4586,1745225850520342794
777185,-172,-21,-66,4683,-814,-5739,1745225850520342794
777377,-207,-63,-136,4827,-259,-6693,1745225850580063186
777569,-236,-97,-159,4314,241,-7212,1745225850580063186
777761,-264,-138,-152,3777,460,-7530,1745225850580063186
777953,-301,-182,-132,3803,322,-7866,1745225850580063186
778145,-370,-226,-116,3935,-276,-8010,1745225850580063186
778337,-411,-236,-55,4025,-840,-7614,1745225850580063186
778529,-369,-235,-2,4072,-1187,-7171,1745225850580063186
778721,-348,-228,-22,3995,-1425,-6831,1745225850580063186
778913,-375,-191,-66,3912,-1345,-6574,1745225850580063186
779105,-404,-151,-99,3951,-868,-6626,1745225850580063186
779297,-396,-128,-135,3940,-354,-6804,1745225850580063186
779489,-356,-122,-168,3866,-53,-7056,1745225850580063186
779681,-320,-125,-190,3873,70,-7371,1745225850636316735
779873,-360,-150,-194,3559,-102,-7673,1745225850636316735
780065,-347,-131,-100,3557,-310,-7683,1745225850636316735
780257,-266,-145,-70,3660,-739,-8060,1745225850636316735
780449,-219,-124,-139,3762,-743,-8130,1745225850636316735
780641,-153,-97,-189,3736,-360,-8192,1745225850636316735
780833,-116,-76,-200,3400,-263,-8277,1745225850636316735
781025,-111,-47,-184,3207,-379,-8169,1745225850636316735
781217,-127,-21,-184,3289,-258,-7717,1745225850636316735
781409,-131,11,-210,3497,63,-7306,1745225850636316735
781601,-130,41,-242,3719,309,-7199,1745225850636316735
781793,-101,52,-233,3956,338,-7050,1745225850636316735
781985,-55,53,-196,3948,-199,-6704,1745225850697058680
782177,-26,59,-147,3831,-1010,-6695,1745225850697058680
782369,-36,68,-122,3595,-1192,-6575,1745225850697058680
782561,-25,102,-136,3479,-416,-6677,1745225850697058680
782753,23,124,-186,3576,692,-6913,1745225850697058680
782945,84,107,-217,3785,1403,-7171,1745225850697058680
783137,132,50,-180,3914,1311,-7499,1745225850697058680
783329,154,-28,-98,3746,825,-7597,1745225850697058680
783521,140,-106,-40,3423,423,-7886,1745225850697058680
783713,114,-195,-27,3115,486,-8331,1745225850697058680
783905,116,-260,-31,2672,704,-8059,1745225850697058680
784097,94,-281,-10,2481,380,-7678,1745225850697058680
784289,81,-276,45,2554,-4,-7082,1745225850758389578
784481,62,-244,87,2897,-325,-6482,1745225850758389578
784673,52,-211,112,3419,-381,-5954,1745225850758389578
784865,52,-197,117,4032,-355,-5859,1745225850758389578
785057,60,-203,134,4423,-347,-5846,1745225850758389578
785249,50,-222,173,4466,-488,-6118,1745225850758389578
785441,15,-235,223,4166,-576,-6384,1745225850758389578
785633,-32,-221,255,3850,-462,-6555,1745225850758389578
785825,-58,-196,264,3908,-159,-6738,1745225850758389578
786017,-57,-184,263,4167,254,-6847,1745225850758389578
786209,-20,-178,274,4268,590,-7003,1745225850758389578
786401,24,-176,289,4100,503,-7454,1745225850758389578
786593,53,-173,312,3837,-64,-7841,1745225850810971806
786785,54,-162,330,3548,-678,-8108,1745225850810971806
786977,32,-130,322,3438,-1014,-8145,1745225850810971806
787169,-14,-100,306,3597,-1029,-8132,1745225850810971806
787361,-34,-82,281,3812,-768,-7986,1745225850810971806
787553,-33,-63,250,3942,-595,-8023,1745225850810971806
787745,-21,-53,220,3945,-474,-7946,1745225850810971806
787937,-13,-39,191,3878,-378,-7702,1745225850810971806
788129,-12,-30,164,3967,-247,-7371,1745225850810971806
788321,-5,-24,140,4146,-190,-7070,1745225850810971806
788513,2,-21,116,4289,-255,-6951,1745225850810971806
788705,-4,-15,99,4200,-343,-7011,1745225850810971806
788897,-11,-7,95,4091,-326,-7001,1745225850873416652
789089,-19,-1,96,4007,-306,-6853,1745225850873416652
789281,-11,8,105,4054,-231,-6784,1745225850873416652
789473,2,7,106,3999,-126,-6936,1745225850873416652
789665,15,3,111,3799,29,-7006,1745225850873416652
789857,11,0,111,3729,44,-7279,1745225850873416652
790049,-1,-13,93,3696,-97,-7535,1745225850873416652
790241,-9,-17,74,3611,-227,-7734,1745225850873416652
790433,-31,-22,61,3568,-376,-7873,1745225850873416652
790625,-46,-29,49,3582,-466,-7813,1745225850873416652
790817,-60,-35,37,3613,-619,-7699,1745225850873416652
791009,-74,-42,37,3626,-835,-7513,1745225850873416652
791201,-87,-48,37,3549,-841,-7317,1745225851099909479
791393,-96,-45,23,3398,-585,-7306,1745225851099909479
791585,-87,-36,5,3383,-188,-7210,1745225851099909479
791777,-59,-20,-13,3424,28,-7087,1745225851099909479
791969,-25,-17,-11,3575,9,-7035,1745225851099909479
792161,17,-24,0,3633,-100,-7057,1745225851099909479
792353,41,-36,-1,3520,-129,-7142,1745225851099909479
792545,53,-41,-6,3410,-140,-7232,1745225851099909479
792737,42,-49,-15,3494,-234,-7459,1745225851099909479
792929,17,-57,-13,3612,-237,-7639,1745225851099909479
793121,-2,-61,0,3621,-112,-7663,1745225851099909479
793313,-16,-61,9,3545,-68,-7562,1745225851099909479
793505,-29,-55,16,3464,-171,-7436,1745225851108333621
793697,-41,-52,20,3506,-389,-7336,1745225851108333621
793889,-45,-48,14,3555,-517,-7200,1745225851108333621
794081,-41,-40,1,3478,-556,-7114,1745225851108333621
794273,-28,-33,-9,3392,-546,-7057,1745225851108333621
794465,-6,-24,-20,3383,-322,-7030,1745225851108333621
794657,15,-28,-34,3450,-7,-7095,1745225851108333621
794849,41,-38,-36,3663,179,-7213,1745225851108333621
795041,62,-59,-38,3777,116,-7154,1745225851108333621
795233,76,-81,-36,3752,-74,-7165,1745225851108333621
795425,78,-100,-28,3566,-76,-7105,1745225851108333621
795617,62,-107,-14,3377,-68,-7121,1745225851108333621
795809,57,-103,12,3364,-94,-7100,1745225851147673991
796001,54,-96,32,3421,-217,-7155,1745225851147673991
796193,56,-88,48,3463,-295,-7272,1745225851147673991
796385,44,-74,58,3440,-337,-7508,1745225851147673991
796577,20,-52,61,3380,-501,-7712,1745225851147673991
796769,9,-25,55,3445,-619,-7752,1745225851147673991
796961,1,-14,41,3733,-558,-7730,1745225851147673991
797153,-6,-25,28,3845,-391,-7819,1745225851147673991
797345,-10,-33,11,3748,-254,-7787,1745225851147673991
797537,-14,-42,-15,3648,-154,-7776,1745225851147673991
797729,-19,-56,-38,3564,-145,-7713,1745225851147673991
797921,-13,-64,-41,3573,-345,-7400,1745225851147673991
798113,2,-69,-29,3774,-795,-6957,1745225851156272402
798305,13,-73,-22,3875,-1297,-6556,1745225851156272402
798497,9,-64,-17,3774,-1446,-6246,1745225851156272402
798689,-14,-53,-26,3693,-1085,-6184,1745225851156272402
798881,-27,-47,-46,3691,-578,-6384,1745225851156272402
799073,-3,-40,-52,3733,-136,-6626,1745225851156272402
799265,32,-48,-60,3764,-17,-7029,1745225851156272402
799457,67,-57,-64,3626,-60,-7228,1745225851156272402
799649,70,-65,-63,3447,-204,-7351,1745225851156272402
799841,52,-71,-61,3489,-268,-7388,1745225851156272402
800033,29,-83,-69,3597,-370,-7501,1745225851156272402
800225,11,-90,-68,3567,-714,-7583,1745225851156272402
800417,-17,-85,-59,3495,-1102,-7595,1745225851175300197
800609,-55,-79,-60,3414,-1255,-7592,1745225851175300197
800801,-92,-66,-66,3335,-1113,-7620,1745225851175300197
800993,-123,-47,-77,3331,-919,-7601,1745225851175300197
801185,-135,-32,-84,3401,-755,-7574,1745225851175300197
801377,-122,-26,-81,3470,-672,-7335,1745225851175300197
801569,-100,-24,-75,3496,-731,-7196,1745225851175300197
801761,-74,-20,-66,3478,-784,-7075,1745225851175300197
801953,-70,-14,-57,3471,-797,-7127,1745225851175300197
802145,-107,-69,-45,3924,-1370,-6390,1745225851175300197
802337,-258,-111,-36,3244,-2610,-6628,1745225851175300197
802529,-357,-105,-16,3387,-1048,-7087,1745225851175300197
802721,-331,-99,-33,3091,901,-7534,1745225851231886711
802913,-254,-33,-35,2827,1456,-7621,1745225851231886711
803105,-144,-25,-39,2816,1078,-7731,1745225851231886711
803297,-53,-18,-34,3010,533,-7551,1745225851231886711
803489,-1,-11,-3,3100,48,-7439,1745225851231886711
803681,38,-6,19,3054,-268,-7330,1745225851231886711
803873,65,0,19,3131,-435,-7290,1745225851231886711
804065,91,9,11,3295,-289,-7185,1745225851231886711
804257,116,8,-3,3414,65,-7247,1745225851231886711
804449,142,0,-15,3397,411,-7238,1745225851231886711
804641,186,-7,-24,3409,587,-7231,1745225851231886711
804833,232,-11,-25,3400,144,-7124,1745225851231886711
805601,112,-35,-45,3957,-1532,-6994,1745225853778892767
903521,125,-197,29,2449,-533,-7542,1745225853778892767
903713,-82,-27,24,2746,372,-7801,1745225853778892767
903905,-38,-55,36,2578,121,-7665,1745225853778892767
904097,-22,-48,61,2716,-407,-7632,1745225853778892767
904289,2,-20,61,2650,-636,-7725,1745225853778892767
904481,10,-30,44,2538,-410,-7958,1745225853778892767
904673,11,-11,29,2472,6,-8021,1745225853778892767
904865,22,6,16,2465,3,-7868,1745225853778892767
905057,27,13,12,2520,-71,-7822,1745225853778892767
905249,38,43,14,2610,13,-7838,1745225853778892767
905441,61,68,14,2459,161,-7930,1745225853778892767
905633,89,99,10,2308,361,-8092,1745225853838086862
905825,153,142,0,2353,756,-8252,1745225853838086862
906017,265,176,-7,2477,1075,-8483,1745225853838086862
906209,392,220,-6,2489,1015,-8465,1745225853838086862
906401,419,214,-23,2288,-11,-8207,1745225853838086862
906593,502,288,2,2530,634,-7835,1745225853838086862
906785,533,338,17,2710,-259,-7562,1745225853838086862
906977,502,200,-9,2891,-1055,-7244,1745225853838086862
907169,426,183,-2,2900,-1586,-7156,1745225853838086862
907361,198,78,-1,4052,-4187,-6951,1745225853838086862
907553,-102,25,15,2143,-2752,-7492,1745225853838086862
907745,-198,101,86,2242,407,-7713,1745225853838086862
907937,-167,71,-6,2916,1487,-8017,1745225853897802566
908129,-79,96,-2,3352,961,-7599,1745225853897802566
908321,-10,115,43,3089,345,-7393,1745225853897802566
908513,49,132,20,2816,79,-7504,1745225853897802566
908705,66,143,-15,3008,-95,-7640,1745225853897802566
908897,66,141,-18,3126,-174,-7414,1745225853897802566
909089,102,153,-21,3110,-18,-7272,1745225853897802566
909281,127,146,-42,2996,-202,-7496,1745225853897802566
909473,72,123,-27,3087,-864,-7670,1745225853897802566
909665,-12,106,10,3276,-916,-7362,1745225853897802566
909857,-38,95,7,3185,-470,-7232,1745225853897802566
910049,-26,86,0,3063,-190,-7168,1745225853897802566
910241,-33,85,5,2937,-189,-7328,1745225853952301235
910433,-55,92,8,2839,-213,-7478,1745225853952301235
910625,-69,97,6,2976,-205,-7730,1745225853952301235
910817,-67,86,10,3013,-341,-8059,1745225853952301235
911009,-69,81,19,2957,-563,-8036,1745225853952301235
911201,-94,83,18,2772,-808,-8006,1745225853952301235
911393,-129,94,8,2724,-813,-7850,1745225853952301235
911585,-171,98,-9,2951,-472,-7921,1745225853952301235
911777,-174,93,-26,2972,34,-8020,1745225853952301235
911969,-118,99,-44,2931,333,-7872,1745225853952301235
912161,-43,103,-66,2770,270,-7799,1745225853952301235
912353,1,116,-80,2640,-63,-7568,1745225853952301235
912545,4,126,-78,2746,-377,-7412,1745225854010850023
912737,-9,124,-73,2978,-416,-7437,1745225854010850023
912929,-8,115,-67,3057,-122,-7364,1745225854010850023
913121,-5,111,-63,3042,-187,-7553,1745225854010850023
913313,3,101,-55,3016,-325,-7545,1745225854010850023
913505,-7,94,-46,2985,-440,-7278,1745225854010850023
913697,-39,90,-28,3063,-517,-7114,1745225854010850023
913889,-55,91,-7,3141,-510,-7073,1745225854010850023
914081,-61,91,4,3196,-435,-7144,1745225854010850023
914273,-60,87,5,3190,-144,-7159,1745225854010850023
914465,-61,79,0,3196,174,-7521,1745225854010850023
914657,-46,64,0,2976,325,-7785,1745225854010850023
914849,-25,64,8,2817,185,-7663,1745225854069157615
915041,-20,65,12,2887,-75,-7642,1745225854069157615
915233,-19,58,13,2896,-1,-7792,1745225854069157615
915425,-8,64,18,2711,-6,-8043,1745225854069157615
915617,3,60,19,2701,-63,-8009,1745225854069157615
915809,16,60,8,2906,12,-7956,1745225854069157615
916001,15,50,-1,2966,23,-8061,1745225854069157615
916193,19,52,9,2910,9,-7987,1745225854069157615
916385,15,53,11,2998,72,-7760,1745225854069157615
916577,26,59,4,3216,286,-7460,1745225854069157615
916769,39,72,12,3271,237,-7285,1745225854069157615
916961,36,79,38,3250,-92,-7348,1745225854069157615
917153,33,87,66,3225,-100,-7110,1745225854139828324
917345,13,94,71,3360,106,-7216,1745225854139828324
917537,1,90,75,3327,310,-7602,1745225854139828324
917729,-6,86,85,3249,354,-7896,1745225854139828324
917921,-5,74,92,3207,352,-8064,1745225854139828324
918113,-8,69,95,3193,184,-7977,1745225854139828324
918305,-25,66,99,3162,-118,-7895,1745225854139828324
918497,-37,71,105,3181,-271,-7633,1745225854139828324
918689,-47,75,102,3234,-218,-7406,1745225854139828324
918881,-56,75,89,3148,-95,-7413,1745225854139828324
919073,-67,79,78,3081,77,-7423,1745225854139828324
919265,-65,76,68,3011,181,-7656,1745225854139828324
919457,-52,80,76,2908,-121,-7745,1745225854187464451
919649,-34,99,92,2859,-648,-7486,1745225854187464451
919841,-31,116,93,2943,-881,-7258,1745225854187464451
920033,-38,131,77,3053,-455,-7047,1745225854187464451
920225,-52,135,45,3164,163,-7536,1745225854187464451
920417,-34,118,34,3089,449,-7970,1745225854187464451
920609,-5,122,57,2877,-288,-8194,1745225854187464451
920801,-3,134,89,2663,-1297,-7860,1745225854187464451
920993,-19,158,93,2817,-1522,-7397,1745225854187464451
921185,-45,160,58,3054,-955,-7358,1745225854187464451
921377,-66,159,30,3081,-294,-7572,1745225854187464451
921569,-72,153,28,3058,-35,-7668,1745225854187464451
921761,-62,142,30,3044,-230,-7578,1745225854246671879
921953,-46,146,33,3118,-536,-7192,1745225854246671879
922145,-49,146,25,3220,-725,-7150,1745225854246671879
922337,-59,146,24,3210,-597,-7031,1745225854246671879
922529,-76,145,18,3338,-320,-7186,1745225854246671879
922721,-83,128,5,3281,-80,-7375,1745225854246671879
922913,-80,122,8,3105,-133,-7441,1745225854246671879
923105,-76,123,14,2954,-273,-7418,1745225854246671879
923297,-74,128,10,3022,-308,-7391,1745225854246671879
923489,-64,131,-2,3276,-50,-7410,1745225854246671879
923681,-54,117,-19,3351,173,-7521,1745225854246671879
923873,-53,108,-18,3295,90,-7466,1745225854246671879
924065,-48,101,-10,3291,-145,-7408,1745225854304795775
924257,-46,95,-12,3338,-443,-7305,1745225854304795775
924449,-58,99,-13,3398,-652,-7212,1745225854304795775
924641,-77,104,-16,3398,-648,-7314,1745225854304795775
924833,-97,112,-15,3327,-460,-7222,1745225854304795775
925025,-111,116,-19,3407,-282,-7365,1745225854304795775
925217,-106,108,-19,3475,-102,-7336,1745225854304795775
925409,-103,99,-15,3464,-23,-7382,1745225854304795775
925601,-108,84,-7,3359,56,-7369,1745225854304795775
925793,-112,79,-6,3252,156,-7291,1745225854304795775
925985,-110,72,-15,3245,250,-7379,1745225854304795775
926177,-107,64,-21,3245,230,-7434,1745225854304795775
926369,-100,61,-19,3284,175,-7516,1745225854363084409
926561,-84,52,-18,3202,115,-7541,1745225854363084409
926753,-70,52,-17,3090,-38,-7583,1745225854363084409
926945,-63,55,-14,3023,-242,-7552,1745225854363084409
927137,-59,66,-14,3056,-277,-7459,1745225854363084409
927329,-56,78,-15,3140,-177,-7212,1745225854363084409
927521,-58,87,-17,3287,-190,-7286,1745225854363084409
927713,-42,88,-9,3332,-120,-7004,1745225854363084409
927905,-35,88,-13,3372,-111,-7256,1745225854363084409
928097,-35,72,-12,3294,-65,-7268,1745225854363084409
928289,-35,69,-5,3357,25,-7324,1745225854363084409
928481,-34,51,-8,3375,130,-7460,1745225854363084409
928673,-32,43,-6,3329,142,-7533,1745225854424698951
928865,-42,36,2,3241,-42,-7706,1745225854424698951
929057,-47,40,20,3189,-252,-7570,1745225854424698951
929249,-51,48,24,3298,-306,-7455,1745225854424698951
929441,-50,55,17,3317,-304,-7474,1745225854424698951
929633,-58,56,16,3233,-295,-7617,1745225854424698951
929825,-66,57,19,3117,-206,-7650,1745225854424698951
930017,-66,54,18,3143,-78,-7618,1745225854424698951
930209,-48,51,9,3265,69,-7362,1745225854424698951
930401,-32,39,-4,3356,59,-7560,1745225854424698951
930593,-25,28,3,3181,-102,-7465,1745225854424698951
930785,-27,33,15,3152,-257,-7554,1745225854424698951
930977,-18,32,17,3119,-287,-7397,1745225854478241847
931169,-15,48,18,3116,-351,-7476,1745225854478241847
931361,-23,56,29,2943,-529,-7499,1745225854478241847
931553,-32,90,56,2892,-672,-7514,1745225854478241847
931745,-24,111,65,2996,-602,-7445,1745225854478241847
931937,-9,125,54,3160,-451,-7507,1745225854478241847
932129,0,131,42,3234,-236,-7580,1745225854478241847
932321,-4,132,37,3140,-116,-7817,1745225854478241847
932513,-2,129,42,3095,6,-7722,1745225854478241847
932705,21,134,36,3242,139,-7706,1745225854478241847
932897,40,129,16,3349,124,-7702,1745225854478241847
933089,39,137,13,3342,8,-7812,1745225854478241847
933281,23,136,18,3263,-150,-7947,1745225854546829293
933473,18,148,23,3223,-237,-7704,1745225854546829293
933665,17,165,16,3367,-309,-7755,1745225854546829293
933857,8,168,10,3361,-417,-7661,1745225854546829293
934049,-18,188,21,3302,-507,-7569,1745225854546829293
934241,-36,205,20,3265,-350,-7453,1745225854546829293
934433,-38,219,-3,3397,6,-7414,1745225854546829293
934625,-28,219,-32,3574,255,-7556,1745225854546829293
934817,-29,216,-39,3581,219,-7623,1745225854546829293
935009,-34,221,-27,3476,75,-7724,1745225854546829293
935201,-35,223,-21,3354,17,-7564,1745225854546829293
935393,-29,232,-28,3421,3,-7350,1745225854546829293
935585,-26,230,-39,3530,-81,-7402,1745225854595090311
935777,-35,223,-36,3563,-181,-7361,1745225854595090311
935969,-51,215,-28,3538,-197,-7462,1745225854595090311
936161,-66,199,-25,3505,-137,-7386,1745225854595090311
936353,-73,196,-30,3596,-55,-7378,1745225854595090311
936545,-71,187,-41,3624,37,-7417,1745225854595090311
936737,-75,188,-46,3575,99,-7250,1745225854595090311
936929,-86,200,-47,3604,180,-7215,1745225854595090311
937121,-92,202,-57,3704,222,-7298,1745225854595090311
937313,-97,196,-57,3870,180,-7273,1745225854595090311
937505,-102,190,-48,4034,31,-7235,1745225854595090311
937697,-112,187,-46,4027,-75,-7323,1745225854595090311
937889,-133,181,-53,3888,-84,-7533,1745225854654676850
938081,-155,187,-57,3704,-40,-7522,1745225854654676850
938273,-175,205,-68,3680,-66,-7747,1745225854654676850
938465,-193,212,-74,3653,-194,-7738,1745225854654676850
938657,-206,227,-61,3665,-352,-7626,1745225854654676850
938849,-214,233,-57,3680,-485,-7502,1745225854654676850
939041,-219,246,-65,3691,-443,-7328,1745225854654676850
939233,-226,256,-82,3702,-310,-7321,1745225854654676850
939425,-245,261,-94,3632,-232,-7255,1745225854654676850
939617,-261,276,-91,3573,-367,-7128,1745225854654676850
939809,-257,296,-128,3645,-576,-7100,1745225854654676850
940001,-260,302,-148,3656,-228,-6866,1745225854654676850
940193,-262,292,-96,3751,128,-6756,1745225854719075637
940385,-274,273,-68,3729,427,-6563,1745225854719075637
940577,-266,257,-79,3772,674,-6576,1745225854719075637
940769,-244,233,-86,3819,724,-6580,1745225854719075637
940961,-221,217,-62,3933,545,-6482,1745225854719075637
941153,-193,190,-33,4035,290,-6570,1745225854719075637
941345,-172,161,-18,3970,116,-6512,1745225854719075637
941537,-171,141,-10,3866,38,-6334,1745225854719075637
941729,-180,125,0,3780,23,-6199,1745225854719075637
941921,-189,122,16,3814,27,-6224,1745225854719075637
942113,-193,112,26,3900,107,-6279,1745225854719075637
942305,-190,100,30,3991,194,-6360,1745225854719075637
942497,-182,77,23,4100,353,-6511,1745225854771036047
942689,-177,51,16,4095,514,-6589,1745225854771036047
942881,-173,19,18,4018,624,-6730,1745225854771036047
943073,-158,-9,15,3979,675,-6907,1745225854771036047
943265,-142,-41,7,3929,663,-7081,1745225854771036047
943457,-124,-66,-5,3840,640,-7256,1745225854771036047
943649,-117,-85,-19,3709,649,-7383,1745225854771036047
943841,-120,-88,-26,3566,676,-7417,1745225854771036047
944033,-125,-81,-18,3490,574,-7424,1745225854771036047
944225,-121,-66,1,3522,340,-7332,1745225854771036047
944417,-106,-47,16,3623,101,-7299,1745225854771036047
944609,-98,-24,13,3761,41,-7361,1745225854771036047
944801,-101,-10,-10,3796,215,-7552,1745225854829658793
944993,-120,-4,-37,3734,505,-7726,1745225854829658793
945185,-148,5,-45,3709,683,-7759,1745225854829658793
945377,-155,13,-30,3779,648,-7815,1745225854829658793
945569,-140,16,-5,3809,438,-7787,1745225854829658793
945761,-117,21,21,3807,158,-7745,1745225854829658793
945953,-102,21,33,3779,-12,-7765,1745225854829658793
946145,-105,23,28,3675,-39,-7673,1745225854829658793
946337,-128,32,18,3503,-4,-7545,1745225854829658793
946529,-145,45,21,3355,68,-7414,1745225854829658793
946721,-139,55,30,3284,146,-7261,1745225854829658793
946913,-130,67,35,3316,99,-7206,1745225854829658793
947105,-111,70,37,3473,67,-7221,1745225854886838479
947297,-82,64,26,3559,168,-7189,1745225854886838479
947489,-78,64,12,3500,247,-7209,1745225854886838479
947681,-93,62,5,3398,255,-7291,1745225854886838479
947873,-87,72,21,3342,220,-7178,1745225854886838479
948065,-61,74,45,3591,124,-7162,1745225854886838479
948257,-19,54,38,3785,128,-7053,1745225854886838479
948449,-13,45,12,3811,138,-7049,1745225854886838479
948641,-46,29,-11,3664,248,-7194,1745225854886838479
948833,-75,18,-10,3439,361,-7220,1745225854886838479
949025,-78,11,7,3534,411,-7169,1745225854886838479
949217,-42,-7,4,3786,435,-7051,1745225854886838479
949409,-15,-15,-18,3800,355,-7071,1745225854956126857
949601,-30,-15,-22,3541,222,-7152,1745225854956126857
949793,-48,-15,9,3349,131,-7051,1745225854956126857
949985,-36,-17,44,3574,79,-6905,1745225854956126857
950177,-6,-22,49,3899,64,-6750,1745225854956126857
950369,-6,-19,29,3935,3,-6835,1745225854956126857
950561,-48,-22,25,3739,24,-7103,1745225854956126857
950753,-80,-32,44,3613,165,-7240,1745225854956126857
950945,-77,-39,54,3810,382,-7366,1745225854956126857
951137,-67,-41,35,3866,426,-7445,1745225854956126857
951329,-89,-21,23,3694,202,-7689,1745225854956126857
951521,-105,2,50,3405,-28,-7790,1745225854956126857
951713,-91,20,79,3463,-80,-7791,1745225855004293500
951905,-51,37,67,3672,75,-7632,1745225855004293500
952097,-42,62,30,3621,173,-7690,1745225855004293500
952289,-97,72,19,3446,43,-7852,1745225855004293500
952481,-125,69,43,3401,-11,-7586,1745225855004293500
952673,-98,65,48,3775,110,-7284,1745225855004293500
952865,-65,53,5,3987,352,-7161,1745225855004293500
953057,-82,53,-35,3772,523,-7283,1745225855004293500
953249,-120,48,-28,3521,701,-7395,1745225855004293500
953441,-115,33,-4,3608,930,-7289,1745225855004293500
953633,-67,18,-12,3885,1035,-7118,1745225855004293500
953825,-34,16,-38,3823,801,-7078,1745225855004293500
954017,-35,20,-33,3607,415,-7190,1745225855063868216
954209,-36,18,-8,3573,193,-7097,1745225855063868216
954401,-19,18,-12,3843,240,-7035,1745225855063868216
954593,-1,29,-51,4014,446,-7150,1745225855063868216
954785,-29,46,-88,3906,561,-7551,1745225855063868216
954977,-78,62,-75,3598,553,-7747,1745225855063868216
955169,-94,76,-45,3705,546,-7826,1745225855063868216
955361,-61,86,-60,3976,743,-7654,1745225855063868216
955553,-55,105,-97,4038,791,-7791,1745225855063868216
955745,-96,114,-89,3916,658,-7875,1745225855063868216
955937,-130,111,-42,3863,423,-7708,1745225855063868216
956129,-133,103,-15,4010,212,-7391,1745225855063868216
956321,-132,99,-29,4086,108,-6975,1745225855123710065
956513,-164,102,-54,4038,152,-6756,1745225855123710065
956705,-213,96,-57,4026,381,-6598,1745225855123710065
956897,-233,79,-49,4124,708,-6615,1745225855123710065
957089,-230,56,-48,4280,765,-6663,1745225855123710065
957281,-227,23,-47,4342,497,-6950,1745225855123710065
957473,-233,14,-34,3966,258,-7145,1745225855123710065
957665,-268,41,-5,3555,84,-7065,1745225855123710065
957857,-292,56,9,3849,-21,-7212,1745225855123710065
958049,-278,61,-19,4351,183,-7238,1745225855123710065
958241,-313,74,-45,4431,260,-7263,1745225855123710065
958433,-394,78,-27,4236,72,-7706,1745225855123710065
958625,-449,86,5,3954,-133,-7905,1745225855181634588
958817,-459,121,11,3804,-62,-7989,1745225855181634588
959009,-471,165,-11,3718,119,-7987,1745225855181634588
959201,-507,206,-16,3706,135,-8144,1745225855181634588
959393,-548,239,3,3808,-60,-8479,1745225855181634588
959585,-575,287,5,3680,-50,-8608,1745225855181634588
959777,-620,359,-4,3493,-44,-9071,1745225855181634588
959969,-677,425,-2,3371,136,-8441,1745225855181634588
960161,-634,538,54,3607,147,-8010,1745225855181634588
960353,-616,557,88,4130,-105,-8665,1745225855181634588
960545,-632,600,59,3799,168,-8179,1745225855181634588
960737,-696,667,80,3668,381,-7907,1745225855181634588
960929,-747,694,107,3655,645,-7593,1745225855238205582
961121,-750,725,126,3802,1033,-7383,1745225855238205582
961313,-740,770,157,3917,1388,-7364,1745225855238205582
961505,-763,797,190,3953,1603,-7239,1745225855238205582
961697,-790,808,232,3920,1698,-7133,1745225855238205582
961889,-809,831,283,4070,1791,-6938,1745225855238205582
962081,-800,807,288,4647,1842,-7209,1745225855238205582
962273,-784,728,258,4709,1983,-5542,1745225855238205582
962465,-746,757,272,4644,1946,-5285,1745225855238205582
962657,-632,706,284,4661,2224,-4747,1745225855238205582
962849,-539,644,230,4683,2310,-4503,1745225855238205582
963041,-443,578,195,4574,2223,-4509,1745225855238205582
963233,-368,521,215,4551,2114,-4510,1745225855296514685
963425,-300,459,228,4661,2097,-4507,1745225855296514685
963617,-242,385,205,4841,2170,-4534,1745225855296514685
963809,-226,302,180,4954,2192,-4570,1745225855296514685
964001,-212,208,187,5057,2157,-4460,1745225855296514685
964193,-172,105,195,5125,2173,-4401,1745225855296514685
964385,-121,-12,185,5199,2264,-4192,1745225855296514685
964577,-75,-139,172,5227,2370,-4087,1745225855296514685
964769,-39,-264,173,5267,2504,-4106,1745225855296514685
964961,1,-374,180,5254,2489,-4279,1745225855296514685
965153,80,-474,194,5186,2270,-4272,1745225855296514685
965345,198,-543,209,5128,1978,-4153,1745225855296514685
965537,304,-593,197,5096,1771,-4271,1745225855364703281
965729,345,-636,163,5074,1631,-4630,1745225855364703281
965921,360,-689,133,5216,1535,-5004,1745225855364703281
